"ExperimentName","Subject","Block","list","Procedure.Block.","cue_target","Direction","ListNum","JOL","RT","Procedure.Trial.","Type","Procedure.Block..1","cue_target.1","ListNum.1","Response","Procedure.Trial..1","Type.1"
"IS_JOL A",5,1,3,"BlockProc1","Delinquent - Bad","F",1,100,2920,"StudyProc7","JOL","BlockProc1","Delinquent - ?",1,"misbehave","recallproc1","recall"
"IS_JOL A",5,1,3,"BlockProc1","Digestion - Stomach","F",2,100,4859,"StudyProc7","JOL","BlockProc1","Digestion - ?",2,"stomach","recallproc1","recall"
"IS_JOL A",5,1,3,"BlockProc1","Wage - Money","F",3,100,2160,"StudyProc7","JOL","BlockProc1","Wage - ?",3,"money","recallproc1","recall"
"IS_JOL A",5,1,3,"BlockProc1","Chisel - Hammer","F",4,90,3127,"StudyProc7","JOL","BlockProc1","Chisel - ?",4,"hammer","recallproc1","recall"
"IS_JOL A",5,1,3,"BlockProc1","Editor - News","F",5,100,3999,"StudyProc7","JOL","BlockProc1","Editor - ?",5,"newspaper","recallproc1","recall"
"IS_JOL A",5,1,3,"BlockProc1","Hornet - Sting","F",6,100,3590,"StudyProc7","JOL","BlockProc1","Hornet - ?",6,"sting","recallproc1","recall"
"IS_JOL A",5,1,3,"BlockProc1","Bitter - Cold","F",7,10,4606,"StudyProc7","JOL","BlockProc1","Bitter - ?",7,"","recallproc1","recall"
"IS_JOL A",5,1,3,"BlockProc1","Root - Plant","F",8,100,3242,"StudyProc7","JOL","BlockProc1","Root - ?",8,"plant","recallproc1","recall"
"IS_JOL A",5,1,3,"BlockProc1","Swan - Bird","F",9,90,3031,"StudyProc7","JOL","BlockProc1","Swan - ?",9,"bird","recallproc1","recall"
"IS_JOL A",5,1,3,"BlockProc1","Paw - Dog","F",10,100,2072,"StudyProc7","JOL","BlockProc1","Paw - ?",10,"dog","recallproc1","recall"
"IS_JOL A",5,1,3,"BlockProc1","Way - Out","F",11,70,6922,"StudyProc7","JOL","BlockProc1","Way - ?",11,"","recallproc1","recall"
"IS_JOL A",5,1,3,"BlockProc1","Hygiene - Clean","F",12,100,3560,"StudyProc7","JOL","BlockProc1","Hygiene - ?",12,"","recallproc1","recall"
"IS_JOL A",5,1,3,"BlockProc1","Bridge - Water","F",13,50,3228,"StudyProc7","JOL","BlockProc1","Bridge - ?",13,"water","recallproc1","recall"
"IS_JOL A",5,1,3,"BlockProc1","Geology - Rock","F",14,100,2981,"StudyProc7","JOL","BlockProc1","Geology - ?",14,"rock","recallproc1","recall"
"IS_JOL A",5,1,3,"BlockProc1","Revolution - War","F",15,90,2308,"StudyProc7","JOL","BlockProc1","Revolution - ?",15,"war","recallproc1","recall"
"IS_JOL A",5,1,3,"BlockProc1","Discussion - Talk","F",16,100,3196,"StudyProc7","JOL","BlockProc1","Discussion - ?",16,"","recallproc1","recall"
"IS_JOL A",5,1,3,"BlockProc1","Herd - Cow","F",17,100,2170,"StudyProc7","JOL","BlockProc1","Herd - ?",17,"cow","recallproc1","recall"
"IS_JOL A",5,1,3,"BlockProc1","Credit - Card","F",18,100,1986,"StudyProc7","JOL","BlockProc1","Credit - ?",18,"","recallproc1","recall"
"IS_JOL A",5,1,3,"BlockProc1","Orchid - Flower","F",19,100,2495,"StudyProc7","JOL","BlockProc1","Orchid - ?",19,"flower","recallproc1","recall"
"IS_JOL A",5,1,3,"BlockProc1","Tuna - Fish","F",20,100,2936,"StudyProc7","JOL","BlockProc1","Tuna - ?",20,"fish","recallproc1","recall"
"IS_JOL A",5,1,3,"BlockProc1","Full - Enough","B",21,80,2550,"StudyProc7","JOL","BlockProc1","Full - ?",21,"enough","recallproc1","recall"
"IS_JOL A",5,1,3,"BlockProc1","Drink - Sip","B",22,90,2375,"StudyProc7","JOL","BlockProc1","Drink - ?",22,"","recallproc1","recall"
"IS_JOL A",5,1,3,"BlockProc1","Dark - Cave","B",23,100,1913,"StudyProc7","JOL","BlockProc1","Dark - ?",23,"light","recallproc1","recall"
"IS_JOL A",5,1,3,"BlockProc1","Take - Seize","B",24,0,3525,"StudyProc7","JOL","BlockProc1","Take - ?",24,"","recallproc1","recall"
"IS_JOL A",5,1,3,"BlockProc1","Height - Growth","B",25,100,5617,"StudyProc7","JOL","BlockProc1","Height - ?",25,"inches","recallproc1","recall"
"IS_JOL A",5,1,3,"BlockProc1","Sentence - Word","B",26,80,4120,"StudyProc7","JOL","BlockProc1","Sentence - ?",26,"word","recallproc1","recall"
"IS_JOL A",5,1,3,"BlockProc1","Bug - Wasp","B",27,100,3946,"StudyProc7","JOL","BlockProc1","Bug - ?",27,"spider","recallproc1","recall"
"IS_JOL A",5,1,3,"BlockProc1","Math - Division","B",28,100,4130,"StudyProc7","JOL","BlockProc1","Math - ?",28,"problm","recallproc1","recall"
"IS_JOL A",5,1,3,"BlockProc1","Law - Attorney","B",29,100,2089,"StudyProc7","JOL","BlockProc1","Law - ?",29,"attorney","recallproc1","recall"
"IS_JOL A",5,1,3,"BlockProc1","Great - Fantastic","B",30,100,2163,"StudyProc7","JOL","BlockProc1","Great - ?",30,"","recallproc1","recall"
"IS_JOL A",5,1,3,"BlockProc1","Key - Latch","B",31,50,6453,"StudyProc7","JOL","BlockProc1","Key - ?",31,"latch","recallproc1","recall"
"IS_JOL A",5,1,3,"BlockProc1","Hot - Chili","B",32,20,4991,"StudyProc7","JOL","BlockProc1","Hot - ?",32,"chili","recallproc1","recall"
"IS_JOL A",5,1,3,"BlockProc1","Ball - Racket","B",33,100,2603,"StudyProc7","JOL","BlockProc1","Ball - ?",33,"","recallproc1","recall"
"IS_JOL A",5,1,3,"BlockProc1","Work - Chore","B",34,50,3787,"StudyProc7","JOL","BlockProc1","Work - ?",34,"chores","recallproc1","recall"
"IS_JOL A",5,1,3,"BlockProc1","Hunger - Famine","B",35,100,4778,"StudyProc7","JOL","BlockProc1","Hunger - ?",35,"famine","recallproc1","recall"
"IS_JOL A",5,1,3,"BlockProc1","Sleep - Drowsy","B",36,100,4275,"StudyProc7","JOL","BlockProc1","Sleep - ?",36,"","recallproc1","recall"
"IS_JOL A",5,1,3,"BlockProc1","Smell - Stench","B",37,100,3646,"StudyProc7","JOL","BlockProc1","Smell - ?",37,"stinch","recallproc1","recall"
"IS_JOL A",5,1,3,"BlockProc1","Clothes - Attire","B",38,90,2566,"StudyProc7","JOL","BlockProc1","Clothes - ?",38,"","recallproc1","recall"
"IS_JOL A",5,1,3,"BlockProc1","Plane - Pilot","B",39,100,2365,"StudyProc7","JOL","BlockProc1","Plane - ?",39,"","recallproc1","recall"
"IS_JOL A",5,1,3,"BlockProc1","Fire - Blaze","B",40,100,2293,"StudyProc7","JOL","BlockProc1","Fire - ?",40,"extinguisher","recallproc1","recall"
"IS_JOL A",5,1,3,"BlockProc1","Due - Assignment","S",41,100,1933,"StudyProc3","JOL","BlockProc1","Due - ?",41,"date","recallproc1","recall"
"IS_JOL A",5,1,3,"BlockProc1","Number - Amount","S",42,100,3231,"StudyProc3","JOL","BlockProc1","Number - ?",42,"","recallproc1","recall"
"IS_JOL A",5,1,3,"BlockProc1","Location - Site","S",43,100,1881,"StudyProc3","JOL","BlockProc1","Location - ?",43,"place","recallproc1","recall"
"IS_JOL A",5,1,3,"BlockProc1","Dump - Waste","S",44,100,1797,"StudyProc3","JOL","BlockProc1","Dump - ?",44,"waste","recallproc1","recall"
"IS_JOL A",5,1,3,"BlockProc1","Trial - Jury","S",45,100,2236,"StudyProc3","JOL","BlockProc1","Trial - ?",45,"start","recallproc1","recall"
"IS_JOL A",5,1,3,"BlockProc1","Architecture - Design","S",46,100,3792,"StudyProc3","JOL","BlockProc1","Architecture - ?",46,"design","recallproc1","recall"
"IS_JOL A",5,1,3,"BlockProc1","Grill - Bar","S",47,0,1621,"StudyProc3","JOL","BlockProc1","Grill - ?",47,"bar","recallproc1","recall"
"IS_JOL A",5,1,3,"BlockProc1","Kidney - Liver","S",48,100,1487,"StudyProc3","JOL","BlockProc1","Kidney - ?",48,"liver","recallproc1","recall"
"IS_JOL A",5,1,3,"BlockProc1","Begin - End","S",49,100,1923,"StudyProc3","JOL","BlockProc1","Begin - ?",49,"star","recallproc1","recall"
"IS_JOL A",5,1,3,"BlockProc1","Blow - Wind","S",50,100,3510,"StudyProc3","JOL","BlockProc1","Blow - ?",50,"","recallproc1","recall"
"IS_JOL A",5,1,3,"BlockProc1","Pop - Soda","S",51,100,1627,"StudyProc3","JOL","BlockProc1","Pop - ?",51,"","recallproc1","recall"
"IS_JOL A",5,1,3,"BlockProc1","Wine - Cheese","S",52,100,1912,"StudyProc3","JOL","BlockProc1","Wine - ?",52,"cheese","recallproc1","recall"
"IS_JOL A",5,1,3,"BlockProc1","Bathroom - Toilet","S",53,100,5541,"StudyProc3","JOL","BlockProc1","Bathroom - ?",53,"","recallproc1","recall"
"IS_JOL A",5,1,3,"BlockProc1","Lettuce - Salad","S",54,100,2017,"StudyProc3","JOL","BlockProc1","Lettuce - ?",54,"salad","recallproc1","recall"
"IS_JOL A",5,1,3,"BlockProc1","Shoe - Foot","S",55,90,2620,"StudyProc3","JOL","BlockProc1","Shoe - ?",55,"foot","recallproc1","recall"
"IS_JOL A",5,1,3,"BlockProc1","Past - Future","S",56,90,2159,"StudyProc3","JOL","BlockProc1","Past - ?",56,"","recallproc1","recall"
"IS_JOL A",5,1,3,"BlockProc1","Choice - Decision","S",57,90,3827,"StudyProc3","JOL","BlockProc1","Choice - ?",57,"","recallproc1","recall"
"IS_JOL A",5,1,3,"BlockProc1","Honey - Bee","S",58,100,2025,"StudyProc3","JOL","BlockProc1","Honey - ?",58,"bee","recallproc1","recall"
"IS_JOL A",5,1,3,"BlockProc1","Baby - Child","S",59,100,2983,"StudyProc3","JOL","BlockProc1","Baby - ?",59,"child","recallproc1","recall"
"IS_JOL A",5,1,3,"BlockProc1","Circle - Round","S",60,100,3389,"StudyProc3","JOL","BlockProc1","Circle - ?",60,"","recallproc1","recall"
"IS_JOL A",5,1,3,"BlockProc1","Pusher - Clutter","U",61,0,2880,"StudyProc3","JOL","BlockProc1","Pusher - ?",61,"","recallproc1","recall"
"IS_JOL A",5,1,3,"BlockProc1","Dietary - Sacking","U",62,80,3064,"StudyProc3","JOL","BlockProc1","Dietary - ?",62,"restrictions","recallproc1","recall"
"IS_JOL A",5,1,3,"BlockProc1","Park - Hungry","U",63,0,2128,"StudyProc3","JOL","BlockProc1","Park - ?",63,"bench","recallproc1","recall"
"IS_JOL A",5,1,3,"BlockProc1","Lift - Woman","U",64,0,3329,"StudyProc3","JOL","BlockProc1","Lift - ?",64,"woman","recallproc1","recall"
"IS_JOL A",5,1,3,"BlockProc1","Soon - Belt","U",65,0,2250,"StudyProc3","JOL","BlockProc1","Soon - ?",65,"now","recallproc1","recall"
"IS_JOL A",5,1,3,"BlockProc1","Discover - Floor","U",66,0,2844,"StudyProc3","JOL","BlockProc1","Discover - ?",66,"","recallproc1","recall"
"IS_JOL A",5,1,3,"BlockProc1","Death - Business","U",67,20,3713,"StudyProc3","JOL","BlockProc1","Death - ?",67,"","recallproc1","recall"
"IS_JOL A",5,1,3,"BlockProc1","Debate - Sight","U",68,0,1377,"StudyProc3","JOL","BlockProc1","Debate - ?",68,"argument","recallproc1","recall"
"IS_JOL A",5,1,3,"BlockProc1","Artery - Bronze","U",69,0,3376,"StudyProc3","JOL","BlockProc1","Artery - ?",69,"heart","recallproc1","recall"
"IS_JOL A",5,1,3,"BlockProc1","Fix - Hand","U",70,0,1227,"StudyProc3","JOL","BlockProc1","Fix - ?",70,"","recallproc1","recall"
"IS_JOL A",5,1,3,"BlockProc1","Machine - Position","U",71,0,1964,"StudyProc3","JOL","BlockProc1","Machine - ?",71,"","recallproc1","recall"
"IS_JOL A",5,1,3,"BlockProc1","Happy - Car","U",72,10,2423,"StudyProc3","JOL","BlockProc1","Happy - ?",72,"sad","recallproc1","recall"
"IS_JOL A",5,1,3,"BlockProc1","Allow - Tuck","U",73,0,1849,"StudyProc3","JOL","BlockProc1","Allow - ?",73,"take","recallproc1","recall"
"IS_JOL A",5,1,3,"BlockProc1","Art - Lion","U",74,20,3019,"StudyProc3","JOL","BlockProc1","Art - ?",74,"project","recallproc1","recall"
"IS_JOL A",5,1,3,"BlockProc1","Strong - Accident","U",75,0,1773,"StudyProc3","JOL","BlockProc1","Strong - ?",75,"","recallproc1","recall"
"IS_JOL A",5,1,3,"BlockProc1","Sugar - Riddle","U",76,0,2983,"StudyProc3","JOL","BlockProc1","Sugar - ?",76,"","recallproc1","recall"
"IS_JOL A",5,1,3,"BlockProc1","Valley - Add","U",77,0,1285,"StudyProc3","JOL","BlockProc1","Valley - ?",77,"","recallproc1","recall"
"IS_JOL A",5,1,3,"BlockProc1","Cash - Would","U",78,0,2333,"StudyProc3","JOL","BlockProc1","Cash - ?",78,"","recallproc1","recall"
"IS_JOL A",5,1,3,"BlockProc1","Hide - Sick","U",79,80,3963,"StudyProc3","JOL","BlockProc1","Hide - ?",79,"search","recallproc1","recall"
"IS_JOL A",5,1,3,"BlockProc1","King - Vase","U",80,0,1755,"StudyProc3","JOL","BlockProc1","King - ?",80,"queen","recallproc1","recall"
"RL_JOL A",9,1,3,"BlockProc1","Delinquent - Bad","F",1,100,6171,"StudyProc7","JOL","BlockProc1","Delinquent - ?",1,"bad","recallproc1","recall"
"RL_JOL A",9,1,3,"BlockProc1","Digestion - Stomach","F",2,100,5125,"StudyProc7","JOL","BlockProc1","Digestion - ?",2,"stomach","recallproc1","recall"
"RL_JOL A",9,1,3,"BlockProc1","Wage - Money","F",3,100,6125,"StudyProc7","JOL","BlockProc1","Wage - ?",3,"money","recallproc1","recall"
"RL_JOL A",9,1,3,"BlockProc1","Chisel - Hammer","F",4,100,5054,"StudyProc7","JOL","BlockProc1","Chisel - ?",4,"hammer","recallproc1","recall"
"RL_JOL A",9,1,3,"BlockProc1","Editor - News","F",5,100,6851,"StudyProc7","JOL","BlockProc1","Editor - ?",5,"news","recallproc1","recall"
"RL_JOL A",9,1,3,"BlockProc1","Hornet - Sting","F",6,100,5854,"StudyProc7","JOL","BlockProc1","Hornet - ?",6,"sting","recallproc1","recall"
"RL_JOL A",9,1,3,"BlockProc1","Bitter - Cold","F",7,80,7819,"StudyProc7","JOL","BlockProc1","Bitter - ?",7,"nasty","recallproc1","recall"
"RL_JOL A",9,1,3,"BlockProc1","Root - Plant","F",8,100,8992,"StudyProc7","JOL","BlockProc1","Root - ?",8,"plant","recallproc1","recall"
"RL_JOL A",9,1,3,"BlockProc1","Swan - Bird","F",9,100,5504,"StudyProc7","JOL","BlockProc1","Swan - ?",9,"bird","recallproc1","recall"
"RL_JOL A",9,1,3,"BlockProc1","Paw - Dog","F",10,100,3918,"StudyProc7","JOL","BlockProc1","Paw - ?",10,"dog","recallproc1","recall"
"RL_JOL A",9,1,3,"BlockProc1","Way - Out","F",11,90,7026,"StudyProc7","JOL","BlockProc1","Way - ?",11,"path","recallproc1","recall"
"RL_JOL A",9,1,3,"BlockProc1","Hygiene - Clean","F",12,100,8206,"StudyProc7","JOL","BlockProc1","Hygiene - ?",12,"clean","recallproc1","recall"
"RL_JOL A",9,1,3,"BlockProc1","Bridge - Water","F",13,100,8190,"StudyProc7","JOL","BlockProc1","Bridge - ?",13,"water","recallproc1","recall"
"RL_JOL A",9,1,3,"BlockProc1","Geology - Rock","F",14,100,7028,"StudyProc7","JOL","BlockProc1","Geology - ?",14,"rock","recallproc1","recall"
"RL_JOL A",9,1,3,"BlockProc1","Revolution - War","F",15,100,5003,"StudyProc7","JOL","BlockProc1","Revolution - ?",15,"war","recallproc1","recall"
"RL_JOL A",9,1,3,"BlockProc1","Discussion - Talk","F",16,100,5796,"StudyProc7","JOL","BlockProc1","Discussion - ?",16,"talk","recallproc1","recall"
"RL_JOL A",9,1,3,"BlockProc1","Herd - Cow","F",17,100,5323,"StudyProc7","JOL","BlockProc1","Herd - ?",17,"cow","recallproc1","recall"
"RL_JOL A",9,1,3,"BlockProc1","Credit - Card","F",18,100,5775,"StudyProc7","JOL","BlockProc1","Credit - ?",18,"card","recallproc1","recall"
"RL_JOL A",9,1,3,"BlockProc1","Orchid - Flower","F",19,100,7173,"StudyProc7","JOL","BlockProc1","Orchid - ?",19,"flower","recallproc1","recall"
"RL_JOL A",9,1,3,"BlockProc1","Tuna - Fish","F",20,100,9742,"StudyProc7","JOL","BlockProc1","Tuna - ?",20,"fish","recallproc1","recall"
"RL_JOL A",9,1,3,"BlockProc1","Full - Enough","B",21,100,6829,"StudyProc7","JOL","BlockProc1","Full - ?",21,"ful","recallproc1","recall"
"RL_JOL A",9,1,3,"BlockProc1","Drink - Sip","B",22,100,5564,"StudyProc7","JOL","BlockProc1","Drink - ?",22,"water","recallproc1","recall"
"RL_JOL A",9,1,3,"BlockProc1","Dark - Cave","B",23,100,3781,"StudyProc7","JOL","BlockProc1","Dark - ?",23,"cave","recallproc1","recall"
"RL_JOL A",9,1,3,"BlockProc1","Take - Seize","B",24,100,4218,"StudyProc7","JOL","BlockProc1","Take - ?",24,"grab","recallproc1","recall"
"RL_JOL A",9,1,3,"BlockProc1","Height - Growth","B",25,100,6169,"StudyProc7","JOL","BlockProc1","Height - ?",25,"growth","recallproc1","recall"
"RL_JOL A",9,1,3,"BlockProc1","Sentence - Word","B",26,100,7506,"StudyProc7","JOL","BlockProc1","Sentence - ?",26,"word","recallproc1","recall"
"RL_JOL A",9,1,3,"BlockProc1","Bug - Wasp","B",27,100,4322,"StudyProc7","JOL","BlockProc1","Bug - ?",27,"wasp","recallproc1","recall"
"RL_JOL A",9,1,3,"BlockProc1","Math - Division","B",28,100,4614,"StudyProc7","JOL","BlockProc1","Math - ?",28,"division","recallproc1","recall"
"RL_JOL A",9,1,3,"BlockProc1","Law - Attorney","B",29,100,7440,"StudyProc7","JOL","BlockProc1","Law - ?",29,"attorney","recallproc1","recall"
"RL_JOL A",9,1,3,"BlockProc1","Great - Fantastic","B",30,100,5327,"StudyProc7","JOL","BlockProc1","Great - ?",30,"fantastic","recallproc1","recall"
"RL_JOL A",9,1,3,"BlockProc1","Key - Latch","B",31,100,8748,"StudyProc7","JOL","BlockProc1","Key - ?",31,"latch","recallproc1","recall"
"RL_JOL A",9,1,3,"BlockProc1","Hot - Chili","B",32,100,4874,"StudyProc7","JOL","BlockProc1","Hot - ?",32,"chili","recallproc1","recall"
"RL_JOL A",9,1,3,"BlockProc1","Ball - Racket","B",33,100,6862,"StudyProc7","JOL","BlockProc1","Ball - ?",33,"racket","recallproc1","recall"
"RL_JOL A",9,1,3,"BlockProc1","Work - Chore","B",34,100,4859,"StudyProc7","JOL","BlockProc1","Work - ?",34,"chore","recallproc1","recall"
"RL_JOL A",9,1,3,"BlockProc1","Hunger - Famine","B",35,100,7169,"StudyProc7","JOL","BlockProc1","Hunger - ?",35,"famine","recallproc1","recall"
"RL_JOL A",9,1,3,"BlockProc1","Sleep - Drowsy","B",36,100,5385,"StudyProc7","JOL","BlockProc1","Sleep - ?",36,"fatigue","recallproc1","recall"
"RL_JOL A",9,1,3,"BlockProc1","Smell - Stench","B",37,100,4833,"StudyProc7","JOL","BlockProc1","Smell - ?",37,"odor","recallproc1","recall"
"RL_JOL A",9,1,3,"BlockProc1","Clothes - Attire","B",38,100,4751,"StudyProc7","JOL","BlockProc1","Clothes - ?",38,"attire","recallproc1","recall"
"RL_JOL A",9,1,3,"BlockProc1","Plane - Pilot","B",39,100,5268,"StudyProc7","JOL","BlockProc1","Plane - ?",39,"sky","recallproc1","recall"
"RL_JOL A",9,1,3,"BlockProc1","Fire - Blaze","B",40,100,6729,"StudyProc7","JOL","BlockProc1","Fire - ?",40,"blaze","recallproc1","recall"
"RL_JOL A",9,1,3,"BlockProc1","Due - Assignment","S",41,100,4568,"StudyProc3","JOL","BlockProc1","Due - ?",41,"assignment","recallproc1","recall"
"RL_JOL A",9,1,3,"BlockProc1","Number - Amount","S",42,80,21412,"StudyProc3","JOL","BlockProc1","Number - ?",42,"total","recallproc1","recall"
"RL_JOL A",9,1,3,"BlockProc1","Location - Site","S",43,100,4543,"StudyProc3","JOL","BlockProc1","Location - ?",43,"address","recallproc1","recall"
"RL_JOL A",9,1,3,"BlockProc1","Dump - Waste","S",44,100,4213,"StudyProc3","JOL","BlockProc1","Dump - ?",44,"waste","recallproc1","recall"
"RL_JOL A",9,1,3,"BlockProc1","Trial - Jury","S",45,100,5373,"StudyProc3","JOL","BlockProc1","Trial - ?",45,"jury","recallproc1","recall"
"RL_JOL A",9,1,3,"BlockProc1","Architecture - Design","S",46,100,5723,"StudyProc3","JOL","BlockProc1","Architecture - ?",46,"design","recallproc1","recall"
"RL_JOL A",9,1,3,"BlockProc1","Grill - Bar","S",47,100,8556,"StudyProc3","JOL","BlockProc1","Grill - ?",47,"bar","recallproc1","recall"
"RL_JOL A",9,1,3,"BlockProc1","Kidney - Liver","S",48,100,5099,"StudyProc3","JOL","BlockProc1","Kidney - ?",48,"liver","recallproc1","recall"
"RL_JOL A",9,1,3,"BlockProc1","Begin - End","S",49,100,5868,"StudyProc3","JOL","BlockProc1","Begin - ?",49,"end","recallproc1","recall"
"RL_JOL A",9,1,3,"BlockProc1","Blow - Wind","S",50,100,6908,"StudyProc3","JOL","BlockProc1","Blow - ?",50,"wind","recallproc1","recall"
"RL_JOL A",9,1,3,"BlockProc1","Pop - Soda","S",51,100,3656,"StudyProc3","JOL","BlockProc1","Pop - ?",51,"soda","recallproc1","recall"
"RL_JOL A",9,1,3,"BlockProc1","Wine - Cheese","S",52,50,10304,"StudyProc3","JOL","BlockProc1","Wine - ?",52,"cheese","recallproc1","recall"
"RL_JOL A",9,1,3,"BlockProc1","Bathroom - Toilet","S",53,100,6184,"StudyProc3","JOL","BlockProc1","Bathroom - ?",53,"toilet","recallproc1","recall"
"RL_JOL A",9,1,3,"BlockProc1","Lettuce - Salad","S",54,100,4378,"StudyProc3","JOL","BlockProc1","Lettuce - ?",54,"salad","recallproc1","recall"
"RL_JOL A",9,1,3,"BlockProc1","Shoe - Foot","S",55,100,6698,"StudyProc3","JOL","BlockProc1","Shoe - ?",55,"foot","recallproc1","recall"
"RL_JOL A",9,1,3,"BlockProc1","Past - Future","S",56,70,8595,"StudyProc3","JOL","BlockProc1","Past - ?",56,"future","recallproc1","recall"
"RL_JOL A",9,1,3,"BlockProc1","Choice - Decision","S",57,100,5477,"StudyProc3","JOL","BlockProc1","Choice - ?",57,"decision","recallproc1","recall"
"RL_JOL A",9,1,3,"BlockProc1","Honey - Bee","S",58,100,6590,"StudyProc3","JOL","BlockProc1","Honey - ?",58,"bee","recallproc1","recall"
"RL_JOL A",9,1,3,"BlockProc1","Baby - Child","S",59,90,11412,"StudyProc3","JOL","BlockProc1","Baby - ?",59,"child","recallproc1","recall"
"RL_JOL A",9,1,3,"BlockProc1","Circle - Round","S",60,100,5086,"StudyProc3","JOL","BlockProc1","Circle - ?",60,"round","recallproc1","recall"
"RL_JOL A",9,1,3,"BlockProc1","Pusher - Clutter","U",61,0,9481,"StudyProc3","JOL","BlockProc1","Pusher - ?",61,"pull","recallproc1","recall"
"RL_JOL A",9,1,3,"BlockProc1","Dietary - Slacking","U",62,50,7664,"StudyProc3","JOL","BlockProc1","Dietary - ?",62,"lazy","recallproc1","recall"
"RL_JOL A",9,1,3,"BlockProc1","Park - Hungry","U",63,90,8465,"StudyProc3","JOL","BlockProc1","Park - ?",63,"hungry","recallproc1","recall"
"RL_JOL A",9,1,3,"BlockProc1","Lift - Woman","U",64,20,21192,"StudyProc3","JOL","BlockProc1","Lift - ?",64,"woman","recallproc1","recall"
"RL_JOL A",9,1,3,"BlockProc1","Soon - Belt","U",65,0,8313,"StudyProc3","JOL","BlockProc1","Soon - ?",65,"now","recallproc1","recall"
"RL_JOL A",9,1,3,"BlockProc1","Discover - Floor","U",66,0,7421,"StudyProc3","JOL","BlockProc1","Discover - ?",66,"find","recallproc1","recall"
"RL_JOL A",9,1,3,"BlockProc1","Death - Business","U",67,10,16831,"StudyProc3","JOL","BlockProc1","Death - ?",67,"life","recallproc1","recall"
"RL_JOL A",9,1,3,"BlockProc1","Debate - Sight","U",68,10,12301,"StudyProc3","JOL","BlockProc1","Debate - ?",68,"argument","recallproc1","recall"
"RL_JOL A",9,1,3,"BlockProc1","Artery - Bronze","U",69,0,13674,"StudyProc3","JOL","BlockProc1","Artery - ?",69,"vein","recallproc1","recall"
"RL_JOL A",9,1,3,"BlockProc1","Fix - Hand","U",70,70,10627,"StudyProc3","JOL","BlockProc1","Fix - ?",70,"tool","recallproc1","recall"
"RL_JOL A",9,1,3,"BlockProc1","Machine - Position","U",71,60,11422,"StudyProc3","JOL","BlockProc1","Machine - ?",71,"position","recallproc1","recall"
"RL_JOL A",9,1,3,"BlockProc1","Happy - Car","U",72,70,6648,"StudyProc3","JOL","BlockProc1","Happy - ?",72,"excited","recallproc1","recall"
"RL_JOL A",9,1,3,"BlockProc1","Allow - Tuck","U",73,0,12204,"StudyProc3","JOL","BlockProc1","Allow - ?",73,"pass","recallproc1","recall"
"RL_JOL A",9,1,3,"BlockProc1","Art - Lion","U",74,40,7651,"StudyProc3","JOL","BlockProc1","Art - ?",74,"school","recallproc1","recall"
"RL_JOL A",9,1,3,"BlockProc1","Strong - Accident","U",75,0,6670,"StudyProc3","JOL","BlockProc1","Strong - ?",75,"weak","recallproc1","recall"
"RL_JOL A",9,1,3,"BlockProc1","Sugar - Riddle","U",76,15,10859,"StudyProc3","JOL","BlockProc1","Sugar - ?",76,"riddle","recallproc1","recall"
"RL_JOL A",9,1,3,"BlockProc1","Valley - Add","U",77,0,7948,"StudyProc3","JOL","BlockProc1","Valley - ?",77,"river","recallproc1","recall"
"RL_JOL A",9,1,3,"BlockProc1","Cash - Would","U",78,0,12590,"StudyProc3","JOL","BlockProc1","Cash - ?",78,"money","recallproc1","recall"
"RL_JOL A",9,1,3,"BlockProc1","Hide - Sick","U",79,90,7509,"StudyProc3","JOL","BlockProc1","Hide - ?",79,"sick","recallproc1","recall"
"RL_JOL A",9,1,3,"BlockProc1","King - Vase","U",80,0,11032,"StudyProc3","JOL","BlockProc1","King - ?",80,"vase","recallproc1","recall"
"READ_JOL A",13,1,3,"BlockProc1","Delinquent - Bad","F",1,80,5039,"StudyProc7","JOL","BlockProc1","Delinquent - ?",1,"Criminal","recallproc1","recall"
"READ_JOL A",13,1,3,"BlockProc1","Digestion - Stomach","F",2,80,11220,"StudyProc7","JOL","BlockProc1","Digestion - ?",2,"Stomach","recallproc1","recall"
"READ_JOL A",13,1,3,"BlockProc1","Wage - Money","F",3,80,4855,"StudyProc7","JOL","BlockProc1","Wage - ?",3,"Money","recallproc1","recall"
"READ_JOL A",13,1,3,"BlockProc1","Chisel - Hammer","F",4,60,5961,"StudyProc7","JOL","BlockProc1","Chisel - ?",4,"Hammer","recallproc1","recall"
"READ_JOL A",13,1,3,"BlockProc1","Editor - News","F",5,80,5300,"StudyProc7","JOL","BlockProc1","Editor - ?",5,"Paper","recallproc1","recall"
"READ_JOL A",13,1,3,"BlockProc1","Hornet - Sting","F",6,80,6856,"StudyProc7","JOL","BlockProc1","Hornet - ?",6,"Sting","recallproc1","recall"
"READ_JOL A",13,1,3,"BlockProc1","Bitter - Cold","F",7,80,4591,"StudyProc7","JOL","BlockProc1","Bitter - ?",7,"Taste","recallproc1","recall"
"READ_JOL A",13,1,3,"BlockProc1","Root - Plant","F",8,80,4445,"StudyProc7","JOL","BlockProc1","Root - ?",8,"Plant","recallproc1","recall"
"READ_JOL A",13,1,3,"BlockProc1","Swan - Bird","F",9,80,12439,"StudyProc7","JOL","BlockProc1","Swan - ?",9,"Bird","recallproc1","recall"
"READ_JOL A",13,1,3,"BlockProc1","Paw - Dog","F",10,80,3646,"StudyProc7","JOL","BlockProc1","Paw - ?",10,"Dog","recallproc1","recall"
"READ_JOL A",13,1,3,"BlockProc1","Way - Out","F",11,70,3812,"StudyProc7","JOL","BlockProc1","Way - ?",11,"Out","recallproc1","recall"
"READ_JOL A",13,1,3,"BlockProc1","Hygiene - Clean","F",12,90,3454,"StudyProc7","JOL","BlockProc1","Hygiene - ?",12,"Clean","recallproc1","recall"
"READ_JOL A",13,1,3,"BlockProc1","Bridge - Water","F",13,80,13554,"StudyProc7","JOL","BlockProc1","Bridge - ?",13,"Water","recallproc1","recall"
"READ_JOL A",13,1,3,"BlockProc1","Geology - Rock","F",14,80,4440,"StudyProc7","JOL","BlockProc1","Geology - ?",14,"Rocks","recallproc1","recall"
"READ_JOL A",13,1,3,"BlockProc1","Revolution - War","F",15,80,4464,"StudyProc7","JOL","BlockProc1","Revolution - ?",15,"War","recallproc1","recall"
"READ_JOL A",13,1,3,"BlockProc1","Discussion - Talk","F",16,70,5487,"StudyProc7","JOL","BlockProc1","Discussion - ?",16,"Conversation","recallproc1","recall"
"READ_JOL A",13,1,3,"BlockProc1","Herd - Cow","F",17,70,7634,"StudyProc7","JOL","BlockProc1","Herd - ?",17,"Cow","recallproc1","recall"
"READ_JOL A",13,1,3,"BlockProc1","Credit - Card","F",18,90,2987,"StudyProc7","JOL","BlockProc1","Credit - ?",18,"Card","recallproc1","recall"
"READ_JOL A",13,1,3,"BlockProc1","Orchid - Flower","F",19,80,4747,"StudyProc7","JOL","BlockProc1","Orchid - ?",19,"Flower","recallproc1","recall"
"READ_JOL A",13,1,3,"BlockProc1","Tuna - Fish","F",20,90,3353,"StudyProc7","JOL","BlockProc1","Tuna - ?",20,"Fish","recallproc1","recall"
"READ_JOL A",13,1,3,"BlockProc1","Full - Enough","B",21,70,3088,"StudyProc7","JOL","BlockProc1","Full - ?",21,"Enough","recallproc1","recall"
"READ_JOL A",13,1,3,"BlockProc1","Drink - Sip","B",22,80,3143,"StudyProc7","JOL","BlockProc1","Drink - ?",22,"Sp","recallproc1","recall"
"READ_JOL A",13,1,3,"BlockProc1","Dark - Cave","B",23,80,3478,"StudyProc7","JOL","BlockProc1","Dark - ?",23,"Room","recallproc1","recall"
"READ_JOL A",13,1,3,"BlockProc1","Take - Seize","B",24,70,5673,"StudyProc7","JOL","BlockProc1","Take - ?",24,"Grab","recallproc1","recall"
"READ_JOL A",13,1,3,"BlockProc1","Height - Growth","B",25,80,3922,"StudyProc7","JOL","BlockProc1","Height - ?",25,"Growth","recallproc1","recall"
"READ_JOL A",13,1,3,"BlockProc1","Sentence - Word","B",26,70,4386,"StudyProc7","JOL","BlockProc1","Sentence - ?",26,"Statement","recallproc1","recall"
"READ_JOL A",13,1,3,"BlockProc1","Bug - Wasp","B",27,70,4858,"StudyProc7","JOL","BlockProc1","Bug - ?",27,"Wasp","recallproc1","recall"
"READ_JOL A",13,1,3,"BlockProc1","Math - Division","B",28,90,3487,"StudyProc7","JOL","BlockProc1","Math - ?",28,"Division","recallproc1","recall"
"READ_JOL A",13,1,3,"BlockProc1","Law - Attorney","B",29,90,4427,"StudyProc7","JOL","BlockProc1","Law - ?",29,"Attorney","recallproc1","recall"
"READ_JOL A",13,1,3,"BlockProc1","Great - Fantastic","B",30,90,3254,"StudyProc7","JOL","BlockProc1","Great - ?",30,"Fantastic","recallproc1","recall"
"READ_JOL A",13,1,3,"BlockProc1","Key - Latch","B",31,60,5193,"StudyProc7","JOL","BlockProc1","Key - ?",31,"Lock","recallproc1","recall"
"READ_JOL A",13,1,3,"BlockProc1","Hot - Chili","B",32,90,3366,"StudyProc7","JOL","BlockProc1","Hot - ?",32,"Chili","recallproc1","recall"
"READ_JOL A",13,1,3,"BlockProc1","Ball - Racket","B",33,60,7128,"StudyProc7","JOL","BlockProc1","Ball - ?",33,"Park","recallproc1","recall"
"READ_JOL A",13,1,3,"BlockProc1","Work - Chore","B",34,70,7069,"StudyProc7","JOL","BlockProc1","Work - ?",34,"Job","recallproc1","recall"
"READ_JOL A",13,1,3,"BlockProc1","Hunger - Famine","B",35,80,7328,"StudyProc7","JOL","BlockProc1","Hunger - ?",35,"Park","recallproc1","recall"
"READ_JOL A",13,1,3,"BlockProc1","Sleep - Drowsy","B",36,90,6104,"StudyProc7","JOL","BlockProc1","Sleep - ?",36,"Wake","recallproc1","recall"
"READ_JOL A",13,1,3,"BlockProc1","Smell - Stench","B",37,80,5436,"StudyProc7","JOL","BlockProc1","Smell - ?",37,"Stench","recallproc1","recall"
"READ_JOL A",13,1,3,"BlockProc1","Clothes - Attire","B",38,90,3936,"StudyProc7","JOL","BlockProc1","Clothes - ?",38,"Attire","recallproc1","recall"
"READ_JOL A",13,1,3,"BlockProc1","Plane - Pilot","B",39,80,6086,"StudyProc7","JOL","BlockProc1","Plane - ?",39,"Pilot","recallproc1","recall"
"READ_JOL A",13,1,3,"BlockProc1","Fire - Blaze","B",40,80,4654,"StudyProc7","JOL","BlockProc1","Fire - ?",40,"Burn","recallproc1","recall"
"READ_JOL A",13,1,3,"BlockProc1","Due - Assignment","S",41,60,16448,"StudyProc3","JOL","BlockProc1","Due - ?",41,"Date","recallproc1","recall"
"READ_JOL A",13,1,3,"BlockProc1","Number - Amount","S",42,70,8306,"StudyProc3","JOL","BlockProc1","Number - ?",42,"Amount","recallproc1","recall"
"READ_JOL A",13,1,3,"BlockProc1","Location - Site","S",43,70,8735,"StudyProc3","JOL","BlockProc1","Location - ?",43,"Place","recallproc1","recall"
"READ_JOL A",13,1,3,"BlockProc1","Dump - Waste","S",44,70,12860,"StudyProc3","JOL","BlockProc1","Dump - ?",44,"Waste","recallproc1","recall"
"READ_JOL A",13,1,3,"BlockProc1","Trial - Jury","S",45,80,4418,"StudyProc3","JOL","BlockProc1","Trial - ?",45,"Error","recallproc1","recall"
"READ_JOL A",13,1,3,"BlockProc1","Architecture - Design","S",46,60,9397,"StudyProc3","JOL","BlockProc1","Architecture - ?",46,"Design","recallproc1","recall"
"READ_JOL A",13,1,3,"BlockProc1","Grill - Bar","S",47,70,4117,"StudyProc3","JOL","BlockProc1","Grill - ?",47,"Bar","recallproc1","recall"
"READ_JOL A",13,1,3,"BlockProc1","Kidney - Liver","S",48,80,3791,"StudyProc3","JOL","BlockProc1","Kidney - ?",48,"Liver","recallproc1","recall"
"READ_JOL A",13,1,3,"BlockProc1","Begin - End","S",49,90,4858,"StudyProc3","JOL","BlockProc1","Begin - ?",49,"End","recallproc1","recall"
"READ_JOL A",13,1,3,"BlockProc1","Blow - Wind","S",50,70,12738,"StudyProc3","JOL","BlockProc1","Blow - ?",50,"Wind","recallproc1","recall"
"READ_JOL A",13,1,3,"BlockProc1","Pop - Soda","S",51,70,6513,"StudyProc3","JOL","BlockProc1","Pop - ?",51,"Corn","recallproc1","recall"
"READ_JOL A",13,1,3,"BlockProc1","Wine - Cheese","S",52,70,9255,"StudyProc3","JOL","BlockProc1","Wine - ?",52,"Cheese","recallproc1","recall"
"READ_JOL A",13,1,3,"BlockProc1","Bathroom - Toilet","S",53,80,7319,"StudyProc3","JOL","BlockProc1","Bathroom - ?",53,"Toilet","recallproc1","recall"
"READ_JOL A",13,1,3,"BlockProc1","Lettuce - Salad","S",54,90,2603,"StudyProc3","JOL","BlockProc1","Lettuce - ?",54,"Salad","recallproc1","recall"
"READ_JOL A",13,1,3,"BlockProc1","Shoe - Foot","S",55,80,10601,"StudyProc3","JOL","BlockProc1","Shoe - ?",55,"Foot","recallproc1","recall"
"READ_JOL A",13,1,3,"BlockProc1","Past - Future","S",56,90,5920,"StudyProc3","JOL","BlockProc1","Past - ?",56,"Future","recallproc1","recall"
"READ_JOL A",13,1,3,"BlockProc1","Choice - Decision","S",57,70,4616,"StudyProc3","JOL","BlockProc1","Choice - ?",57,"Decision","recallproc1","recall"
"READ_JOL A",13,1,3,"BlockProc1","Honey - Bee","S",58,90,6602,"StudyProc3","JOL","BlockProc1","Honey - ?",58,"Bee","recallproc1","recall"
"READ_JOL A",13,1,3,"BlockProc1","Baby - Child","S",59,90,6718,"StudyProc3","JOL","BlockProc1","Baby - ?",59,"Child","recallproc1","recall"
"READ_JOL A",13,1,3,"BlockProc1","Circle - Round","S",60,90,7307,"StudyProc3","JOL","BlockProc1","Circle - ?",60,"Round","recallproc1","recall"
"READ_JOL A",13,1,3,"BlockProc1","Pusher - Clutter","U",61,40,10851,"StudyProc3","JOL","BlockProc1","Pusher - ?",61,"Grabber","recallproc1","recall"
"READ_JOL A",13,1,3,"BlockProc1","Dietary - Slacking","U",62,40,9261,"StudyProc3","JOL","BlockProc1","Dietary - ?",62,"Restrictions","recallproc1","recall"
"READ_JOL A",13,1,3,"BlockProc1","Park - Hungry","U",63,50,9841,"StudyProc3","JOL","BlockProc1","Park - ?",63,"Hungry","recallproc1","recall"
"READ_JOL A",13,1,3,"BlockProc1","Lift - Woman","U",64,40,5988,"StudyProc3","JOL","BlockProc1","Lift - ?",64,"Up","recallproc1","recall"
"READ_JOL A",13,1,3,"BlockProc1","Soon - Belt","U",65,50,14686,"StudyProc3","JOL","BlockProc1","Soon - ?",65,"Later","recallproc1","recall"
"READ_JOL A",13,1,3,"BlockProc1","Discover - Floor","U",66,30,6852,"StudyProc3","JOL","BlockProc1","Discover - ?",66,"Research","recallproc1","recall"
"READ_JOL A",13,1,3,"BlockProc1","Death - Business","U",67,50,13332,"StudyProc3","JOL","BlockProc1","Death - ?",67,"Row","recallproc1","recall"
"READ_JOL A",13,1,3,"BlockProc1","Debate - Sight","U",68,30,9163,"StudyProc3","JOL","BlockProc1","Debate - ?",68,"Argue","recallproc1","recall"
"READ_JOL A",13,1,3,"BlockProc1","Artery - Bronze","U",69,30,9510,"StudyProc3","JOL","BlockProc1","Artery - ?",69,"Vase","recallproc1","recall"
"READ_JOL A",13,1,3,"BlockProc1","Fix - Hand","U",70,50,5668,"StudyProc3","JOL","BlockProc1","Fix - ?",70,"Help","recallproc1","recall"
"READ_JOL A",13,1,3,"BlockProc1","Machine - Position","U",71,50,8896,"StudyProc3","JOL","BlockProc1","Machine - ?",71,"Work","recallproc1","recall"
"READ_JOL A",13,1,3,"BlockProc1","Happy - Car","U",72,50,13324,"StudyProc3","JOL","BlockProc1","Happy - ?",72,"Joyful","recallproc1","recall"
"READ_JOL A",13,1,3,"BlockProc1","Allow - Tuck","U",73,40,11763,"StudyProc3","JOL","BlockProc1","Allow - ?",73,"Enable","recallproc1","recall"
"READ_JOL A",13,1,3,"BlockProc1","Art - Lion","U",74,40,9323,"StudyProc3","JOL","BlockProc1","Art - ?",74,"Lion","recallproc1","recall"
"READ_JOL A",13,1,3,"BlockProc1","Strong - Accident","U",75,50,12220,"StudyProc3","JOL","BlockProc1","Strong - ?",75,"Fit","recallproc1","recall"
"READ_JOL A",13,1,3,"BlockProc1","Sugar - Riddle","U",76,30,9114,"StudyProc3","JOL","BlockProc1","Sugar - ?",76,"Sweet","recallproc1","recall"
"READ_JOL A",13,1,3,"BlockProc1","Valley - Add","U",77,50,9837,"StudyProc3","JOL","BlockProc1","Valley - ?",77,"Hill","recallproc1","recall"
"READ_JOL A",13,1,3,"BlockProc1","Cash - Would","U",78,40,9015,"StudyProc3","JOL","BlockProc1","Cash - ?",78,"Wage","recallproc1","recall"
"READ_JOL A",13,1,3,"BlockProc1","Hide - Sick","U",79,50,7113,"StudyProc3","JOL","BlockProc1","Hide - ?",79,"Seek","recallproc1","recall"
"READ_JOL A",13,1,3,"BlockProc1","King - Vase","U",80,40,7925,"StudyProc3","JOL","BlockProc1","King - ?",80,"Vase","recallproc1","recall"
"IS_JOL A",17,1,3,"BlockProc1","Delinquent - Bad","F",1,60,17669,"StudyProc7","JOL","BlockProc1","Delinquent - ?",1,"behind","recallproc1","recall"
"IS_JOL A",17,1,3,"BlockProc1","Digestion - Stomach","F",2,50,26082,"StudyProc7","JOL","BlockProc1","Digestion - ?",2,"stomach","recallproc1","recall"
"IS_JOL A",17,1,3,"BlockProc1","Wage - Money","F",3,90,14024,"StudyProc7","JOL","BlockProc1","Wage - ?",3,"money","recallproc1","recall"
"IS_JOL A",17,1,3,"BlockProc1","Chisel - Hammer","F",4,100,21123,"StudyProc7","JOL","BlockProc1","Chisel - ?",4,"hammer","recallproc1","recall"
"IS_JOL A",17,1,3,"BlockProc1","Editor - News","F",5,100,19676,"StudyProc7","JOL","BlockProc1","Editor - ?",5,"news","recallproc1","recall"
"IS_JOL A",17,1,3,"BlockProc1","Hornet - Sting","F",6,70,18835,"StudyProc7","JOL","BlockProc1","Hornet - ?",6,"sting","recallproc1","recall"
"IS_JOL A",17,1,3,"BlockProc1","Bitter - Cold","F",7,70,19490,"StudyProc7","JOL","BlockProc1","Bitter - ?",7,"hard","recallproc1","recall"
"IS_JOL A",17,1,3,"BlockProc1","Root - Plant","F",8,40,25990,"StudyProc7","JOL","BlockProc1","Root - ?",8,"plant","recallproc1","recall"
"IS_JOL A",17,1,3,"BlockProc1","Swan - Bird","F",9,100,8365,"StudyProc7","JOL","BlockProc1","Swan - ?",9,"bird","recallproc1","recall"
"IS_JOL A",17,1,3,"BlockProc1","Paw - Dog","F",10,100,8951,"StudyProc7","JOL","BlockProc1","Paw - ?",10,"dog","recallproc1","recall"
"IS_JOL A",17,1,3,"BlockProc1","Way - Out","F",11,100,14645,"StudyProc7","JOL","BlockProc1","Way - ?",11,"location","recallproc1","recall"
"IS_JOL A",17,1,3,"BlockProc1","Hygiene - Clean","F",12,70,19708,"StudyProc7","JOL","BlockProc1","Hygiene - ?",12,"clean","recallproc1","recall"
"IS_JOL A",17,1,3,"BlockProc1","Bridge - Water","F",13,90,11665,"StudyProc7","JOL","BlockProc1","Bridge - ?",13,"water","recallproc1","recall"
"IS_JOL A",17,1,3,"BlockProc1","Geology - Rock","F",14,80,17540,"StudyProc7","JOL","BlockProc1","Geology - ?",14,"rock","recallproc1","recall"
"IS_JOL A",17,1,3,"BlockProc1","Revolution - War","F",15,100,8050,"StudyProc7","JOL","BlockProc1","Revolution - ?",15,"war","recallproc1","recall"
"IS_JOL A",17,1,3,"BlockProc1","Discussion - Talk","F",16,90,17143,"StudyProc7","JOL","BlockProc1","Discussion - ?",16,"talk","recallproc1","recall"
"IS_JOL A",17,1,3,"BlockProc1","Herd - Cow","F",17,100,8926,"StudyProc7","JOL","BlockProc1","Herd - ?",17,"cow","recallproc1","recall"
"IS_JOL A",17,1,3,"BlockProc1","Credit - Card","F",18,80,26497,"StudyProc7","JOL","BlockProc1","Credit - ?",18,"card","recallproc1","recall"
"IS_JOL A",17,1,3,"BlockProc1","Orchid - Flower","F",19,80,17953,"StudyProc7","JOL","BlockProc1","Orchid - ?",19,"flower","recallproc1","recall"
"IS_JOL A",17,1,3,"BlockProc1","Tuna - Fish","F",20,100,11330,"StudyProc7","JOL","BlockProc1","Tuna - ?",20,"fish","recallproc1","recall"
"IS_JOL A",17,1,3,"BlockProc1","Full - Enough","B",21,100,11494,"StudyProc7","JOL","BlockProc1","Full - ?",21,"enough","recallproc1","recall"
"IS_JOL A",17,1,3,"BlockProc1","Drink - Sip","B",22,90,15520,"StudyProc7","JOL","BlockProc1","Drink - ?",22,"sip","recallproc1","recall"
"IS_JOL A",17,1,3,"BlockProc1","Dark - Cave","B",23,100,13925,"StudyProc7","JOL","BlockProc1","Dark - ?",23,"cave","recallproc1","recall"
"IS_JOL A",17,1,3,"BlockProc1","Take - Seize","B",24,70,20777,"StudyProc7","JOL","BlockProc1","Take - ?",24,"grab","recallproc1","recall"
"IS_JOL A",17,1,3,"BlockProc1","Height - Growth","B",25,80,13615,"StudyProc7","JOL","BlockProc1","Height - ?",25,"growth","recallproc1","recall"
"IS_JOL A",17,1,3,"BlockProc1","Sentence - Word","B",26,100,8051,"StudyProc7","JOL","BlockProc1","Sentence - ?",26,"word","recallproc1","recall"
"IS_JOL A",17,1,3,"BlockProc1","Bug - Wasp","B",27,100,9192,"StudyProc7","JOL","BlockProc1","Bug - ?",27,"ant","recallproc1","recall"
"IS_JOL A",17,1,3,"BlockProc1","Math - Division","B",28,90,10313,"StudyProc7","JOL","BlockProc1","Math - ?",28,"algebra","recallproc1","recall"
"IS_JOL A",17,1,3,"BlockProc1","Law - Attorney","B",29,100,23223,"StudyProc7","JOL","BlockProc1","Law - ?",29,"attorney","recallproc1","recall"
"IS_JOL A",17,1,3,"BlockProc1","Great - Fantastic","B",30,100,11176,"StudyProc7","JOL","BlockProc1","Great - ?",30,"fantastic","recallproc1","recall"
"IS_JOL A",17,1,3,"BlockProc1","Key - Latch","B",31,70,10359,"StudyProc7","JOL","BlockProc1","Key - ?",31,"latch","recallproc1","recall"
"IS_JOL A",17,1,3,"BlockProc1","Hot - Chili","B",32,90,15122,"StudyProc7","JOL","BlockProc1","Hot - ?",32,"chili","recallproc1","recall"
"IS_JOL A",17,1,3,"BlockProc1","Ball - Racket","B",33,90,14041,"StudyProc7","JOL","BlockProc1","Ball - ?",33,"round","recallproc1","recall"
"IS_JOL A",17,1,3,"BlockProc1","Work - Chore","B",34,100,6001,"StudyProc7","JOL","BlockProc1","Work - ?",34,"chore","recallproc1","recall"
"IS_JOL A",17,1,3,"BlockProc1","Hunger - Famine","B",35,100,9928,"StudyProc7","JOL","BlockProc1","Hunger - ?",35,"famine","recallproc1","recall"
"IS_JOL A",17,1,3,"BlockProc1","Sleep - Drowsy","B",36,100,18805,"StudyProc7","JOL","BlockProc1","Sleep - ?",36,"drowsy","recallproc1","recall"
"IS_JOL A",17,1,3,"BlockProc1","Smell - Stench","B",37,90,10957,"StudyProc7","JOL","BlockProc1","Smell - ?",37,"stench","recallproc1","recall"
"IS_JOL A",17,1,3,"BlockProc1","Clothes - Attire","B",38,70,12400,"StudyProc7","JOL","BlockProc1","Clothes - ?",38,"attire","recallproc1","recall"
"IS_JOL A",17,1,3,"BlockProc1","Plane - Pilot","B",39,100,17888,"StudyProc7","JOL","BlockProc1","Plane - ?",39,"piolet","recallproc1","recall"
"IS_JOL A",17,1,3,"BlockProc1","Fire - Blaze","B",40,90,12137,"StudyProc7","JOL","BlockProc1","Fire - ?",40,"blaze","recallproc1","recall"
"IS_JOL A",17,1,3,"BlockProc1","Due - Assignment","S",41,100,10966,"StudyProc3","JOL","BlockProc1","Due - ?",41,"deliquent","recallproc1","recall"
"IS_JOL A",17,1,3,"BlockProc1","Number - Amount","S",42,90,13085,"StudyProc3","JOL","BlockProc1","Number - ?",42,"letter","recallproc1","recall"
"IS_JOL A",17,1,3,"BlockProc1","Location - Site","S",43,80,17140,"StudyProc3","JOL","BlockProc1","Location - ?",43,"site","recallproc1","recall"
"IS_JOL A",17,1,3,"BlockProc1","Dump - Waste","S",44,80,20069,"StudyProc3","JOL","BlockProc1","Dump - ?",44,"waste","recallproc1","recall"
"IS_JOL A",17,1,3,"BlockProc1","Trial - Jury","S",45,100,12436,"StudyProc3","JOL","BlockProc1","Trial - ?",45,"jury","recallproc1","recall"
"IS_JOL A",17,1,3,"BlockProc1","Architecture - Design","S",46,70,26790,"StudyProc3","JOL","BlockProc1","Architecture - ?",46,"design","recallproc1","recall"
"IS_JOL A",17,1,3,"BlockProc1","Grill - Bar","S",47,100,12770,"StudyProc3","JOL","BlockProc1","Grill - ?",47,"bar","recallproc1","recall"
"IS_JOL A",17,1,3,"BlockProc1","Kidney - Liver","S",48,100,17595,"StudyProc3","JOL","BlockProc1","Kidney - ?",48,"liver","recallproc1","recall"
"IS_JOL A",17,1,3,"BlockProc1","Begin - End","S",49,100,7052,"StudyProc3","JOL","BlockProc1","Begin - ?",49,"end","recallproc1","recall"
"IS_JOL A",17,1,3,"BlockProc1","Blow - Wind","S",50,100,8946,"StudyProc3","JOL","BlockProc1","Blow - ?",50,"wind","recallproc1","recall"
"IS_JOL A",17,1,3,"BlockProc1","Pop - Soda","S",51,100,10909,"StudyProc3","JOL","BlockProc1","Pop - ?",51,"soda","recallproc1","recall"
"IS_JOL A",17,1,3,"BlockProc1","Wine - Cheese","S",52,80,13988,"StudyProc3","JOL","BlockProc1","Wine - ?",52,"sip","recallproc1","recall"
"IS_JOL A",17,1,3,"BlockProc1","Bathroom - Toilet","S",53,80,13886,"StudyProc3","JOL","BlockProc1","Bathroom - ?",53,"toilet","recallproc1","recall"
"IS_JOL A",17,1,3,"BlockProc1","Lettuce - Salad","S",54,80,12239,"StudyProc3","JOL","BlockProc1","Lettuce - ?",54,"salad","recallproc1","recall"
"IS_JOL A",17,1,3,"BlockProc1","Shoe - Foot","S",55,100,10744,"StudyProc3","JOL","BlockProc1","Shoe - ?",55,"foot","recallproc1","recall"
"IS_JOL A",17,1,3,"BlockProc1","Past - Future","S",56,100,5980,"StudyProc3","JOL","BlockProc1","Past - ?",56,"future","recallproc1","recall"
"IS_JOL A",17,1,3,"BlockProc1","Choice - Decision","S",57,40,25622,"StudyProc3","JOL","BlockProc1","Choice - ?",57,"decion","recallproc1","recall"
"IS_JOL A",17,1,3,"BlockProc1","Honey - Bee","S",58,90,23547,"StudyProc3","JOL","BlockProc1","Honey - ?",58,"bee","recallproc1","recall"
"IS_JOL A",17,1,3,"BlockProc1","Baby - Child","S",59,80,15148,"StudyProc3","JOL","BlockProc1","Baby - ?",59,"child","recallproc1","recall"
"IS_JOL A",17,1,3,"BlockProc1","Circle - Round","S",60,100,7864,"StudyProc3","JOL","BlockProc1","Circle - ?",60,"round","recallproc1","recall"
"IS_JOL A",17,1,3,"BlockProc1","Pusher - Clutter","U",61,20,8875,"StudyProc3","JOL","BlockProc1","Pusher - ?",61,"drink","recallproc1","recall"
"IS_JOL A",17,1,3,"BlockProc1","Dietary - Sacking","U",62,10,10295,"StudyProc3","JOL","BlockProc1","Dietary - ?",62,"hunger","recallproc1","recall"
"IS_JOL A",17,1,3,"BlockProc1","Park - Hungry","U",63,70,10217,"StudyProc3","JOL","BlockProc1","Park - ?",63,"hunger","recallproc1","recall"
"IS_JOL A",17,1,3,"BlockProc1","Lift - Woman","U",64,20,7263,"StudyProc3","JOL","BlockProc1","Lift - ?",64,"raise","recallproc1","recall"
"IS_JOL A",17,1,3,"BlockProc1","Soon - Belt","U",65,10,9325,"StudyProc3","JOL","BlockProc1","Soon - ?",65,"end","recallproc1","recall"
"IS_JOL A",17,1,3,"BlockProc1","Discover - Floor","U",66,10,11447,"StudyProc3","JOL","BlockProc1","Discover - ?",66,"acknowledge","recallproc1","recall"
"IS_JOL A",17,1,3,"BlockProc1","Death - Business","U",67,30,21004,"StudyProc3","JOL","BlockProc1","Death - ?",67,"attorney","recallproc1","recall"
"IS_JOL A",17,1,3,"BlockProc1","Debate - Sight","U",68,10,12456,"StudyProc3","JOL","BlockProc1","Debate - ?",68,"talk","recallproc1","recall"
"IS_JOL A",17,1,3,"BlockProc1","Artery - Bronze","U",69,10,14359,"StudyProc3","JOL","BlockProc1","Artery - ?",69,"would","recallproc1","recall"
"IS_JOL A",17,1,3,"BlockProc1","Fix - Hand","U",70,80,12022,"StudyProc3","JOL","BlockProc1","Fix - ?",70,"destroy","recallproc1","recall"
"IS_JOL A",17,1,3,"BlockProc1","Machine - Position","U",71,50,27010,"StudyProc3","JOL","BlockProc1","Machine - ?",71,"position","recallproc1","recall"
"IS_JOL A",17,1,3,"BlockProc1","Happy - Car","U",72,10,17420,"StudyProc3","JOL","BlockProc1","Happy - ?",72,"day","recallproc1","recall"
"IS_JOL A",17,1,3,"BlockProc1","Allow - Tuck","U",73,20,6273,"StudyProc3","JOL","BlockProc1","Allow - ?",73,"permission","recallproc1","recall"
"IS_JOL A",17,1,3,"BlockProc1","Art - Lion","U",74,20,12464,"StudyProc3","JOL","BlockProc1","Art - ?",74,"painting","recallproc1","recall"
"IS_JOL A",17,1,3,"BlockProc1","Strong - Accident","U",75,10,11502,"StudyProc3","JOL","BlockProc1","Strong - ?",75,"weak","recallproc1","recall"
"IS_JOL A",17,1,3,"BlockProc1","Sugar - Riddle","U",76,10,17012,"StudyProc3","JOL","BlockProc1","Sugar - ?",76,"sweet","recallproc1","recall"
"IS_JOL A",17,1,3,"BlockProc1","Valley - Add","U",77,20,8087,"StudyProc3","JOL","BlockProc1","Valley - ?",77,"mountain","recallproc1","recall"
"IS_JOL A",17,1,3,"BlockProc1","Cash - Would","U",78,10,17865,"StudyProc3","JOL","BlockProc1","Cash - ?",78,"wage","recallproc1","recall"
"IS_JOL A",17,1,3,"BlockProc1","Hide - Sick","U",79,80,18753,"StudyProc3","JOL","BlockProc1","Hide - ?",79,"conceal","recallproc1","recall"
"IS_JOL A",17,1,3,"BlockProc1","King - Vase","U",80,10,6745,"StudyProc3","JOL","BlockProc1","King - ?",80,"ruler","recallproc1","recall"
"IS_JOL A",5,2,3,"BlockProc2","Extension - Long","F",1,100,1873,"StudyProc5","JOL","BlockProc2","Extension - ?",1,"arm","recallproc2","recall"
"IS_JOL A",5,2,3,"BlockProc2","Clue - Game","F",2,100,2267,"StudyProc5","JOL","BlockProc2","Clue - ?",2,"ga","recallproc2","recall"
"IS_JOL A",5,2,3,"BlockProc2","Cactus - Plant","F",3,90,1865,"StudyProc5","JOL","BlockProc2","Cactus - ?",3,"plant","recallproc2","recall"
"IS_JOL A",5,2,3,"BlockProc2","Shoelace - Tie","F",4,90,4608,"StudyProc5","JOL","BlockProc2","Shoelace - ?",4,"shoe","recallproc2","recall"
"IS_JOL A",5,2,3,"BlockProc2","Detective - Mystery","F",5,100,1964,"StudyProc5","JOL","BlockProc2","Detective - ?",5,"crime","recallproc2","recall"
"IS_JOL A",5,2,3,"BlockProc2","Adjourn - End","F",6,90,2996,"StudyProc5","JOL","BlockProc2","Adjourn - ?",6,"end","recallproc2","recall"
"IS_JOL A",5,2,3,"BlockProc2","Furry - Dog","F",7,100,2291,"StudyProc5","JOL","BlockProc2","Furry - ?",7,"dog","recallproc2","recall"
"IS_JOL A",5,2,3,"BlockProc2","Litter - Trash","F",8,100,1564,"StudyProc5","JOL","BlockProc2","Litter - ?",8,"trash","recallproc2","recall"
"IS_JOL A",5,2,3,"BlockProc2","Cherry - Red","F",9,100,3784,"StudyProc5","JOL","BlockProc2","Cherry - ?",9,"red","recallproc2","recall"
"IS_JOL A",5,2,3,"BlockProc2","Scalp - Head","F",10,100,1973,"StudyProc5","JOL","BlockProc2","Scalp - ?",10,"head","recallproc2","recall"
"IS_JOL A",5,2,3,"BlockProc2","Driver - Car","F",11,100,1346,"StudyProc5","JOL","BlockProc2","Driver - ?",11,"","recallproc2","recall"
"IS_JOL A",5,2,3,"BlockProc2","Chop - Cut","F",12,100,4194,"StudyProc5","JOL","BlockProc2","Chop - ?",12,"","recallproc2","recall"
"IS_JOL A",5,2,3,"BlockProc2","Mule - Donkey","F",13,100,1795,"StudyProc5","JOL","BlockProc2","Mule - ?",13,"donkey","recallproc2","recall"
"IS_JOL A",5,2,3,"BlockProc2","Document - Paper","F",14,100,1637,"StudyProc5","JOL","BlockProc2","Document - ?",14,"paper","recallproc2","recall"
"IS_JOL A",5,2,3,"BlockProc2","Incense - Smell","F",15,60,2900,"StudyProc5","JOL","BlockProc2","Incense - ?",15,"smell","recallproc2","recall"
"IS_JOL A",5,2,3,"BlockProc2","Dine - Eat","F",16,100,2116,"StudyProc5","JOL","BlockProc2","Dine - ?",16,"dinner","recallproc2","recall"
"IS_JOL A",5,2,3,"BlockProc2","Shears - Scissors","F",17,40,3165,"StudyProc5","JOL","BlockProc2","Shears - ?",17,"scissors","recallproc2","recall"
"IS_JOL A",5,2,3,"BlockProc2","Feud - Fight","F",18,90,2002,"StudyProc5","JOL","BlockProc2","Feud - ?",18,"argument","recallproc2","recall"
"IS_JOL A",5,2,3,"BlockProc2","Chill - Cold","F",19,100,1597,"StudyProc5","JOL","BlockProc2","Chill - ?",19,"cold","recallproc2","recall"
"IS_JOL A",5,2,3,"BlockProc2","Affection - Love","F",20,100,2145,"StudyProc5","JOL","BlockProc2","Affection - ?",20,"love","recallproc2","recall"
"IS_JOL A",5,2,3,"BlockProc2","Turn - Flip","B",21,80,2922,"StudyProc5","JOL","BlockProc2","Turn - ?",21,"away","recallproc2","recall"
"IS_JOL A",5,2,3,"BlockProc2","Car - Windshield","B",22,90,2357,"StudyProc5","JOL","BlockProc2","Car - ?",22,"accident","recallproc2","recall"
"IS_JOL A",5,2,3,"BlockProc2","Bad - Villain","B",23,80,3492,"StudyProc5","JOL","BlockProc2","Bad - ?",23,"","recallproc2","recall"
"IS_JOL A",5,2,3,"BlockProc2","Bird - Penguin","B",24,100,1745,"StudyProc5","JOL","BlockProc2","Bird - ?",24,"penguin","recallproc2","recall"
"IS_JOL A",5,2,3,"BlockProc2","Star - Actress","B",25,100,1849,"StudyProc5","JOL","BlockProc2","Star - ?",25,"celebrity","recallproc2","recall"
"IS_JOL A",5,2,3,"BlockProc2","Thread - Thimble","B",26,90,2058,"StudyProc5","JOL","BlockProc2","Thread - ?",26,"thimble","recallproc2","recall"
"IS_JOL A",5,2,3,"BlockProc2","Even - Revenge","B",27,90,2179,"StudyProc5","JOL","BlockProc2","Even - ?",27,"revenge","recallproc2","recall"
"IS_JOL A",5,2,3,"BlockProc2","Pop - Balloon","B",28,100,1944,"StudyProc5","JOL","BlockProc2","Pop - ?",28,"","recallproc2","recall"
"IS_JOL A",5,2,3,"BlockProc2","Fruit - Strawberry","B",29,100,1549,"StudyProc5","JOL","BlockProc2","Fruit - ?",29,"strawberyy","recallproc2","recall"
"IS_JOL A",5,2,3,"BlockProc2","Best - Favorite","B",30,90,2383,"StudyProc5","JOL","BlockProc2","Best - ?",30,"favorite","recallproc2","recall"
"IS_JOL A",5,2,3,"BlockProc2","Cat - Panther","B",31,50,3443,"StudyProc5","JOL","BlockProc2","Cat - ?",31,"","recallproc2","recall"
"IS_JOL A",5,2,3,"BlockProc2","Glass - Breakable","B",32,90,3242,"StudyProc5","JOL","BlockProc2","Glass - ?",32,"","recallproc2","recall"
"IS_JOL A",5,2,3,"BlockProc2","Dead - Coffin","B",33,100,1457,"StudyProc5","JOL","BlockProc2","Dead - ?",33,"coffin","recallproc2","recall"
"IS_JOL A",5,2,3,"BlockProc2","Plane - Aircraft","B",34,100,2564,"StudyProc5","JOL","BlockProc2","Plane - ?",34,"aircrat","recallproc2","recall"
"IS_JOL A",5,2,3,"BlockProc2","Fish - Sardine","B",35,100,1817,"StudyProc5","JOL","BlockProc2","Fish - ?",35,"sardine","recallproc2","recall"
"IS_JOL A",5,2,3,"BlockProc2","Baseball - League","B",36,100,2020,"StudyProc5","JOL","BlockProc2","Baseball - ?",36,"league","recallproc2","recall"
"IS_JOL A",5,2,3,"BlockProc2","Money - Banker","B",37,100,1571,"StudyProc5","JOL","BlockProc2","Money - ?",37,"wage","recallproc2","recall"
"IS_JOL A",5,2,3,"BlockProc2","Honest - Truthful","B",38,100,5285,"StudyProc5","JOL","BlockProc2","Honest - ?",38,"truth","recallproc2","recall"
"IS_JOL A",5,2,3,"BlockProc2","Sleep - Nap","B",39,100,1554,"StudyProc5","JOL","BlockProc2","Sleep - ?",39,"nap","recallproc2","recall"
"IS_JOL A",5,2,3,"BlockProc2","Fight - Brawl","B",40,100,2159,"StudyProc5","JOL","BlockProc2","Fight - ?",40,"brawl","recallproc2","recall"
"IS_JOL A",5,2,3,"BlockProc2","Razor - Shave","S",41,100,1629,"StudyProc8","JOL","BlockProc2","Razor - ?",41,"blade","recallproc2","recall"
"IS_JOL A",5,2,3,"BlockProc2","Rights - Equal","S",42,0,956,"StudyProc8","JOL","BlockProc2","Rights - ?",42,"equal","recallproc2","recall"
"IS_JOL A",5,2,3,"BlockProc2","Mason - Jar","S",43,100,3003,"StudyProc8","JOL","BlockProc2","Mason - ?",43,"jar","recallproc2","recall"
"IS_JOL A",5,2,3,"BlockProc2","Candle - Wax","S",44,100,1510,"StudyProc8","JOL","BlockProc2","Candle - ?",44,"wax","recallproc2","recall"
"IS_JOL A",5,2,3,"BlockProc2","Wrist - Bracelet","S",45,100,2220,"StudyProc8","JOL","BlockProc2","Wrist - ?",45,"bracelet","recallproc2","recall"
"IS_JOL A",5,2,3,"BlockProc2","Element - Carbon","S",46,20,3242,"StudyProc8","JOL","BlockProc2","Element - ?",46,"carbon","recallproc2","recall"
"IS_JOL A",5,2,3,"BlockProc2","Gone - Away","S",47,100,1859,"StudyProc8","JOL","BlockProc2","Gone - ?",47,"away","recallproc2","recall"
"IS_JOL A",5,2,3,"BlockProc2","Water - Drink","S",48,100,2007,"StudyProc8","JOL","BlockProc2","Water - ?",48,"fall","recallproc2","recall"
"IS_JOL A",5,2,3,"BlockProc2","Earth - Ground","S",49,80,4726,"StudyProc8","JOL","BlockProc2","Earth - ?",49,"ground","recallproc2","recall"
"IS_JOL A",5,2,3,"BlockProc2","Alone - Lonely","S",50,100,1687,"StudyProc8","JOL","BlockProc2","Alone - ?",50,"solo","recallproc2","recall"
"IS_JOL A",5,2,3,"BlockProc2","Dry - Wet","S",51,0,2324,"StudyProc8","JOL","BlockProc2","Dry - ?",51,"wet","recallproc2","recall"
"IS_JOL A",5,2,3,"BlockProc2","Safety - Seatbelt","S",52,100,2405,"StudyProc8","JOL","BlockProc2","Safety - ?",52,"","recallproc2","recall"
"IS_JOL A",5,2,3,"BlockProc2","Truth - Lie","S",53,100,1448,"StudyProc8","JOL","BlockProc2","Truth - ?",53,"honesy","recallproc2","recall"
"IS_JOL A",5,2,3,"BlockProc2","Phone - Communicatio","S",54,10,1617,"StudyProc8","JOL","BlockProc2","Phone - ?",54,"cell","recallproc2","recall"
"IS_JOL A",5,2,3,"BlockProc2","Rod - Reel","S",55,100,1881,"StudyProc8","JOL","BlockProc2","Rod - ?",55,"reel","recallproc2","recall"
"IS_JOL A",5,2,3,"BlockProc2","Flea - Tick","S",56,100,2148,"StudyProc8","JOL","BlockProc2","Flea - ?",56,"tick","recallproc2","recall"
"IS_JOL A",5,2,3,"BlockProc2","Loud - Noise","S",57,100,3305,"StudyProc8","JOL","BlockProc2","Loud - ?",57,"nosie","recallproc2","recall"
"IS_JOL A",5,2,3,"BlockProc2","Own - Have","S",58,80,3268,"StudyProc8","JOL","BlockProc2","Own - ?",58,"","recallproc2","recall"
"IS_JOL A",5,2,3,"BlockProc2","Tantrum - Temper","S",59,10,2351,"StudyProc8","JOL","BlockProc2","Tantrum - ?",59,"temper","recallproc2","recall"
"IS_JOL A",5,2,3,"BlockProc2","Sun - Tan","S",60,100,1538,"StudyProc8","JOL","BlockProc2","Sun - ?",60,"screenh","recallproc2","recall"
"IS_JOL A",5,2,3,"BlockProc2","Justice - Maroon","U",61,0,1396,"StudyProc8","JOL","BlockProc2","Justice - ?",61,"peace","recallproc2","recall"
"IS_JOL A",5,2,3,"BlockProc2","Stretch - Cloth","U",62,0,4590,"StudyProc8","JOL","BlockProc2","Stretch - ?",62,"","recallproc2","recall"
"IS_JOL A",5,2,3,"BlockProc2","Give - Steak","U",63,0,1660,"StudyProc8","JOL","BlockProc2","Give - ?",63,"away","recallproc2","recall"
"IS_JOL A",5,2,3,"BlockProc2","Maze - Election","U",64,0,1676,"StudyProc8","JOL","BlockProc2","Maze - ?",64,"runner","recallproc2","recall"
"IS_JOL A",5,2,3,"BlockProc2","Vehicle - Charm","U",65,0,1090,"StudyProc8","JOL","BlockProc2","Vehicle - ?",65,"car","recallproc2","recall"
"IS_JOL A",5,2,3,"BlockProc2","Meat - Obtain","U",66,0,1266,"StudyProc8","JOL","BlockProc2","Meat - ?",66,"","recallproc2","recall"
"IS_JOL A",5,2,3,"BlockProc2","Crackle - Able","U",67,0,2274,"StudyProc8","JOL","BlockProc2","Crackle - ?",67,"","recallproc2","recall"
"IS_JOL A",5,2,3,"BlockProc2","Shell - Shake","U",68,0,1375,"StudyProc8","JOL","BlockProc2","Shell - ?",68,"crab","recallproc2","recall"
"IS_JOL A",5,2,3,"BlockProc2","Listen - Fiction","U",69,0,5757,"StudyProc8","JOL","BlockProc2","Listen - ?",69,"","recallproc2","recall"
"IS_JOL A",5,2,3,"BlockProc2","Keys - Joke","U",70,0,2099,"StudyProc8","JOL","BlockProc2","Keys - ?",70,"lock","recallproc2","recall"
"IS_JOL A",5,2,3,"BlockProc2","Cake - Clothes","U",71,0,1608,"StudyProc8","JOL","BlockProc2","Cake - ?",71,"pop","recallproc2","recall"
"IS_JOL A",5,2,3,"BlockProc2","Name - Hate","U",72,0,1640,"StudyProc8","JOL","BlockProc2","Name - ?",72,"","recallproc2","recall"
"IS_JOL A",5,2,3,"BlockProc2","Fuzzy - Bang","U",73,0,1652,"StudyProc8","JOL","BlockProc2","Fuzzy - ?",73,"dog","recallproc2","recall"
"IS_JOL A",5,2,3,"BlockProc2","Moat - Clear","U",74,0,2005,"StudyProc8","JOL","BlockProc2","Moat - ?",74,"","recallproc2","recall"
"IS_JOL A",5,2,3,"BlockProc2","Lease - Toil","U",75,0,1167,"StudyProc8","JOL","BlockProc2","Lease - ?",75,"contract","recallproc2","recall"
"IS_JOL A",5,2,3,"BlockProc2","Loan - Sign","U",76,0,1039,"StudyProc8","JOL","BlockProc2","Loan - ?",76,"money","recallproc2","recall"
"IS_JOL A",5,2,3,"BlockProc2","Both - Ounce","U",77,0,1251,"StudyProc8","JOL","BlockProc2","Both - ?",77,"ways","recallproc2","recall"
"IS_JOL A",5,2,3,"BlockProc2","Temperature - Morning","U",78,20,6751,"StudyProc8","JOL","BlockProc2","Temperature - ?",78,"morning","recallproc2","recall"
"IS_JOL A",5,2,3,"BlockProc2","Mirror - Children","U",79,0,2074,"StudyProc8","JOL","BlockProc2","Mirror - ?",79,"","recallproc2","recall"
"IS_JOL A",5,2,3,"BlockProc2","Main - Scar","U",80,0,1596,"StudyProc8","JOL","BlockProc2","Main - ?",80,"","recallproc2","recall"
"RL_JOL A",9,2,3,"BlockProc2","Extension - Long","F",1,100,3813,"StudyProc5","JOL","BlockProc2","Extension - ?",1,"cord","recallproc2","recall"
"RL_JOL A",9,2,3,"BlockProc2","Clue - Game","F",2,90,6372,"StudyProc5","JOL","BlockProc2","Clue - ?",2,"game","recallproc2","recall"
"RL_JOL A",9,2,3,"BlockProc2","Cactus - Plant","F",3,100,3774,"StudyProc5","JOL","BlockProc2","Cactus - ?",3,"plant","recallproc2","recall"
"RL_JOL A",9,2,3,"BlockProc2","Shoelace - Tie","F",4,100,3726,"StudyProc5","JOL","BlockProc2","Shoelace - ?",4,"tie","recallproc2","recall"
"RL_JOL A",9,2,3,"BlockProc2","Detective - Mystery","F",5,70,3974,"StudyProc5","JOL","BlockProc2","Detective - ?",5,"case","recallproc2","recall"
"RL_JOL A",9,2,3,"BlockProc2","Adjourn - End","F",6,100,5593,"StudyProc5","JOL","BlockProc2","Adjourn - ?",6,"end","recallproc2","recall"
"RL_JOL A",9,2,3,"BlockProc2","Furry - Dog","F",7,100,4360,"StudyProc5","JOL","BlockProc2","Furry - ?",7,"dog","recallproc2","recall"
"RL_JOL A",9,2,3,"BlockProc2","Litter - Trash","F",8,100,6881,"StudyProc5","JOL","BlockProc2","Litter - ?",8,"trash","recallproc2","recall"
"RL_JOL A",9,2,3,"BlockProc2","Cherry - Red","F",9,100,3648,"StudyProc5","JOL","BlockProc2","Cherry - ?",9,"red","recallproc2","recall"
"RL_JOL A",9,2,3,"BlockProc2","Scalp - Head","F",10,100,4540,"StudyProc5","JOL","BlockProc2","Scalp - ?",10,"head","recallproc2","recall"
"RL_JOL A",9,2,3,"BlockProc2","Driver - Car","F",11,100,5686,"StudyProc5","JOL","BlockProc2","Driver - ?",11,"car","recallproc2","recall"
"RL_JOL A",9,2,3,"BlockProc2","Chop - Cut","F",12,80,4706,"StudyProc5","JOL","BlockProc2","Chop - ?",12,"cut","recallproc2","recall"
"RL_JOL A",9,2,3,"BlockProc2","Mule - Donkey","F",13,100,5851,"StudyProc5","JOL","BlockProc2","Mule - ?",13,"donkey","recallproc2","recall"
"RL_JOL A",9,2,3,"BlockProc2","Document - Paper","F",14,100,5554,"StudyProc5","JOL","BlockProc2","Document - ?",14,"paper","recallproc2","recall"
"RL_JOL A",9,2,3,"BlockProc2","Incense - Smell","F",15,90,4079,"StudyProc5","JOL","BlockProc2","Incense - ?",15,"smell","recallproc2","recall"
"RL_JOL A",9,2,3,"BlockProc2","Dine - Eat","F",16,100,3800,"StudyProc5","JOL","BlockProc2","Dine - ?",16,"eat","recallproc2","recall"
"RL_JOL A",9,2,3,"BlockProc2","Shears - Scissors","F",17,100,4089,"StudyProc5","JOL","BlockProc2","Shears - ?",17,"scissors","recallproc2","recall"
"RL_JOL A",9,2,3,"BlockProc2","Feud - Fight","F",18,80,5939,"StudyProc5","JOL","BlockProc2","Feud - ?",18,"fight","recallproc2","recall"
"RL_JOL A",9,2,3,"BlockProc2","Chill - Cold","F",19,100,3694,"StudyProc5","JOL","BlockProc2","Chill - ?",19,"cold","recallproc2","recall"
"RL_JOL A",9,2,3,"BlockProc2","Affection - Love","F",20,80,5890,"StudyProc5","JOL","BlockProc2","Affection - ?",20,"love","recallproc2","recall"
"RL_JOL A",9,2,3,"BlockProc2","Turn - Flip","B",21,80,3368,"StudyProc5","JOL","BlockProc2","Turn - ?",21,"flip","recallproc2","recall"
"RL_JOL A",9,2,3,"BlockProc2","Car - Windshield","B",22,100,3707,"StudyProc5","JOL","BlockProc2","Car - ?",22,"driver","recallproc2","recall"
"RL_JOL A",9,2,3,"BlockProc2","Bad - Villain","B",23,100,6334,"StudyProc5","JOL","BlockProc2","Bad - ?",23,"good","recallproc2","recall"
"RL_JOL A",9,2,3,"BlockProc2","Bird - Penguin","B",24,100,2867,"StudyProc5","JOL","BlockProc2","Bird - ?",24,"penguin","recallproc2","recall"
"RL_JOL A",9,2,3,"BlockProc2","Star - Actress","B",25,80,4924,"StudyProc5","JOL","BlockProc2","Star - ?",25,"actress","recallproc2","recall"
"RL_JOL A",9,2,3,"BlockProc2","Thread - Thimble","B",26,80,7704,"StudyProc5","JOL","BlockProc2","Thread - ?",26,"thumble","recallproc2","recall"
"RL_JOL A",9,2,3,"BlockProc2","Even - Revenge","B",27,100,4458,"StudyProc5","JOL","BlockProc2","Even - ?",27,"odd","recallproc2","recall"
"RL_JOL A",9,2,3,"BlockProc2","Pop - Balloon","B",28,90,5010,"StudyProc5","JOL","BlockProc2","Pop - ?",28,"soda","recallproc2","recall"
"RL_JOL A",9,2,3,"BlockProc2","Fruit - Strawberry","B",29,100,4488,"StudyProc5","JOL","BlockProc2","Fruit - ?",29,"strawberry","recallproc2","recall"
"RL_JOL A",9,2,3,"BlockProc2","Best - Favorite","B",30,90,4122,"StudyProc5","JOL","BlockProc2","Best - ?",30,"favorite","recallproc2","recall"
"RL_JOL A",9,2,3,"BlockProc2","Cat - Panther","B",31,100,4894,"StudyProc5","JOL","BlockProc2","Cat - ?",31,"leopard","recallproc2","recall"
"RL_JOL A",9,2,3,"BlockProc2","Glass - Breakable","B",32,100,5154,"StudyProc5","JOL","BlockProc2","Glass - ?",32,"fragile","recallproc2","recall"
"RL_JOL A",9,2,3,"BlockProc2","Dead - Coffin","B",33,100,5501,"StudyProc5","JOL","BlockProc2","Dead - ?",33,"casket","recallproc2","recall"
"RL_JOL A",9,2,3,"BlockProc2","Plane - Aircraft","B",34,100,5318,"StudyProc5","JOL","BlockProc2","Plane - ?",34,"aircraft","recallproc2","recall"
"RL_JOL A",9,2,3,"BlockProc2","Fish - Sardine","B",35,100,3694,"StudyProc5","JOL","BlockProc2","Fish - ?",35,"tuna","recallproc2","recall"
"RL_JOL A",9,2,3,"BlockProc2","Baseball - League","B",36,100,3474,"StudyProc5","JOL","BlockProc2","Baseball - ?",36,"league","recallproc2","recall"
"RL_JOL A",9,2,3,"BlockProc2","Money - Banker","B",37,100,6175,"StudyProc5","JOL","BlockProc2","Money - ?",37,"loan","recallproc2","recall"
"RL_JOL A",9,2,3,"BlockProc2","Honest - Truthful","B",38,100,3715,"StudyProc5","JOL","BlockProc2","Honest - ?",38,"truth","recallproc2","recall"
"RL_JOL A",9,2,3,"BlockProc2","Sleep - Nap","B",39,100,4407,"StudyProc5","JOL","BlockProc2","Sleep - ?",39,"nap","recallproc2","recall"
"RL_JOL A",9,2,3,"BlockProc2","Fight - Brawl","B",40,60,9425,"StudyProc5","JOL","BlockProc2","Fight - ?",40,"brawl","recallproc2","recall"
"RL_JOL A",9,2,3,"BlockProc2","Razor - Shave","S",41,100,3878,"StudyProc8","JOL","BlockProc2","Razor - ?",41,"shave","recallproc2","recall"
"RL_JOL A",9,2,3,"BlockProc2","Rights - Equal","S",42,100,6168,"StudyProc8","JOL","BlockProc2","Rights - ?",42,"equal","recallproc2","recall"
"RL_JOL A",9,2,3,"BlockProc2","Mason - Jar","S",43,90,4791,"StudyProc8","JOL","BlockProc2","Mason - ?",43,"jar","recallproc2","recall"
"RL_JOL A",9,2,3,"BlockProc2","Candle - Wax","S",44,100,7012,"StudyProc8","JOL","BlockProc2","Candle - ?",44,"wax","recallproc2","recall"
"RL_JOL A",9,2,3,"BlockProc2","Wrist - Bracelet","S",45,100,3507,"StudyProc8","JOL","BlockProc2","Wrist - ?",45,"bracelet","recallproc2","recall"
"RL_JOL A",9,2,3,"BlockProc2","Element - Carbon","S",46,100,5035,"StudyProc8","JOL","BlockProc2","Element - ?",46,"calcui","recallproc2","recall"
"RL_JOL A",9,2,3,"BlockProc2","Gone - Away","S",47,70,5705,"StudyProc8","JOL","BlockProc2","Gone - ?",47,"away","recallproc2","recall"
"RL_JOL A",9,2,3,"BlockProc2","Water - Drink","S",48,100,5126,"StudyProc8","JOL","BlockProc2","Water - ?",48,"drink","recallproc2","recall"
"RL_JOL A",9,2,3,"BlockProc2","Earth - Ground","S",49,90,6648,"StudyProc8","JOL","BlockProc2","Earth - ?",49,"ground","recallproc2","recall"
"RL_JOL A",9,2,3,"BlockProc2","Alone - Lonely","S",50,100,4961,"StudyProc8","JOL","BlockProc2","Alone - ?",50,"lonely","recallproc2","recall"
"RL_JOL A",9,2,3,"BlockProc2","Dry - Wet","S",51,100,4139,"StudyProc8","JOL","BlockProc2","Dry - ?",51,"wet","recallproc2","recall"
"RL_JOL A",9,2,3,"BlockProc2","Safety - Seatbelt","S",52,70,5415,"StudyProc8","JOL","BlockProc2","Safety - ?",52,"ensure","recallproc2","recall"
"RL_JOL A",9,2,3,"BlockProc2","Truth - Lie","S",53,100,4221,"StudyProc8","JOL","BlockProc2","Truth - ?",53,"honesty","recallproc2","recall"
"RL_JOL A",9,2,3,"BlockProc2","Phone - Communicatio","S",54,100,5530,"StudyProc8","JOL","BlockProc2","Phone - ?",54,"communicate","recallproc2","recall"
"RL_JOL A",9,2,3,"BlockProc2","Rod - Reel","S",55,8,8406,"StudyProc8","JOL","BlockProc2","Rod - ?",55,"rod","recallproc2","recall"
"RL_JOL A",9,2,3,"BlockProc2","Flea - Tick","S",56,100,5842,"StudyProc8","JOL","BlockProc2","Flea - ?",56,"tick","recallproc2","recall"
"RL_JOL A",9,2,3,"BlockProc2","Loud - Noise","S",57,100,4025,"StudyProc8","JOL","BlockProc2","Loud - ?",57,"noise","recallproc2","recall"
"RL_JOL A",9,2,3,"BlockProc2","Own - Have","S",58,40,4726,"StudyProc8","JOL","BlockProc2","Own - ?",58,"keep","recallproc2","recall"
"RL_JOL A",9,2,3,"BlockProc2","Tantrum - Temper","S",59,100,6197,"StudyProc8","JOL","BlockProc2","Tantrum - ?",59,"tempe","recallproc2","recall"
"RL_JOL A",9,2,3,"BlockProc2","Sun - Tan","S",60,100,6744,"StudyProc8","JOL","BlockProc2","Sun - ?",60,"day","recallproc2","recall"
"RL_JOL A",9,2,3,"BlockProc2","Justice - Maroon","U",61,0,4624,"StudyProc8","JOL","BlockProc2","Justice - ?",61,"equality","recallproc2","recall"
"RL_JOL A",9,2,3,"BlockProc2","Stretch - Cloth","U",62,40,9229,"StudyProc8","JOL","BlockProc2","Stretch - ?",62,"clothes","recallproc2","recall"
"RL_JOL A",9,2,3,"BlockProc2","Give - Steak","U",63,60,7310,"StudyProc8","JOL","BlockProc2","Give - ?",63,"recieve","recallproc2","recall"
"RL_JOL A",9,2,3,"BlockProc2","Maze - Election","U",64,70,10859,"StudyProc8","JOL","BlockProc2","Maze - ?",64,"election","recallproc2","recall"
"RL_JOL A",9,2,3,"BlockProc2","Vehicle - Charm","U",65,0,3761,"StudyProc8","JOL","BlockProc2","Vehicle - ?",65,"motor","recallproc2","recall"
"RL_JOL A",9,2,3,"BlockProc2","Meat - Obtain","U",66,70,8727,"StudyProc8","JOL","BlockProc2","Meat - ?",66,"need","recallproc2","recall"
"RL_JOL A",9,2,3,"BlockProc2","Crackle - Able","U",67,0,6972,"StudyProc8","JOL","BlockProc2","Crackle - ?",67,"pop","recallproc2","recall"
"RL_JOL A",9,2,3,"BlockProc2","Shell - Shake","U",68,10,15128,"StudyProc8","JOL","BlockProc2","Shell - ?",68,"shock","recallproc2","recall"
"RL_JOL A",9,2,3,"BlockProc2","Listen - Fiction","U",69,20,7898,"StudyProc8","JOL","BlockProc2","Listen - ?",69,"communicate","recallproc2","recall"
"RL_JOL A",9,2,3,"BlockProc2","Keys - Joke","U",70,30,7430,"StudyProc8","JOL","BlockProc2","Keys - ?",70,"latch","recallproc2","recall"
"RL_JOL A",9,2,3,"BlockProc2","Cake - Clothes","U",71,50,8403,"StudyProc8","JOL","BlockProc2","Cake - ?",71,"chocolate","recallproc2","recall"
"RL_JOL A",9,2,3,"BlockProc2","Name - Hate","U",72,70,6133,"StudyProc8","JOL","BlockProc2","Name - ?",72,"hate","recallproc2","recall"
"RL_JOL A",9,2,3,"BlockProc2","Fuzzy - Bang","U",73,40,8178,"StudyProc8","JOL","BlockProc2","Fuzzy - ?",73,"dog","recallproc2","recall"
"RL_JOL A",9,2,3,"BlockProc2","Moat - Clear","U",74,0,4827,"StudyProc8","JOL","BlockProc2","Moat - ?",74,"goan","recallproc2","recall"
"RL_JOL A",9,2,3,"BlockProc2","Lease - Toil","U",75,0,6964,"StudyProc8","JOL","BlockProc2","Lease - ?",75,"sign","recallproc2","recall"
"RL_JOL A",9,2,3,"BlockProc2","Loan - Sign","U",76,0,9128,"StudyProc8","JOL","BlockProc2","Loan - ?",76,"sign","recallproc2","recall"
"RL_JOL A",9,2,3,"BlockProc2","Both - Ounce","U",77,0,10641,"StudyProc8","JOL","BlockProc2","Both - ?",77,"neither","recallproc2","recall"
"RL_JOL A",9,2,3,"BlockProc2","Temperature - Morning","U",78,80,9401,"StudyProc8","JOL","BlockProc2","Temperature - ?",78,"morning","recallproc2","recall"
"RL_JOL A",9,2,3,"BlockProc2","Mirror - Children","U",79,40,9447,"StudyProc8","JOL","BlockProc2","Mirror - ?",79,"children","recallproc2","recall"
"RL_JOL A",9,2,3,"BlockProc2","Main - Scar","U",80,0,9750,"StudyProc8","JOL","BlockProc2","Main - ?",80,"frist","recallproc2","recall"
"READ_JOL A",13,2,3,"BlockProc2","Extension - Long","F",1,50,6445,"StudyProc5","JOL","BlockProc2","Extension - ?",1,"Longer","recallproc2","recall"
"READ_JOL A",13,2,3,"BlockProc2","Clue - Game","F",2,60,5633,"StudyProc5","JOL","BlockProc2","Clue - ?",2,"Game","recallproc2","recall"
"READ_JOL A",13,2,3,"BlockProc2","Cactus - Plant","F",3,60,9726,"StudyProc5","JOL","BlockProc2","Cactus - ?",3,"Plant","recallproc2","recall"
"READ_JOL A",13,2,3,"BlockProc2","Shoelace - Tie","F",4,80,4428,"StudyProc5","JOL","BlockProc2","Shoelace - ?",4,"Tie","recallproc2","recall"
"READ_JOL A",13,2,3,"BlockProc2","Detective - Mystery","F",5,80,4709,"StudyProc5","JOL","BlockProc2","Detective - ?",5,"Mystery","recallproc2","recall"
"READ_JOL A",13,2,3,"BlockProc2","Adjourn - End","F",6,50,5608,"StudyProc5","JOL","BlockProc2","Adjourn - ?",6,"End","recallproc2","recall"
"READ_JOL A",13,2,3,"BlockProc2","Furry - Dog","F",7,60,5544,"StudyProc5","JOL","BlockProc2","Furry - ?",7,"Dog","recallproc2","recall"
"READ_JOL A",13,2,3,"BlockProc2","Litter - Trash","F",8,80,3560,"StudyProc5","JOL","BlockProc2","Litter - ?",8,"Trash","recallproc2","recall"
"READ_JOL A",13,2,3,"BlockProc2","Cherry - Red","F",9,90,4753,"StudyProc5","JOL","BlockProc2","Cherry - ?",9,"Red","recallproc2","recall"
"READ_JOL A",13,2,3,"BlockProc2","Scalp - Head","F",10,80,4646,"StudyProc5","JOL","BlockProc2","Scalp - ?",10,"Head","recallproc2","recall"
"READ_JOL A",13,2,3,"BlockProc2","Driver - Car","F",11,80,5144,"StudyProc5","JOL","BlockProc2","Driver - ?",11,"Car","recallproc2","recall"
"READ_JOL A",13,2,3,"BlockProc2","Chop - Cut","F",12,70,4485,"StudyProc5","JOL","BlockProc2","Chop - ?",12,"Cut","recallproc2","recall"
"READ_JOL A",13,2,3,"BlockProc2","Mule - Donkey","F",13,80,2893,"StudyProc5","JOL","BlockProc2","Mule - ?",13,"Donkey","recallproc2","recall"
"READ_JOL A",13,2,3,"BlockProc2","Document - Paper","F",14,60,7895,"StudyProc5","JOL","BlockProc2","Document - ?",14,"Paper","recallproc2","recall"
"READ_JOL A",13,2,3,"BlockProc2","Incense - Smell","F",15,60,6262,"StudyProc5","JOL","BlockProc2","Incense - ?",15,"Smell","recallproc2","recall"
"READ_JOL A",13,2,3,"BlockProc2","Dine - Eat","F",16,50,7817,"StudyProc5","JOL","BlockProc2","Dine - ?",16,"Eat","recallproc2","recall"
"READ_JOL A",13,2,3,"BlockProc2","Shears - Scissors","F",17,50,8703,"StudyProc5","JOL","BlockProc2","Shears - ?",17,"Scissors","recallproc2","recall"
"READ_JOL A",13,2,3,"BlockProc2","Feud - Fight","F",18,30,4565,"StudyProc5","JOL","BlockProc2","Feud - ?",18,"Fight","recallproc2","recall"
"READ_JOL A",13,2,3,"BlockProc2","Chill - Cold","F",19,50,6047,"StudyProc5","JOL","BlockProc2","Chill - ?",19,"Cold","recallproc2","recall"
"READ_JOL A",13,2,3,"BlockProc2","Affection - Love","F",20,80,4497,"StudyProc5","JOL","BlockProc2","Affection - ?",20,"Love","recallproc2","recall"
"READ_JOL A",13,2,3,"BlockProc2","Turn - Flip","B",21,60,8245,"StudyProc5","JOL","BlockProc2","Turn - ?",21,"Around","recallproc2","recall"
"READ_JOL A",13,2,3,"BlockProc2","Car - Windshield","B",22,60,9077,"StudyProc5","JOL","BlockProc2","Car - ?",22,"Windshield","recallproc2","recall"
"READ_JOL A",13,2,3,"BlockProc2","Bad - Villain","B",23,60,5812,"StudyProc5","JOL","BlockProc2","Bad - ?",23,"Sad","recallproc2","recall"
"READ_JOL A",13,2,3,"BlockProc2","Bird - Penguin","B",24,60,4711,"StudyProc5","JOL","BlockProc2","Bird - ?",24,"Penguin","recallproc2","recall"
"READ_JOL A",13,2,3,"BlockProc2","Star - Actress","B",25,60,5098,"StudyProc5","JOL","BlockProc2","Star - ?",25,"Actress","recallproc2","recall"
"READ_JOL A",13,2,3,"BlockProc2","Thread - Thimble","B",26,60,3629,"StudyProc5","JOL","BlockProc2","Thread - ?",26,"Thimble","recallproc2","recall"
"READ_JOL A",13,2,3,"BlockProc2","Even - Revenge","B",27,0,6180,"StudyProc5","JOL","BlockProc2","Even - ?",27,"Revenge","recallproc2","recall"
"READ_JOL A",13,2,3,"BlockProc2","Pop - Balloon","B",28,70,7205,"StudyProc5","JOL","BlockProc2","Pop - ?",28,"Balloon","recallproc2","recall"
"READ_JOL A",13,2,3,"BlockProc2","Fruit - Strawberry","B",29,90,2779,"StudyProc5","JOL","BlockProc2","Fruit - ?",29,"Strawberry","recallproc2","recall"
"READ_JOL A",13,2,3,"BlockProc2","Best - Favorite","B",30,70,6601,"StudyProc5","JOL","BlockProc2","Best - ?",30,"Favorite","recallproc2","recall"
"READ_JOL A",13,2,3,"BlockProc2","Cat - Panther","B",31,40,7379,"StudyProc5","JOL","BlockProc2","Cat - ?",31,"Panther","recallproc2","recall"
"READ_JOL A",13,2,3,"BlockProc2","Glass - Breakable","B",32,70,7365,"StudyProc5","JOL","BlockProc2","Glass - ?",32,"Breakable","recallproc2","recall"
"READ_JOL A",13,2,3,"BlockProc2","Dead - Coffin","B",33,70,4627,"StudyProc5","JOL","BlockProc2","Dead - ?",33,"Coffin","recallproc2","recall"
"READ_JOL A",13,2,3,"BlockProc2","Plane - Aircraft","B",34,40,6282,"StudyProc5","JOL","BlockProc2","Plane - ?",34,"Pilot","recallproc2","recall"
"READ_JOL A",13,2,3,"BlockProc2","Fish - Sardine","B",35,60,9215,"StudyProc5","JOL","BlockProc2","Fish - ?",35,"Sardine","recallproc2","recall"
"READ_JOL A",13,2,3,"BlockProc2","Baseball - League","B",36,70,9072,"StudyProc5","JOL","BlockProc2","Baseball - ?",36,"Catcher","recallproc2","recall"
"READ_JOL A",13,2,3,"BlockProc2","Money - Banker","B",37,50,7708,"StudyProc5","JOL","BlockProc2","Money - ?",37,"Bank","recallproc2","recall"
"READ_JOL A",13,2,3,"BlockProc2","Honest - Truthful","B",38,60,5932,"StudyProc5","JOL","BlockProc2","Honest - ?",38,"Truthfulness","recallproc2","recall"
"READ_JOL A",13,2,3,"BlockProc2","Sleep - Nap","B",39,80,4471,"StudyProc5","JOL","BlockProc2","Sleep - ?",39,"Nap","recallproc2","recall"
"READ_JOL A",13,2,3,"BlockProc2","Fight - Brawl","B",40,50,6835,"StudyProc5","JOL","BlockProc2","Fight - ?",40,"Brawl","recallproc2","recall"
"READ_JOL A",13,2,3,"BlockProc2","Razor - Shave","S",41,90,6061,"StudyProc8","JOL","BlockProc2","Razor - ?",41,"Shave","recallproc2","recall"
"READ_JOL A",13,2,3,"BlockProc2","Rights - Equal","S",42,50,8913,"StudyProc8","JOL","BlockProc2","Rights - ?",42,"Equal","recallproc2","recall"
"READ_JOL A",13,2,3,"BlockProc2","Mason - Jar","S",43,90,2648,"StudyProc8","JOL","BlockProc2","Mason - ?",43,"Jar","recallproc2","recall"
"READ_JOL A",13,2,3,"BlockProc2","Candle - Wax","S",44,80,3226,"StudyProc8","JOL","BlockProc2","Candle - ?",44,"Wax","recallproc2","recall"
"READ_JOL A",13,2,3,"BlockProc2","Wrist - Bracelet","S",45,80,6794,"StudyProc8","JOL","BlockProc2","Wrist - ?",45,"Bracelet","recallproc2","recall"
"READ_JOL A",13,2,3,"BlockProc2","Element - Carbon","S",46,80,4622,"StudyProc8","JOL","BlockProc2","Element - ?",46,"Carbon","recallproc2","recall"
"READ_JOL A",13,2,3,"BlockProc2","Gone - Away","S",47,60,4672,"StudyProc8","JOL","BlockProc2","Gone - ?",47,"Away","recallproc2","recall"
"READ_JOL A",13,2,3,"BlockProc2","Water - Drink","S",48,80,3217,"StudyProc8","JOL","BlockProc2","Water - ?",48,"Wet","recallproc2","recall"
"READ_JOL A",13,2,3,"BlockProc2","Earth - Ground","S",49,70,4895,"StudyProc8","JOL","BlockProc2","Earth - ?",49,"Dirt","recallproc2","recall"
"READ_JOL A",13,2,3,"BlockProc2","Alone - Lonely","S",50,90,3557,"StudyProc8","JOL","BlockProc2","Alone - ?",50,"Lonely","recallproc2","recall"
"READ_JOL A",13,2,3,"BlockProc2","Dry - Wet","S",51,80,6272,"StudyProc8","JOL","BlockProc2","Dry - ?",51,"Wet","recallproc2","recall"
"READ_JOL A",13,2,3,"BlockProc2","Safety - Seatbelt","S",52,80,4843,"StudyProc8","JOL","BlockProc2","Safety - ?",52,"Seatbelt","recallproc2","recall"
"READ_JOL A",13,2,3,"BlockProc2","Truth - Lie","S",53,90,2577,"StudyProc8","JOL","BlockProc2","Truth - ?",53,"Honest","recallproc2","recall"
"READ_JOL A",13,2,3,"BlockProc2","Phone - Communicatio","S",54,80,6034,"StudyProc8","JOL","BlockProc2","Phone - ?",54,"Communication","recallproc2","recall"
"READ_JOL A",13,2,3,"BlockProc2","Rod - Reel","S",55,70,3507,"StudyProc8","JOL","BlockProc2","Rod - ?",55,"Reel","recallproc2","recall"
"READ_JOL A",13,2,3,"BlockProc2","Flea - Tick","S",56,70,4775,"StudyProc8","JOL","BlockProc2","Flea - ?",56,"Tick","recallproc2","recall"
"READ_JOL A",13,2,3,"BlockProc2","Loud - Noise","S",57,90,5097,"StudyProc8","JOL","BlockProc2","Loud - ?",57,"Noise","recallproc2","recall"
"READ_JOL A",13,2,3,"BlockProc2","Own - Have","S",58,70,4474,"StudyProc8","JOL","BlockProc2","Own - ?",58,"Have","recallproc2","recall"
"READ_JOL A",13,2,3,"BlockProc2","Tantrum - Temper","S",59,80,3991,"StudyProc8","JOL","BlockProc2","Tantrum - ?",59,"Temper","recallproc2","recall"
"READ_JOL A",13,2,3,"BlockProc2","Sun - Tan","S",60,80,2906,"StudyProc8","JOL","BlockProc2","Sun - ?",60,"Tan","recallproc2","recall"
"READ_JOL A",13,2,3,"BlockProc2","Justice - Maroon","U",61,50,7730,"StudyProc8","JOL","BlockProc2","Justice - ?",61,"Jury","recallproc2","recall"
"READ_JOL A",13,2,3,"BlockProc2","Stretch - Cloth","U",62,50,8518,"StudyProc8","JOL","BlockProc2","Stretch - ?",62,"Extension","recallproc2","recall"
"READ_JOL A",13,2,3,"BlockProc2","Give - Steak","U",63,0,9328,"StudyProc8","JOL","BlockProc2","Give - ?",63,"Steak","recallproc2","recall"
"READ_JOL A",13,2,3,"BlockProc2","Maze - Election","U",64,50,8575,"StudyProc8","JOL","BlockProc2","Maze - ?",64,"Election","recallproc2","recall"
"READ_JOL A",13,2,3,"BlockProc2","Vehicle - Charm","U",65,40,7360,"StudyProc8","JOL","BlockProc2","Vehicle - ?",65,"Car","recallproc2","recall"
"READ_JOL A",13,2,3,"BlockProc2","Meat - Obtain","U",66,50,9011,"StudyProc8","JOL","BlockProc2","Meat - ?",66,"Want","recallproc2","recall"
"READ_JOL A",13,2,3,"BlockProc2","Crackle - Able","U",67,40,7142,"StudyProc8","JOL","BlockProc2","Crackle - ?",67,"Crunch","recallproc2","recall"
"READ_JOL A",13,2,3,"BlockProc2","Shell - Shake","U",68,50,8586,"StudyProc8","JOL","BlockProc2","Shell - ?",68,"Sea","recallproc2","recall"
"READ_JOL A",13,2,3,"BlockProc2","Listen - Fiction","U",69,50,10723,"StudyProc8","JOL","BlockProc2","Listen - ?",69,"Friction","recallproc2","recall"
"READ_JOL A",13,2,3,"BlockProc2","Keys - Joke","U",70,40,12115,"StudyProc8","JOL","BlockProc2","Keys - ?",70,"Dumb","recallproc2","recall"
"READ_JOL A",13,2,3,"BlockProc2","Cake - Clothes","U",71,60,4347,"StudyProc8","JOL","BlockProc2","Cake - ?",71,"Yum","recallproc2","recall"
"READ_JOL A",13,2,3,"BlockProc2","Name - Hate","U",72,50,5896,"StudyProc8","JOL","BlockProc2","Name - ?",72,"Hate","recallproc2","recall"
"READ_JOL A",13,2,3,"BlockProc2","Fuzzy - Bang","U",73,50,11040,"StudyProc8","JOL","BlockProc2","Fuzzy - ?",73,"Dog","recallproc2","recall"
"READ_JOL A",13,2,3,"BlockProc2","Moat - Clear","U",74,60,6102,"StudyProc8","JOL","BlockProc2","Moat - ?",74,"Clear","recallproc2","recall"
"READ_JOL A",13,2,3,"BlockProc2","Lease - Toil","U",75,20,5029,"StudyProc8","JOL","BlockProc2","Lease - ?",75,"Buy","recallproc2","recall"
"READ_JOL A",13,2,3,"BlockProc2","Loan - Sign","U",76,40,9483,"StudyProc8","JOL","BlockProc2","Loan - ?",76,"Buy","recallproc2","recall"
"READ_JOL A",13,2,3,"BlockProc2","Both - Ounce","U",77,40,6660,"StudyProc8","JOL","BlockProc2","Both - ?",77,"Either","recallproc2","recall"
"READ_JOL A",13,2,3,"BlockProc2","Temperature - Morning","U",78,50,9578,"StudyProc8","JOL","BlockProc2","Temperature - ?",78,"Morning","recallproc2","recall"
"READ_JOL A",13,2,3,"BlockProc2","Mirror - Children","U",79,60,5457,"StudyProc8","JOL","BlockProc2","Mirror - ?",79,"Child","recallproc2","recall"
"READ_JOL A",13,2,3,"BlockProc2","Main - Scar","U",80,60,10972,"StudyProc8","JOL","BlockProc2","Main - ?",80,"Entrance","recallproc2","recall"
"IS_JOL A",17,2,3,"BlockProc2","Extension - Long","F",1,90,7237,"StudyProc5","JOL","BlockProc2","Extension - ?",1,"long","recallproc2","recall"
"IS_JOL A",17,2,3,"BlockProc2","Clue - Game","F",2,80,8739,"StudyProc5","JOL","BlockProc2","Clue - ?",2,"problem","recallproc2","recall"
"IS_JOL A",17,2,3,"BlockProc2","Cactus - Plant","F",3,90,15911,"StudyProc5","JOL","BlockProc2","Cactus - ?",3,"lant","recallproc2","recall"
"IS_JOL A",17,2,3,"BlockProc2","Shoelace - Tie","F",4,80,7486,"StudyProc5","JOL","BlockProc2","Shoelace - ?",4,"tie","recallproc2","recall"
"IS_JOL A",17,2,3,"BlockProc2","Detective - Mystery","F",5,70,11062,"StudyProc5","JOL","BlockProc2","Detective - ?",5,"mystery","recallproc2","recall"
"IS_JOL A",17,2,3,"BlockProc2","Adjourn - End","F",6,70,13690,"StudyProc5","JOL","BlockProc2","Adjourn - ?",6,"end","recallproc2","recall"
"IS_JOL A",17,2,3,"BlockProc2","Furry - Dog","F",7,90,5337,"StudyProc5","JOL","BlockProc2","Furry - ?",7,"dog","recallproc2","recall"
"IS_JOL A",17,2,3,"BlockProc2","Litter - Trash","F",8,70,14956,"StudyProc5","JOL","BlockProc2","Litter - ?",8,"trash","recallproc2","recall"
"IS_JOL A",17,2,3,"BlockProc2","Cherry - Red","F",9,70,18600,"StudyProc5","JOL","BlockProc2","Cherry - ?",9,"red","recallproc2","recall"
"IS_JOL A",17,2,3,"BlockProc2","Scalp - Head","F",10,80,9875,"StudyProc5","JOL","BlockProc2","Scalp - ?",10,"head","recallproc2","recall"
"IS_JOL A",17,2,3,"BlockProc2","Driver - Car","F",11,80,20364,"StudyProc5","JOL","BlockProc2","Driver - ?",11,"car","recallproc2","recall"
"IS_JOL A",17,2,3,"BlockProc2","Chop - Cut","F",12,90,11752,"StudyProc5","JOL","BlockProc2","Chop - ?",12,"cut","recallproc2","recall"
"IS_JOL A",17,2,3,"BlockProc2","Mule - Donkey","F",13,80,18524,"StudyProc5","JOL","BlockProc2","Mule - ?",13,"donkey","recallproc2","recall"
"IS_JOL A",17,2,3,"BlockProc2","Document - Paper","F",14,80,13193,"StudyProc5","JOL","BlockProc2","Document - ?",14,"paper","recallproc2","recall"
"IS_JOL A",17,2,3,"BlockProc2","Incense - Smell","F",15,50,18476,"StudyProc5","JOL","BlockProc2","Incense - ?",15,"smell","recallproc2","recall"
"IS_JOL A",17,2,3,"BlockProc2","Dine - Eat","F",16,80,8928,"StudyProc5","JOL","BlockProc2","Dine - ?",16,"resturant","recallproc2","recall"
"IS_JOL A",17,2,3,"BlockProc2","Shears - Scissors","F",17,100,9431,"StudyProc5","JOL","BlockProc2","Shears - ?",17,"sissors","recallproc2","recall"
"IS_JOL A",17,2,3,"BlockProc2","Feud - Fight","F",18,80,11814,"StudyProc5","JOL","BlockProc2","Feud - ?",18,"fight","recallproc2","recall"
"IS_JOL A",17,2,3,"BlockProc2","Chill - Cold","F",19,70,9148,"StudyProc5","JOL","BlockProc2","Chill - ?",19,"cold","recallproc2","recall"
"IS_JOL A",17,2,3,"BlockProc2","Affection - Love","F",20,90,14340,"StudyProc5","JOL","BlockProc2","Affection - ?",20,"love","recallproc2","recall"
"IS_JOL A",17,2,3,"BlockProc2","Turn - Flip","B",21,80,12089,"StudyProc5","JOL","BlockProc2","Turn - ?",21,"flip","recallproc2","recall"
"IS_JOL A",17,2,3,"BlockProc2","Car - Windshield","B",22,60,25801,"StudyProc5","JOL","BlockProc2","Car - ?",22,"windshield","recallproc2","recall"
"IS_JOL A",17,2,3,"BlockProc2","Bad - Villain","B",23,80,14033,"StudyProc5","JOL","BlockProc2","Bad - ?",23,"horrible","recallproc2","recall"
"IS_JOL A",17,2,3,"BlockProc2","Bird - Penguin","B",24,90,7111,"StudyProc5","JOL","BlockProc2","Bird - ?",24,"penguin","recallproc2","recall"
"IS_JOL A",17,2,3,"BlockProc2","Star - Actress","B",25,100,8121,"StudyProc5","JOL","BlockProc2","Star - ?",25,"winner","recallproc2","recall"
"IS_JOL A",17,2,3,"BlockProc2","Thread - Thimble","B",26,20,9292,"StudyProc5","JOL","BlockProc2","Thread - ?",26,"thimble","recallproc2","recall"
"IS_JOL A",17,2,3,"BlockProc2","Even - Revenge","B",27,80,24237,"StudyProc5","JOL","BlockProc2","Even - ?",27,"revenge","recallproc2","recall"
"IS_JOL A",17,2,3,"BlockProc2","Pop - Balloon","B",28,70,8720,"StudyProc5","JOL","BlockProc2","Pop - ?",28,"soda","recallproc2","recall"
"IS_JOL A",17,2,3,"BlockProc2","Fruit - Strawberry","B",29,90,8068,"StudyProc5","JOL","BlockProc2","Fruit - ?",29,"salad","recallproc2","recall"
"IS_JOL A",17,2,3,"BlockProc2","Best - Favorite","B",30,100,15847,"StudyProc5","JOL","BlockProc2","Best - ?",30,"favorite","recallproc2","recall"
"IS_JOL A",17,2,3,"BlockProc2","Cat - Panther","B",31,100,10085,"StudyProc5","JOL","BlockProc2","Cat - ?",31,"paw","recallproc2","recall"
"IS_JOL A",17,2,3,"BlockProc2","Glass - Breakable","B",32,80,7801,"StudyProc5","JOL","BlockProc2","Glass - ?",32,"breakable","recallproc2","recall"
"IS_JOL A",17,2,3,"BlockProc2","Dead - Coffin","B",33,80,11993,"StudyProc5","JOL","BlockProc2","Dead - ?",33,"coffin","recallproc2","recall"
"IS_JOL A",17,2,3,"BlockProc2","Plane - Aircraft","B",34,100,6333,"StudyProc5","JOL","BlockProc2","Plane - ?",34,"piolet","recallproc2","recall"
"IS_JOL A",17,2,3,"BlockProc2","Fish - Sardine","B",35,100,6824,"StudyProc5","JOL","BlockProc2","Fish - ?",35,"sardine","recallproc2","recall"
"IS_JOL A",17,2,3,"BlockProc2","Baseball - League","B",36,100,7576,"StudyProc5","JOL","BlockProc2","Baseball - ?",36,"catcher","recallproc2","recall"
"IS_JOL A",17,2,3,"BlockProc2","Money - Banker","B",37,70,10607,"StudyProc5","JOL","BlockProc2","Money - ?",37,"banker","recallproc2","recall"
"IS_JOL A",17,2,3,"BlockProc2","Honest - Truthful","B",38,80,26387,"StudyProc5","JOL","BlockProc2","Honest - ?",38,"truthful","recallproc2","recall"
"IS_JOL A",17,2,3,"BlockProc2","Sleep - Nap","B",39,90,5498,"StudyProc5","JOL","BlockProc2","Sleep - ?",39,"nap","recallproc2","recall"
"IS_JOL A",17,2,3,"BlockProc2","Fight - Brawl","B",40,90,8471,"StudyProc5","JOL","BlockProc2","Fight - ?",40,"fued","recallproc2","recall"
"IS_JOL A",17,2,3,"BlockProc2","Razor - Shave","S",41,70,12247,"StudyProc8","JOL","BlockProc2","Razor - ?",41,"haircut","recallproc2","recall"
"IS_JOL A",17,2,3,"BlockProc2","Rights - Equal","S",42,80,12607,"StudyProc8","JOL","BlockProc2","Rights - ?",42,"equal","recallproc2","recall"
"IS_JOL A",17,2,3,"BlockProc2","Mason - Jar","S",43,100,15804,"StudyProc8","JOL","BlockProc2","Mason - ?",43,"jar","recallproc2","recall"
"IS_JOL A",17,2,3,"BlockProc2","Candle - Wax","S",44,80,13675,"StudyProc8","JOL","BlockProc2","Candle - ?",44,"wax","recallproc2","recall"
"IS_JOL A",17,2,3,"BlockProc2","Wrist - Bracelet","S",45,100,10252,"StudyProc8","JOL","BlockProc2","Wrist - ?",45,"bracelet","recallproc2","recall"
"IS_JOL A",17,2,3,"BlockProc2","Element - Carbon","S",46,100,6878,"StudyProc8","JOL","BlockProc2","Element - ?",46,"carbon","recallproc2","recall"
"IS_JOL A",17,2,3,"BlockProc2","Gone - Away","S",47,70,12499,"StudyProc8","JOL","BlockProc2","Gone - ?",47,"away","recallproc2","recall"
"IS_JOL A",17,2,3,"BlockProc2","Water - Drink","S",48,90,9767,"StudyProc8","JOL","BlockProc2","Water - ?",48,"soda","recallproc2","recall"
"IS_JOL A",17,2,3,"BlockProc2","Earth - Ground","S",49,80,10370,"StudyProc8","JOL","BlockProc2","Earth - ?",49,"ground","recallproc2","recall"
"IS_JOL A",17,2,3,"BlockProc2","Alone - Lonely","S",50,80,13707,"StudyProc8","JOL","BlockProc2","Alone - ?",50,"lonely","recallproc2","recall"
"IS_JOL A",17,2,3,"BlockProc2","Dry - Wet","S",51,100,4283,"StudyProc8","JOL","BlockProc2","Dry - ?",51,"wet","recallproc2","recall"
"IS_JOL A",17,2,3,"BlockProc2","Safety - Seatbelt","S",52,80,12543,"StudyProc8","JOL","BlockProc2","Safety - ?",52,"seatbelt","recallproc2","recall"
"IS_JOL A",17,2,3,"BlockProc2","Truth - Lie","S",53,100,5154,"StudyProc8","JOL","BlockProc2","Truth - ?",53,"lie","recallproc2","recall"
"IS_JOL A",17,2,3,"BlockProc2","Phone - Communicatio","S",54,90,13801,"StudyProc8","JOL","BlockProc2","Phone - ?",54,"conversation","recallproc2","recall"
"IS_JOL A",17,2,3,"BlockProc2","Rod - Reel","S",55,60,12379,"StudyProc8","JOL","BlockProc2","Rod - ?",55,"reel","recallproc2","recall"
"IS_JOL A",17,2,3,"BlockProc2","Flea - Tick","S",56,90,9498,"StudyProc8","JOL","BlockProc2","Flea - ?",56,"tick","recallproc2","recall"
"IS_JOL A",17,2,3,"BlockProc2","Loud - Noise","S",57,90,7604,"StudyProc8","JOL","BlockProc2","Loud - ?",57,"noise","recallproc2","recall"
"IS_JOL A",17,2,3,"BlockProc2","Own - Have","S",58,90,7864,"StudyProc8","JOL","BlockProc2","Own - ?",58,"have","recallproc2","recall"
"IS_JOL A",17,2,3,"BlockProc2","Tantrum - Temper","S",59,100,10647,"StudyProc8","JOL","BlockProc2","Tantrum - ?",59,"temper","recallproc2","recall"
"IS_JOL A",17,2,3,"BlockProc2","Sun - Tan","S",60,80,10669,"StudyProc8","JOL","BlockProc2","Sun - ?",60,"tan","recallproc2","recall"
"IS_JOL A",17,2,3,"BlockProc2","Justice - Maroon","U",61,90,17625,"StudyProc8","JOL","BlockProc2","Justice - ?",61,"maroon","recallproc2","recall"
"IS_JOL A",17,2,3,"BlockProc2","Stretch - Cloth","U",62,80,8048,"StudyProc8","JOL","BlockProc2","Stretch - ?",62,"jeans","recallproc2","recall"
"IS_JOL A",17,2,3,"BlockProc2","Give - Steak","U",63,60,27098,"StudyProc8","JOL","BlockProc2","Give - ?",63,"take","recallproc2","recall"
"IS_JOL A",17,2,3,"BlockProc2","Maze - Election","U",64,80,34363,"StudyProc8","JOL","BlockProc2","Maze - ?",64,"election","recallproc2","recall"
"IS_JOL A",17,2,3,"BlockProc2","Vehicle - Charm","U",65,50,24383,"StudyProc8","JOL","BlockProc2","Vehicle - ?",65,"car","recallproc2","recall"
"IS_JOL A",17,2,3,"BlockProc2","Meat - Obtain","U",66,30,24258,"StudyProc8","JOL","BlockProc2","Meat - ?",66,"bone","recallproc2","recall"
"IS_JOL A",17,2,3,"BlockProc2","Crackle - Able","U",67,20,9952,"StudyProc8","JOL","BlockProc2","Crackle - ?",67,"pop","recallproc2","recall"
"IS_JOL A",17,2,3,"BlockProc2","Shell - Shake","U",68,50,15143,"StudyProc8","JOL","BlockProc2","Shell - ?",68,"shake","recallproc2","recall"
"IS_JOL A",17,2,3,"BlockProc2","Listen - Fiction","U",69,80,14961,"StudyProc8","JOL","BlockProc2","Listen - ?",69,"speak","recallproc2","recall"
"IS_JOL A",17,2,3,"BlockProc2","Keys - Joke","U",70,30,13077,"StudyProc8","JOL","BlockProc2","Keys - ?",70,"latch","recallproc2","recall"
"IS_JOL A",17,2,3,"BlockProc2","Cake - Clothes","U",71,30,10557,"StudyProc8","JOL","BlockProc2","Cake - ?",71,"sweet","recallproc2","recall"
"IS_JOL A",17,2,3,"BlockProc2","Name - Hate","U",72,80,13907,"StudyProc8","JOL","BlockProc2","Name - ?",72,"hate","recallproc2","recall"
"IS_JOL A",17,2,3,"BlockProc2","Fuzzy - Bang","U",73,30,17011,"StudyProc8","JOL","BlockProc2","Fuzzy - ?",73,"dog","recallproc2","recall"
"IS_JOL A",17,2,3,"BlockProc2","Moat - Clear","U",74,40,8493,"StudyProc8","JOL","BlockProc2","Moat - ?",74,"river","recallproc2","recall"
"IS_JOL A",17,2,3,"BlockProc2","Lease - Toil","U",75,10,12188,"StudyProc8","JOL","BlockProc2","Lease - ?",75,"own","recallproc2","recall"
"IS_JOL A",17,2,3,"BlockProc2","Loan - Sign","U",76,80,12268,"StudyProc8","JOL","BlockProc2","Loan - ?",76,"own","recallproc2","recall"
"IS_JOL A",17,2,3,"BlockProc2","Both - Ounce","U",77,60,14318,"StudyProc8","JOL","BlockProc2","Both - ?",77,"together","recallproc2","recall"
"IS_JOL A",17,2,3,"BlockProc2","Temperature - Morning","U",78,80,19182,"StudyProc8","JOL","BlockProc2","Temperature - ?",78,"cold","recallproc2","recall"
"IS_JOL A",17,2,3,"BlockProc2","Mirror - Children","U",79,90,9602,"StudyProc8","JOL","BlockProc2","Mirror - ?",79,"breakable","recallproc2","recall"
"IS_JOL A",17,2,3,"BlockProc2","Main - Scar","U",80,80,10798,"StudyProc8","JOL","BlockProc2","Main - ?",80,"side","recallproc2","recall"
"READ_JOL B",2,1,3,"BlockProc1","Extension - Long","F",1,NA,1852,"StudyProc3","JOL","BlockProc1","Extension - ?",1,"cord","recallproc1","recall"
"READ_JOL B",2,1,3,"BlockProc1","Clue - Game","F",2,NA,1107,"StudyProc3","JOL","BlockProc1","Clue - ?",2,"less","recallproc1","recall"
"READ_JOL B",2,1,3,"BlockProc1","Cactus - Plant","F",3,NA,1705,"StudyProc3","JOL","BlockProc1","Cactus - ?",3,"tree","recallproc1","recall"
"READ_JOL B",2,1,3,"BlockProc1","Shoelace - Tie","F",4,NA,1464,"StudyProc3","JOL","BlockProc1","Shoelace - ?",4,"shoe","recallproc1","recall"
"READ_JOL B",2,1,3,"BlockProc1","Detective - Mystery","F",5,NA,1342,"StudyProc3","JOL","BlockProc1","Detective - ?",5,"spy","recallproc1","recall"
"READ_JOL B",2,1,3,"BlockProc1","Adjourn - End","F",6,NA,1103,"StudyProc3","JOL","BlockProc1","Adjourn - ?",6,"swing","recallproc1","recall"
"READ_JOL B",2,1,3,"BlockProc1","Furry - Dog","F",7,NA,1558,"StudyProc3","JOL","BlockProc1","Furry - ?",7,"hairy","recallproc1","recall"
"READ_JOL B",2,1,3,"BlockProc1","Litter - Trash","F",8,NA,2321,"StudyProc3","JOL","BlockProc1","Litter - ?",8,"","recallproc1","recall"
"READ_JOL B",2,1,3,"BlockProc1","Cherry - Red","F",9,NA,1303,"StudyProc3","JOL","BlockProc1","Cherry - ?",9,"fruit","recallproc1","recall"
"READ_JOL B",2,1,3,"BlockProc1","Scalp - Head","F",10,NA,1523,"StudyProc3","JOL","BlockProc1","Scalp - ?",10,"hair","recallproc1","recall"
"READ_JOL B",2,1,3,"BlockProc1","Driver - Car","F",11,NA,1104,"StudyProc3","JOL","BlockProc1","Driver - ?",11,"steering","recallproc1","recall"
"READ_JOL B",2,1,3,"BlockProc1","Chop - Cut","F",12,NA,1439,"StudyProc3","JOL","BlockProc1","Chop - ?",12,"beef","recallproc1","recall"
"READ_JOL B",2,1,3,"BlockProc1","Mule - Donkey","F",13,NA,1288,"StudyProc3","JOL","BlockProc1","Mule - ?",13,"donke","recallproc1","recall"
"READ_JOL B",2,1,3,"BlockProc1","Document - Paper","F",14,NA,1446,"StudyProc3","JOL","BlockProc1","Document - ?",14,"sign","recallproc1","recall"
"READ_JOL B",2,1,3,"BlockProc1","Incense - Smell","F",15,NA,1476,"StudyProc3","JOL","BlockProc1","Incense - ?",15,"smel","recallproc1","recall"
"READ_JOL B",2,1,3,"BlockProc1","Dine - Eat","F",16,NA,903,"StudyProc3","JOL","BlockProc1","Dine - ?",16,"in","recallproc1","recall"
"READ_JOL B",2,1,3,"BlockProc1","Shears - Scissors","F",17,NA,1264,"StudyProc3","JOL","BlockProc1","Shears - ?",17,"window","recallproc1","recall"
"READ_JOL B",2,1,3,"BlockProc1","Feud - Fight","F",18,NA,1810,"StudyProc3","JOL","BlockProc1","Feud - ?",18,"family","recallproc1","recall"
"READ_JOL B",2,1,3,"BlockProc1","Chill - Cold","F",19,NA,1262,"StudyProc3","JOL","BlockProc1","Chill - ?",19,"morning","recallproc1","recall"
"READ_JOL B",2,1,3,"BlockProc1","Affection - Love","F",20,NA,2104,"StudyProc3","JOL","BlockProc1","Affection - ?",20,"love","recallproc1","recall"
"READ_JOL B",2,1,3,"BlockProc1","Turn - Flip","B",21,NA,1172,"StudyProc3","JOL","BlockProc1","Turn - ?",21,"around","recallproc1","recall"
"READ_JOL B",2,1,3,"BlockProc1","Car - Windshield","B",22,NA,1041,"StudyProc3","JOL","BlockProc1","Car - ?",22,"keys","recallproc1","recall"
"READ_JOL B",2,1,3,"BlockProc1","Bad - Villain","B",23,NA,890,"StudyProc3","JOL","BlockProc1","Bad - ?",23,"child","recallproc1","recall"
"READ_JOL B",2,1,3,"BlockProc1","Bird - Penguin","B",24,NA,1094,"StudyProc3","JOL","BlockProc1","Bird - ?",24,"wings","recallproc1","recall"
"READ_JOL B",2,1,3,"BlockProc1","Star - Actress","B",25,NA,1961,"StudyProc3","JOL","BlockProc1","Star - ?",25,"sky","recallproc1","recall"
"READ_JOL B",2,1,3,"BlockProc1","Thread - Thimble","B",26,NA,2493,"StudyProc3","JOL","BlockProc1","Thread - ?",26,"strig","recallproc1","recall"
"READ_JOL B",2,1,3,"BlockProc1","Even - Revenge","B",27,NA,3170,"StudyProc3","JOL","BlockProc1","Even - ?",27,"hald","recallproc1","recall"
"READ_JOL B",2,1,3,"BlockProc1","Pop - Balloon","B",28,NA,1872,"StudyProc3","JOL","BlockProc1","Pop - ?",28,"up","recallproc1","recall"
"READ_JOL B",2,1,3,"BlockProc1","Fruit - Strawberry","B",29,NA,1575,"StudyProc3","JOL","BlockProc1","Fruit - ?",29,"salad","recallproc1","recall"
"READ_JOL B",2,1,3,"BlockProc1","Best - Favorite","B",30,NA,1420,"StudyProc3","JOL","BlockProc1","Best - ?",30,"friend","recallproc1","recall"
"READ_JOL B",2,1,3,"BlockProc1","Cat - Panther","B",31,NA,1627,"StudyProc3","JOL","BlockProc1","Cat - ?",31,"dog","recallproc1","recall"
"READ_JOL B",2,1,3,"BlockProc1","Glass - Breakable","B",32,NA,1664,"StudyProc3","JOL","BlockProc1","Glass - ?",32,"ice","recallproc1","recall"
"READ_JOL B",2,1,3,"BlockProc1","Dead - Coffin","B",33,NA,1971,"StudyProc3","JOL","BlockProc1","Dead - ?",33,"gon","recallproc1","recall"
"READ_JOL B",2,1,3,"BlockProc1","Plane - Aircraft","B",34,NA,2169,"StudyProc3","JOL","BlockProc1","Plane - ?",34,"sky","recallproc1","recall"
"READ_JOL B",2,1,3,"BlockProc1","Fish - Sardine","B",35,NA,1606,"StudyProc3","JOL","BlockProc1","Fish - ?",35,"market","recallproc1","recall"
"READ_JOL B",2,1,3,"BlockProc1","Baseball - League","B",36,NA,1971,"StudyProc3","JOL","BlockProc1","Baseball - ?",36,"game","recallproc1","recall"
"READ_JOL B",2,1,3,"BlockProc1","Money - Banker","B",37,NA,1263,"StudyProc3","JOL","BlockProc1","Money - ?",37,"rich","recallproc1","recall"
"READ_JOL B",2,1,3,"BlockProc1","Honest - Truthful","B",38,NA,1050,"StudyProc3","JOL","BlockProc1","Honest - ?",38,"friend","recallproc1","recall"
"READ_JOL B",2,1,3,"BlockProc1","Sleep - Nap","B",39,NA,1702,"StudyProc3","JOL","BlockProc1","Sleep - ?",39,"neeed","recallproc1","recall"
"READ_JOL B",2,1,3,"BlockProc1","Fight - Brawl","B",40,NA,1752,"StudyProc3","JOL","BlockProc1","Fight - ?",40,"winner","recallproc1","recall"
"READ_JOL B",2,1,3,"BlockProc1","Razor - Shave","S",41,100,1651,"StudyProc7","JOL","BlockProc1","Razor - ?",41,"shave","recallproc1","recall"
"READ_JOL B",2,1,3,"BlockProc1","Rights - Equal","S",42,800,2924,"StudyProc7","JOL","BlockProc1","Rights - ?",42,"equal","recallproc1","recall"
"READ_JOL B",2,1,3,"BlockProc1","Mason - Jar","S",43,100,2039,"StudyProc7","JOL","BlockProc1","Mason - ?",43,"jar","recallproc1","recall"
"READ_JOL B",2,1,3,"BlockProc1","Candle - Wax","S",44,99,1829,"StudyProc7","JOL","BlockProc1","Candle - ?",44,"wax","recallproc1","recall"
"READ_JOL B",2,1,3,"BlockProc1","Wrist - Bracelet","S",45,200,3921,"StudyProc7","JOL","BlockProc1","Wrist - ?",45,"band","recallproc1","recall"
"READ_JOL B",2,1,3,"BlockProc1","Element - Carbon","S",46,100,3787,"StudyProc7","JOL","BlockProc1","Element - ?",46,"carbon","recallproc1","recall"
"READ_JOL B",2,1,3,"BlockProc1","Gone - Away","S",47,100,3321,"StudyProc7","JOL","BlockProc1","Gone - ?",47,"bye","recallproc1","recall"
"READ_JOL B",2,1,3,"BlockProc1","Water - Drink","S",48,100,8889,"StudyProc7","JOL","BlockProc1","Water - ?",48,"drink","recallproc1","recall"
"READ_JOL B",2,1,3,"BlockProc1","Earth - Ground","S",49,1,3952,"StudyProc7","JOL","BlockProc1","Earth - ?",49,"gravity","recallproc1","recall"
"READ_JOL B",2,1,3,"BlockProc1","Alone - Lonely","S",50,100,5895,"StudyProc7","JOL","BlockProc1","Alone - ?",50,"lonely","recallproc1","recall"
"READ_JOL B",2,1,3,"BlockProc1","Dry - Wet","S",51,800,1931,"StudyProc7","JOL","BlockProc1","Dry - ?",51,"wet","recallproc1","recall"
"READ_JOL B",2,1,3,"BlockProc1","Safety - Seatbelt","S",52,80,3710,"StudyProc7","JOL","BlockProc1","Safety - ?",52,"seatbelt","recallproc1","recall"
"READ_JOL B",2,1,3,"BlockProc1","Truth - Lie","S",53,20,3676,"StudyProc7","JOL","BlockProc1","Truth - ?",53,"ful","recallproc1","recall"
"READ_JOL B",2,1,3,"BlockProc1","Phone - Communication","S",54,100,1495,"StudyProc7","JOL","BlockProc1","Phone - ?",54,"call","recallproc1","recall"
"READ_JOL B",2,1,3,"BlockProc1","Rod - Reel","S",55,1,2088,"StudyProc7","JOL","BlockProc1","Rod - ?",55,"like","recallproc1","recall"
"READ_JOL B",2,1,3,"BlockProc1","Flea - Tick","S",56,100,4297,"StudyProc7","JOL","BlockProc1","Flea - ?",56,"tick","recallproc1","recall"
"READ_JOL B",2,1,3,"BlockProc1","Loud - Noise","S",57,100,10085,"StudyProc7","JOL","BlockProc1","Loud - ?",57,"noise","recallproc1","recall"
"READ_JOL B",2,1,3,"BlockProc1","Own - Have","S",58,20,3016,"StudyProc7","JOL","BlockProc1","Own - ?",58,"er","recallproc1","recall"
"READ_JOL B",2,1,3,"BlockProc1","Tantrum - Temper","S",59,90,3534,"StudyProc7","JOL","BlockProc1","Tantrum - ?",59,"temper","recallproc1","recall"
"READ_JOL B",2,1,3,"BlockProc1","Sun - Tan","S",60,100,1894,"StudyProc7","JOL","BlockProc1","Sun - ?",60,"light","recallproc1","recall"
"READ_JOL B",2,1,3,"BlockProc1","Justice - Maroon","U",61,10,5965,"StudyProc7","JOL","BlockProc1","Justice - ?",61,"free","recallproc1","recall"
"READ_JOL B",2,1,3,"BlockProc1","Stretch - Cloth","U",62,3,2468,"StudyProc7","JOL","BlockProc1","Stretch - ?",62,"mark","recallproc1","recall"
"READ_JOL B",2,1,3,"BlockProc1","Give - Steak","U",63,20,1984,"StudyProc7","JOL","BlockProc1","Give - ?",63,"me","recallproc1","recall"
"READ_JOL B",2,1,3,"BlockProc1","Maze - Election","U",64,2,4557,"StudyProc7","JOL","BlockProc1","Maze - ?",64,"obstacle","recallproc1","recall"
"READ_JOL B",2,1,3,"BlockProc1","Vehicle - Charm","U",65,20,4233,"StudyProc7","JOL","BlockProc1","Vehicle - ?",65,"mobile","recallproc1","recall"
"READ_JOL B",2,1,3,"BlockProc1","Meat - Obtain","U",66,0,3336,"StudyProc7","JOL","BlockProc1","Meat - ?",66,"steak","recallproc1","recall"
"READ_JOL B",2,1,3,"BlockProc1","Crackle - Able","U",67,10,4370,"StudyProc7","JOL","BlockProc1","Crackle - ?",67,"po","recallproc1","recall"
"READ_JOL B",2,1,3,"BlockProc1","Shell - Shake","U",68,20,1286,"StudyProc7","JOL","BlockProc1","Shell - ?",68,"hard","recallproc1","recall"
