ExperimentName,Subject,Block,list,Procedure[Block],cue_target,Direction,ListNum,pword3.RESP,pword3.RT,pword5.RESP,pword5.RT,Rword1.RESP,Rword1.RT,Rword2.RESP,pword8.RESP,pword8.RT,pword9.RESP,pword9.RT,pword10.RESP,pword10.RT,Procedure[Trial]
IS_JOL A,17,1,,BlockProc1,Chime-Music,,8,,,,,,,,,,,,,,Practice1
IS_JOL A,17,1,,BlockProc1,Paddle-Row,,4,,,,,,,,,,,,,,Practice1
IS_JOL A,17,1,,BlockProc1,Chocolate-Bar,,7,,,,,,,,,,,,,,Practice1
IS_JOL A,17,1,,BlockProc1,Fashion-Model,,10,,,,,,,,,,,,,,Practice1
IS_JOL A,17,1,,BlockProc1,Disbelieve-Skeptic,,6,,,,,,,,,,,,,,Practice1
IS_JOL A,17,1,,BlockProc1,Ham-Bone,,3,,,,,,,,,,,,,,Practice1
IS_JOL A,17,1,,BlockProc1,Deaf-Mute,,2,,,,,,,,,,,,,,Practice1
IS_JOL A,17,1,,BlockProc1,Aardvark-Zoo,,1,,,,,,,,,,,,,,Practice1
IS_JOL A,17,1,,BlockProc1,Behavior-Social,,9,,,,,,,,,,,,,,Practice1
IS_JOL A,17,1,,BlockProc1,Hinge-Swing,,5,,,,,,,,,,,,,,Practice1
IS_JOL A,17,1,3,BlockProc1,Curtain - Drapes,,2,,,,,,,,,,,,,,StudyProc1
IS_JOL A,17,1,3,BlockProc1,Snow - Ice,,3,,,,,,,,,,,,,,StudyProc1
IS_JOL A,17,1,3,BlockProc1,Haircut-Scissors,,1,,,,,,,,,,,,,,StudyProc1
IS_JOL A,17,1,3,BlockProc1,Member - Group,,5,,,,,,,,,,,,,,StudyProc1
IS_JOL A,17,1,3,BlockProc1,Shrimp - Fish,,4,,,,,,,,,,,,,,StudyProc1
IS_JOL A,17,1,3,BlockProc1,Choice - Decision,S,57,40,25622,,,,,,,,,,,,StudyProc3
IS_JOL A,17,1,3,BlockProc1,Happy - Car,U,72,10,17420,,,,,,,,,,,,StudyProc3
IS_JOL A,17,1,3,BlockProc1,Cash - Would,U,78,10,17865,,,,,,,,,,,,StudyProc3
IS_JOL A,17,1,3,BlockProc1,Sugar - Riddle,U,76,10,17012,,,,,,,,,,,,StudyProc3
IS_JOL A,17,1,3,BlockProc1,Honey - Bee,S,58,90,23547,,,,,,,,,,,,StudyProc3
IS_JOL A,17,1,3,BlockProc1,Number - Amount,S,42,90,13085,,,,,,,,,,,,StudyProc3
IS_JOL A,17,1,3,BlockProc1,Location - Site,S,43,80,17140,,,,,,,,,,,,StudyProc3
IS_JOL A,17,1,3,BlockProc1,Dump - Waste,S,44,80,20069,,,,,,,,,,,,StudyProc3
IS_JOL A,17,1,3,BlockProc1,Bathroom - Toilet,S,53,80,13886,,,,,,,,,,,,StudyProc3
IS_JOL A,17,1,3,BlockProc1,Wine - Cheese,S,52,80,13988,,,,,,,,,,,,StudyProc3
IS_JOL A,17,1,3,BlockProc1,Architecture - Design,S,46,70,26790,,,,,,,,,,,,StudyProc3
IS_JOL A,17,1,3,BlockProc1,Baby - Child,S,59,80,15148,,,,,,,,,,,,StudyProc3
IS_JOL A,17,1,3,BlockProc1,Artery - Bronze,U,69,10,14359,,,,,,,,,,,,StudyProc3
IS_JOL A,17,1,3,BlockProc1,Machine - Position,U,71,50,27010,,,,,,,,,,,,StudyProc3
IS_JOL A,17,1,3,BlockProc1,Valley - Add,U,77,20,8087,,,,,,,,,,,,StudyProc3
IS_JOL A,17,1,3,BlockProc1,Pusher - Clutter,U,61,20,8875,,,,,,,,,,,,StudyProc3
IS_JOL A,17,1,3,BlockProc1,Lettuce - Salad,S,54,80,12239,,,,,,,,,,,,StudyProc3
IS_JOL A,17,1,3,BlockProc1,Allow - Tuck,U,73,20,6273,,,,,,,,,,,,StudyProc3
IS_JOL A,17,1,3,BlockProc1,Dietary - Sacking,U,62,10,10295,,,,,,,,,,,,StudyProc3
IS_JOL A,17,1,3,BlockProc1,Art - Lion,U,74,20,12464,,,,,,,,,,,,StudyProc3
IS_JOL A,17,1,3,BlockProc1,Debate - Sight,U,68,10,12456,,,,,,,,,,,,StudyProc3
IS_JOL A,17,1,3,BlockProc1,King - Vase,U,80,10,6745,,,,,,,,,,,,StudyProc3
IS_JOL A,17,1,3,BlockProc1,Begin - End,S,49,100,7052,,,,,,,,,,,,StudyProc3
IS_JOL A,17,1,3,BlockProc1,Blow - Wind,S,50,100,8946,,,,,,,,,,,,StudyProc3
IS_JOL A,17,1,3,BlockProc1,Kidney - Liver,S,48,100,17595,,,,,,,,,,,,StudyProc3
IS_JOL A,17,1,3,BlockProc1,Hide - Sick,U,79,80,18753,,,,,,,,,,,,StudyProc3
IS_JOL A,17,1,3,BlockProc1,Shoe - Foot,S,55,100,10744,,,,,,,,,,,,StudyProc3
IS_JOL A,17,1,3,BlockProc1,Circle - Round,S,60,100,7864,,,,,,,,,,,,StudyProc3
IS_JOL A,17,1,3,BlockProc1,Death - Business,U,67,30,21004,,,,,,,,,,,,StudyProc3
IS_JOL A,17,1,3,BlockProc1,Lift - Woman,U,64,20,7263,,,,,,,,,,,,StudyProc3
IS_JOL A,17,1,3,BlockProc1,Trial - Jury,S,45,100,12436,,,,,,,,,,,,StudyProc3
IS_JOL A,17,1,3,BlockProc1,Soon - Belt,U,65,10,9325,,,,,,,,,,,,StudyProc3
IS_JOL A,17,1,3,BlockProc1,Discover - Floor,U,66,10,11447,,,,,,,,,,,,StudyProc3
IS_JOL A,17,1,3,BlockProc1,Grill - Bar,S,47,100,12770,,,,,,,,,,,,StudyProc3
IS_JOL A,17,1,3,BlockProc1,Past - Future,S,56,100,5980,,,,,,,,,,,,StudyProc3
IS_JOL A,17,1,3,BlockProc1,Strong - Accident,U,75,10,11502,,,,,,,,,,,,StudyProc3
IS_JOL A,17,1,3,BlockProc1,Fix - Hand,U,70,80,12022,,,,,,,,,,,,StudyProc3
IS_JOL A,17,1,3,BlockProc1,Park - Hungry,U,63,70,10217,,,,,,,,,,,,StudyProc3
IS_JOL A,17,1,3,BlockProc1,Pop - Soda,S,51,100,10909,,,,,,,,,,,,StudyProc3
IS_JOL A,17,1,3,BlockProc1,Due - Assignment,S,41,100,10966,,,,,,,,,,,,StudyProc3
IS_JOL A,17,1,3,BlockProc1,Editor - News,F,5,,,,,,,,,,100,19676,,,StudyProc7
IS_JOL A,17,1,3,BlockProc1,Sleep - Drowsy,B,36,,,,,,,,,,100,18805,,,StudyProc7
IS_JOL A,17,1,3,BlockProc1,Credit - Card,F,18,,,,,,,,,,80,26497,,,StudyProc7
IS_JOL A,17,1,3,BlockProc1,Hornet - Sting,F,6,,,,,,,,,,70,18835,,,StudyProc7
IS_JOL A,17,1,3,BlockProc1,Height - Growth,B,25,,,,,,,,,,80,13615,,,StudyProc7
IS_JOL A,17,1,3,BlockProc1,Plane - Pilot,B,39,,,,,,,,,,100,17888,,,StudyProc7
IS_JOL A,17,1,3,BlockProc1,Tuna - Fish,F,20,,,,,,,,,,100,11330,,,StudyProc7
IS_JOL A,17,1,3,BlockProc1,Take - Seize,B,24,,,,,,,,,,70,20777,,,StudyProc7
IS_JOL A,17,1,3,BlockProc1,Hygiene - Clean,F,12,,,,,,,,,,70,19708,,,StudyProc7
IS_JOL A,17,1,3,BlockProc1,Geology - Rock,F,14,,,,,,,,,,80,17540,,,StudyProc7
IS_JOL A,17,1,3,BlockProc1,Smell - Stench,B,37,,,,,,,,,,90,10957,,,StudyProc7
IS_JOL A,17,1,3,BlockProc1,Sentence - Word,B,26,,,,,,,,,,100,8051,,,StudyProc7
IS_JOL A,17,1,3,BlockProc1,Drink - Sip,B,22,,,,,,,,,,90,15520,,,StudyProc7
IS_JOL A,17,1,3,BlockProc1,Chisel - Hammer,F,4,,,,,,,,,,100,21123,,,StudyProc7
IS_JOL A,17,1,3,BlockProc1,Math - Division,B,28,,,,,,,,,,90,10313,,,StudyProc7
IS_JOL A,17,1,3,BlockProc1,Ball - Racket,B,33,,,,,,,,,,90,14041,,,StudyProc7
IS_JOL A,17,1,3,BlockProc1,Fire - Blaze,B,40,,,,,,,,,,90,12137,,,StudyProc7
IS_JOL A,17,1,3,BlockProc1,Discussion - Talk,F,16,,,,,,,,,,90,17143,,,StudyProc7
IS_JOL A,17,1,3,BlockProc1,Great - Fantastic,B,30,,,,,,,,,,100,11176,,,StudyProc7
IS_JOL A,17,1,3,BlockProc1,Swan - Bird,F,9,,,,,,,,,,100,8365,,,StudyProc7
IS_JOL A,17,1,3,BlockProc1,Full - Enough,B,21,,,,,,,,,,100,11494,,,StudyProc7
IS_JOL A,17,1,3,BlockProc1,Root - Plant,F,8,,,,,,,,,,40,25990,,,StudyProc7
IS_JOL A,17,1,3,BlockProc1,Delinquent - Bad,F,1,,,,,,,,,,60,17669,,,StudyProc7
IS_JOL A,17,1,3,BlockProc1,Wage - Money,F,3,,,,,,,,,,90,14024,,,StudyProc7
IS_JOL A,17,1,3,BlockProc1,Bridge - Water,F,13,,,,,,,,,,90,11665,,,StudyProc7
IS_JOL A,17,1,3,BlockProc1,Hot - Chili,B,32,,,,,,,,,,90,15122,,,StudyProc7
IS_JOL A,17,1,3,BlockProc1,Way - Out,F,11,,,,,,,,,,100,14645,,,StudyProc7
IS_JOL A,17,1,3,BlockProc1,Dark - Cave,B,23,,,,,,,,,,100,13925,,,StudyProc7
IS_JOL A,17,1,3,BlockProc1,Orchid - Flower,F,19,,,,,,,,,,80,17953,,,StudyProc7
IS_JOL A,17,1,3,BlockProc1,Work - Chore,B,34,,,,,,,,,,100,6001,,,StudyProc7
IS_JOL A,17,1,3,BlockProc1,Revolution - War,F,15,,,,,,,,,,100,8050,,,StudyProc7
IS_JOL A,17,1,3,BlockProc1,Key - Latch,B,31,,,,,,,,,,70,10359,,,StudyProc7
IS_JOL A,17,1,3,BlockProc1,Herd - Cow,F,17,,,,,,,,,,100,8926,,,StudyProc7
IS_JOL A,17,1,3,BlockProc1,Hunger - Famine,B,35,,,,,,,,,,100,9928,,,StudyProc7
IS_JOL A,17,1,3,BlockProc1,Bug - Wasp,B,27,,,,,,,,,,100,9192,,,StudyProc7
IS_JOL A,17,1,3,BlockProc1,Law - Attorney,B,29,,,,,,,,,,100,23223,,,StudyProc7
IS_JOL A,17,1,3,BlockProc1,Paw - Dog,F,10,,,,,,,,,,100,8951,,,StudyProc7
IS_JOL A,17,1,3,BlockProc1,Clothes - Attire,B,38,,,,,,,,,,70,12400,,,StudyProc7
IS_JOL A,17,1,3,BlockProc1,Bitter - Cold,F,7,,,,,,,,,,70,19490,,,StudyProc7
IS_JOL A,17,1,3,BlockProc1,Digestion - Stomach,F,2,,,,,,,,,,50,26082,,,StudyProc7
IS_JOL A,17,1,3,BlockProc1,Catcher - Baseball,,4,,,,,,,,,,,,,,StudyProc2
IS_JOL A,17,1,3,BlockProc1,Geese - Goose,,1,,,,,,,,,,,,,,StudyProc2
IS_JOL A,17,1,3,BlockProc1,Trees - Green,,5,,,,,,,,,,,,,,StudyProc2
IS_JOL A,17,1,3,BlockProc1,Friendliness - Nice,,3,,,,,,,,,,,,,,StudyProc2
IS_JOL A,17,1,3,BlockProc1,Grab - Take,,2,,,,,,,,,,,,,,StudyProc2
IS_JOL A,17,1,3,BlockProc1,Location - ?,,43,,,,,site,5286,,,,,,,,recallproc1
IS_JOL A,17,1,3,BlockProc1,Bathroom - ?,,53,,,,,toilet,5845,,,,,,,,recallproc1
IS_JOL A,17,1,3,BlockProc1,Choice - ?,,57,,,,,decion,3668,,,,,,,,recallproc1
IS_JOL A,17,1,3,BlockProc1,Height - ?,,25,,,,,growth,6029,,,,,,,,recallproc1
IS_JOL A,17,1,3,BlockProc1,Take - ?,,24,,,,,grab,7765,,,,,,,,recallproc1
IS_JOL A,17,1,3,BlockProc1,Begin - ?,,49,,,,,end,5774,,,,,,,,recallproc1
IS_JOL A,17,1,3,BlockProc1,Hide - ?,,79,,,,,conceal,16632,,,,,,,,recallproc1
IS_JOL A,17,1,3,BlockProc1,Past - ?,,56,,,,,future,5207,,,,,,,,recallproc1
IS_JOL A,17,1,3,BlockProc1,Discover - ?,,66,,,,,acknowledge,9296,,,,,,,,recallproc1
IS_JOL A,17,1,3,BlockProc1,Editor - ?,,5,,,,,news,3666,,,,,,,,recallproc1
IS_JOL A,17,1,3,BlockProc1,Blow - ?,,50,,,,,wind,2771,,,,,,,,recallproc1
IS_JOL A,17,1,3,BlockProc1,Lift - ?,,64,,,,,raise,8728,,,,,,,,recallproc1
IS_JOL A,17,1,3,BlockProc1,Drink - ?,,22,,,,,sip,2113,,,,,,,,recallproc1
IS_JOL A,17,1,3,BlockProc1,Wage - ?,,3,,,,,money,3202,,,,,,,,recallproc1
IS_JOL A,17,1,3,BlockProc1,Architecture - ?,,46,,,,,design,3678,,,,,,,,recallproc1
IS_JOL A,17,1,3,BlockProc1,Dietary - ?,,62,,,,,hunger,11670,,,,,,,,recallproc1
IS_JOL A,17,1,3,BlockProc1,Due - ?,,41,,,,,deliquent,11583,,,,,,,,recallproc1
IS_JOL A,17,1,3,BlockProc1,Paw - ?,,10,,,,,dog,1828,,,,,,,,recallproc1
IS_JOL A,17,1,3,BlockProc1,Way - ?,,11,,,,,location,3728,,,,,,,,recallproc1
IS_JOL A,17,1,3,BlockProc1,Digestion - ?,,2,,,,,stomach,3126,,,,,,,,recallproc1
IS_JOL A,17,1,3,BlockProc1,Death - ?,,67,,,,,attorney,27949,,,,,,,,recallproc1
IS_JOL A,17,1,3,BlockProc1,Dark - ?,,23,,,,,cave,8883,,,,,,,,recallproc1
IS_JOL A,17,1,3,BlockProc1,Fire - ?,,40,,,,,blaze,2830,,,,,,,,recallproc1
IS_JOL A,17,1,3,BlockProc1,Dump - ?,,44,,,,,waste,3305,,,,,,,,recallproc1
IS_JOL A,17,1,3,BlockProc1,Smell - ?,,37,,,,,stench,2609,,,,,,,,recallproc1
IS_JOL A,17,1,3,BlockProc1,Artery - ?,,69,,,,,would,7525,,,,,,,,recallproc1
IS_JOL A,17,1,3,BlockProc1,Honey - ?,,58,,,,,bee,2336,,,,,,,,recallproc1
IS_JOL A,17,1,3,BlockProc1,Happy - ?,,72,,,,,day,11080,,,,,,,,recallproc1
IS_JOL A,17,1,3,BlockProc1,Sleep - ?,,36,,,,,drowsy,7249,,,,,,,,recallproc1
IS_JOL A,17,1,3,BlockProc1,Hunger - ?,,35,,,,,famine,2367,,,,,,,,recallproc1
IS_JOL A,17,1,3,BlockProc1,Cash - ?,,78,,,,,wage,1965,,,,,,,,recallproc1
IS_JOL A,17,1,3,BlockProc1,Work - ?,,34,,,,,chore,4300,,,,,,,,recallproc1
IS_JOL A,17,1,3,BlockProc1,Number - ?,,42,,,,,letter,12211,,,,,,,,recallproc1
IS_JOL A,17,1,3,BlockProc1,Sentence - ?,,26,,,,,word,2190,,,,,,,,recallproc1
IS_JOL A,17,1,3,BlockProc1,Key - ?,,31,,,,,latch,2571,,,,,,,,recallproc1
IS_JOL A,17,1,3,BlockProc1,Trial - ?,,45,,,,,jury,2200,,,,,,,,recallproc1
IS_JOL A,17,1,3,BlockProc1,Kidney - ?,,48,,,,,liver,1965,,,,,,,,recallproc1
IS_JOL A,17,1,3,BlockProc1,Wine - ?,,52,,,,,sip,10276,,,,,,,,recallproc1
IS_JOL A,17,1,3,BlockProc1,Shoe - ?,,55,,,,,foot,2078,,,,,,,,recallproc1
IS_JOL A,17,1,3,BlockProc1,Hygiene - ?,,12,,,,,clean,4672,,,,,,,,recallproc1
IS_JOL A,17,1,3,BlockProc1,Credit - ?,,18,,,,,card,2376,,,,,,,,recallproc1
IS_JOL A,17,1,3,BlockProc1,Bug - ?,,27,,,,,ant,7541,,,,,,,,recallproc1
IS_JOL A,17,1,3,BlockProc1,Root - ?,,8,,,,,plant,9992,,,,,,,,recallproc1
IS_JOL A,17,1,3,BlockProc1,Law - ?,,29,,,,,attorney,4070,,,,,,,,recallproc1
IS_JOL A,17,1,3,BlockProc1,Pop - ?,,51,,,,,soda,3006,,,,,,,,recallproc1
IS_JOL A,17,1,3,BlockProc1,Geology - ?,,14,,,,,rock,2434,,,,,,,,recallproc1
IS_JOL A,17,1,3,BlockProc1,Pusher - ?,,61,,,,,drink,10998,,,,,,,,recallproc1
IS_JOL A,17,1,3,BlockProc1,Clothes - ?,,38,,,,,attire,2698,,,,,,,,recallproc1
IS_JOL A,17,1,3,BlockProc1,Full - ?,,21,,,,,enough,3843,,,,,,,,recallproc1
IS_JOL A,17,1,3,BlockProc1,Allow - ?,,73,,,,,permission,12540,,,,,,,,recallproc1
IS_JOL A,17,1,3,BlockProc1,Machine - ?,,71,,,,,position,6281,,,,,,,,recallproc1
IS_JOL A,17,1,3,BlockProc1,Orchid - ?,,19,,,,,flower,3895,,,,,,,,recallproc1
IS_JOL A,17,1,3,BlockProc1,Grill - ?,,47,,,,,bar,2303,,,,,,,,recallproc1
IS_JOL A,17,1,3,BlockProc1,Revolution - ?,,15,,,,,war,4664,,,,,,,,recallproc1
IS_JOL A,17,1,3,BlockProc1,Art - ?,,74,,,,,painting,11240,,,,,,,,recallproc1
IS_JOL A,17,1,3,BlockProc1,Bridge - ?,,13,,,,,water,2770,,,,,,,,recallproc1
IS_JOL A,17,1,3,BlockProc1,Tuna - ?,,20,,,,,fish,1784,,,,,,,,recallproc1
IS_JOL A,17,1,3,BlockProc1,Park - ?,,63,,,,,hunger,7062,,,,,,,,recallproc1
IS_JOL A,17,1,3,BlockProc1,Fix - ?,,70,,,,,destroy,17091,,,,,,,,recallproc1
IS_JOL A,17,1,3,BlockProc1,Debate - ?,,68,,,,,talk,4213,,,,,,,,recallproc1
IS_JOL A,17,1,3,BlockProc1,King - ?,,80,,,,,ruler,4297,,,,,,,,recallproc1
IS_JOL A,17,1,3,BlockProc1,Swan - ?,,9,,,,,bird,3832,,,,,,,,recallproc1
IS_JOL A,17,1,3,BlockProc1,Circle - ?,,60,,,,,round,2265,,,,,,,,recallproc1
IS_JOL A,17,1,3,BlockProc1,Valley - ?,,77,,,,,mountain,5204,,,,,,,,recallproc1
IS_JOL A,17,1,3,BlockProc1,Bitter - ?,,7,,,,,hard,9637,,,,,,,,recallproc1
IS_JOL A,17,1,3,BlockProc1,Hot - ?,,32,,,,,chili,2026,,,,,,,,recallproc1
IS_JOL A,17,1,3,BlockProc1,Math - ?,,28,,,,,algebra,8646,,,,,,,,recallproc1
IS_JOL A,17,1,3,BlockProc1,Chisel - ?,,4,,,,,hammer,2298,,,,,,,,recallproc1
IS_JOL A,17,1,3,BlockProc1,Baby - ?,,59,,,,,child,2499,,,,,,,,recallproc1
IS_JOL A,17,1,3,BlockProc1,Discussion - ?,,16,,,,,talk,4972,,,,,,,,recallproc1
IS_JOL A,17,1,3,BlockProc1,Plane - ?,,39,,,,,piolet,14568,,,,,,,,recallproc1
IS_JOL A,17,1,3,BlockProc1,Soon - ?,,65,,,,,end,1881,,,,,,,,recallproc1
IS_JOL A,17,1,3,BlockProc1,Delinquent - ?,,1,,,,,behind,6260,,,,,,,,recallproc1
IS_JOL A,17,1,3,BlockProc1,Ball - ?,,33,,,,,round,3899,,,,,,,,recallproc1
IS_JOL A,17,1,3,BlockProc1,Hornet - ?,,6,,,,,sting,3689,,,,,,,,recallproc1
IS_JOL A,17,1,3,BlockProc1,Herd - ?,,17,,,,,cow,2154,,,,,,,,recallproc1
IS_JOL A,17,1,3,BlockProc1,Strong - ?,,75,,,,,weak,22495,,,,,,,,recallproc1
IS_JOL A,17,1,3,BlockProc1,Great - ?,,30,,,,,fantastic,4261,,,,,,,,recallproc1
IS_JOL A,17,1,3,BlockProc1,Lettuce - ?,,54,,,,,salad,4189,,,,,,,,recallproc1
IS_JOL A,17,1,3,BlockProc1,Sugar - ?,,76,,,,,sweet,4368,,,,,,,,recallproc1
IS_JOL A,17,2,3,BlockProc2,Malt - Chocolate,,5,,,,,,,,,,,,,,StudyProc4
IS_JOL A,17,2,3,BlockProc2,Disintegrate - Disappear,,3,,,,,,,,,,,,,,StudyProc4
IS_JOL A,17,2,3,BlockProc2,Hide - Scare,,2,,,,,,,,,,,,,,StudyProc4
IS_JOL A,17,2,3,BlockProc2,Essay - Write,,4,,,,,,,,,,,,,,StudyProc4
IS_JOL A,17,2,3,BlockProc2,Sheriff - Police,,1,,,,,,,,,,,,,,StudyProc4
IS_JOL A,17,2,3,BlockProc2,Fuzzy - Bang,U,73,,,,,,,,,,,,30,17011,StudyProc8
IS_JOL A,17,2,3,BlockProc2,Earth - Ground,S,49,,,,,,,,,,,,80,10370,StudyProc8
IS_JOL A,17,2,3,BlockProc2,Own - Have,S,58,,,,,,,,,,,,90,7864,StudyProc8
IS_JOL A,17,2,3,BlockProc2,Sun - Tan,S,60,,,,,,,,,,,,80,10669,StudyProc8
IS_JOL A,17,2,3,BlockProc2,Rights - Equal,S,42,,,,,,,,,,,,80,12607,StudyProc8
IS_JOL A,17,2,3,BlockProc2,Phone - Communicatio,S,54,,,,,,,,,,,,90,13801,StudyProc8
IS_JOL A,17,2,3,BlockProc2,Gone - Away,S,47,,,,,,,,,,,,70,12499,StudyProc8
IS_JOL A,17,2,3,BlockProc2,Meat - Obtain,U,66,,,,,,,,,,,,30,24258,StudyProc8
IS_JOL A,17,2,3,BlockProc2,Tantrum - Temper,S,59,,,,,,,,,,,,100,10647,StudyProc8
IS_JOL A,17,2,3,BlockProc2,Truth - Lie,S,53,,,,,,,,,,,,100,5154,StudyProc8
IS_JOL A,17,2,3,BlockProc2,Element - Carbon,S,46,,,,,,,,,,,,100,6878,StudyProc8
IS_JOL A,17,2,3,BlockProc2,Maze - Election,U,64,,,,,,,,,,,,80,34363,StudyProc8
IS_JOL A,17,2,3,BlockProc2,Candle - Wax,S,44,,,,,,,,,,,,80,13675,StudyProc8
IS_JOL A,17,2,3,BlockProc2,Give - Steak,U,63,,,,,,,,,,,,60,27098,StudyProc8
IS_JOL A,17,2,3,BlockProc2,Rod - Reel,S,55,,,,,,,,,,,,60,12379,StudyProc8
IS_JOL A,17,2,3,BlockProc2,Vehicle - Charm,U,65,,,,,,,,,,,,50,24383,StudyProc8
IS_JOL A,17,2,3,BlockProc2,Safety - Seatbelt,S,52,,,,,,,,,,,,80,12543,StudyProc8
IS_JOL A,17,2,3,BlockProc2,Moat - Clear,U,74,,,,,,,,,,,,40,8493,StudyProc8
IS_JOL A,17,2,3,BlockProc2,Shell - Shake,U,68,,,,,,,,,,,,50,15143,StudyProc8
IS_JOL A,17,2,3,BlockProc2,Flea - Tick,S,56,,,,,,,,,,,,90,9498,StudyProc8
IS_JOL A,17,2,3,BlockProc2,Loan - Sign,U,76,,,,,,,,,,,,80,12268,StudyProc8
IS_JOL A,17,2,3,BlockProc2,Keys - Joke,U,70,,,,,,,,,,,,30,13077,StudyProc8
IS_JOL A,17,2,3,BlockProc2,Loud - Noise,S,57,,,,,,,,,,,,90,7604,StudyProc8
IS_JOL A,17,2,3,BlockProc2,Mason - Jar,S,43,,,,,,,,,,,,100,15804,StudyProc8
IS_JOL A,17,2,3,BlockProc2,Name - Hate,U,72,,,,,,,,,,,,80,13907,StudyProc8
IS_JOL A,17,2,3,BlockProc2,Justice - Maroon,U,61,,,,,,,,,,,,90,17625,StudyProc8
IS_JOL A,17,2,3,BlockProc2,Both - Ounce,U,77,,,,,,,,,,,,60,14318,StudyProc8
IS_JOL A,17,2,3,BlockProc2,Mirror - Children,U,79,,,,,,,,,,,,90,9602,StudyProc8
IS_JOL A,17,2,3,BlockProc2,Crackle - Able,U,67,,,,,,,,,,,,20,9952,StudyProc8
IS_JOL A,17,2,3,BlockProc2,Main - Scar,U,80,,,,,,,,,,,,80,10798,StudyProc8
IS_JOL A,17,2,3,BlockProc2,Lease - Toil,U,75,,,,,,,,,,,,10,12188,StudyProc8
IS_JOL A,17,2,3,BlockProc2,Stretch - Cloth,U,62,,,,,,,,,,,,80,8048,StudyProc8
IS_JOL A,17,2,3,BlockProc2,Cake - Clothes,U,71,,,,,,,,,,,,30,10557,StudyProc8
IS_JOL A,17,2,3,BlockProc2,Wrist - Bracelet,S,45,,,,,,,,,,,,100,10252,StudyProc8
IS_JOL A,17,2,3,BlockProc2,Razor - Shave,S,41,,,,,,,,,,,,70,12247,StudyProc8
IS_JOL A,17,2,3,BlockProc2,Water - Drink,S,48,,,,,,,,,,,,90,9767,StudyProc8
IS_JOL A,17,2,3,BlockProc2,Temperature - Morning,U,78,,,,,,,,,,,,80,19182,StudyProc8
IS_JOL A,17,2,3,BlockProc2,Alone - Lonely,S,50,,,,,,,,,,,,80,13707,StudyProc8
IS_JOL A,17,2,3,BlockProc2,Listen - Fiction,U,69,,,,,,,,,,,,80,14961,StudyProc8
IS_JOL A,17,2,3,BlockProc2,Dry - Wet,S,51,,,,,,,,,,,,100,4283,StudyProc8
IS_JOL A,17,2,3,BlockProc2,Shears - Scissors,F,17,,,100,9431,,,,,,,,,,StudyProc5
IS_JOL A,17,2,3,BlockProc2,Mule - Donkey,F,13,,,80,18524,,,,,,,,,,StudyProc5
IS_JOL A,17,2,3,BlockProc2,Thread - Thimble,B,26,,,20,9292,,,,,,,,,,StudyProc5
IS_JOL A,17,2,3,BlockProc2,Cactus - Plant,F,3,,,90,15911,,,,,,,,,,StudyProc5
IS_JOL A,17,2,3,BlockProc2,Adjourn - End,F,6,,,70,13690,,,,,,,,,,StudyProc5
IS_JOL A,17,2,3,BlockProc2,Dine - Eat,F,16,,,80,8928,,,,,,,,,,StudyProc5
IS_JOL A,17,2,3,BlockProc2,Bad - Villain,B,23,,,80,14033,,,,,,,,,,StudyProc5
IS_JOL A,17,2,3,BlockProc2,Document - Paper,F,14,,,80,13193,,,,,,,,,,StudyProc5
IS_JOL A,17,2,3,BlockProc2,Chill - Cold,F,19,,,70,9148,,,,,,,,,,StudyProc5
IS_JOL A,17,2,3,BlockProc2,Litter - Trash,F,8,,,70,14956,,,,,,,,,,StudyProc5
IS_JOL A,17,2,3,BlockProc2,Best - Favorite,B,30,,,100,15847,,,,,,,,,,StudyProc5
IS_JOL A,17,2,3,BlockProc2,Cat - Panther,B,31,,,100,10085,,,,,,,,,,StudyProc5
IS_JOL A,17,2,3,BlockProc2,Fight - Brawl,B,40,,,90,8471,,,,,,,,,,StudyProc5
IS_JOL A,17,2,3,BlockProc2,Honest - Truthful,B,38,,,80,26387,,,,,,,,,,StudyProc5
IS_JOL A,17,2,3,BlockProc2,Glass - Breakable,B,32,,,80,7801,,,,,,,,,,StudyProc5
IS_JOL A,17,2,3,BlockProc2,Turn - Flip,B,21,,,80,12089,,,,,,,,,,StudyProc5
IS_JOL A,17,2,3,BlockProc2,Furry - Dog,F,7,,,90,5337,,,,,,,,,,StudyProc5
IS_JOL A,17,2,3,BlockProc2,Even - Revenge,B,27,,,80,24237,,,,,,,,,,StudyProc5
IS_JOL A,17,2,3,BlockProc2,Fruit - Strawberry,B,29,,,90,8068,,,,,,,,,,StudyProc5
IS_JOL A,17,2,3,BlockProc2,Chop - Cut,F,12,,,90,11752,,,,,,,,,,StudyProc5
IS_JOL A,17,2,3,BlockProc2,Feud - Fight,F,18,,,80,11814,,,,,,,,,,StudyProc5
IS_JOL A,17,2,3,BlockProc2,Car - Windshield,B,22,,,60,25801,,,,,,,,,,StudyProc5
IS_JOL A,17,2,3,BlockProc2,Money - Banker,B,37,,,70,10607,,,,,,,,,,StudyProc5
IS_JOL A,17,2,3,BlockProc2,Incense - Smell,F,15,,,50,18476,,,,,,,,,,StudyProc5
IS_JOL A,17,2,3,BlockProc2,Shoelace - Tie,F,4,,,80,7486,,,,,,,,,,StudyProc5
IS_JOL A,17,2,3,BlockProc2,Clue - Game,F,2,,,80,8739,,,,,,,,,,StudyProc5
IS_JOL A,17,2,3,BlockProc2,Driver - Car,F,11,,,80,20364,,,,,,,,,,StudyProc5
IS_JOL A,17,2,3,BlockProc2,Dead - Coffin,B,33,,,80,11993,,,,,,,,,,StudyProc5
IS_JOL A,17,2,3,BlockProc2,Extension - Long,F,1,,,90,7237,,,,,,,,,,StudyProc5
IS_JOL A,17,2,3,BlockProc2,Affection - Love,F,20,,,90,14340,,,,,,,,,,StudyProc5
IS_JOL A,17,2,3,BlockProc2,Bird - Penguin,B,24,,,90,7111,,,,,,,,,,StudyProc5
IS_JOL A,17,2,3,BlockProc2,Scalp - Head,F,10,,,80,9875,,,,,,,,,,StudyProc5
IS_JOL A,17,2,3,BlockProc2,Detective - Mystery,F,5,,,70,11062,,,,,,,,,,StudyProc5
IS_JOL A,17,2,3,BlockProc2,Pop - Balloon,B,28,,,70,8720,,,,,,,,,,StudyProc5
IS_JOL A,17,2,3,BlockProc2,Sleep - Nap,B,39,,,90,5498,,,,,,,,,,StudyProc5
IS_JOL A,17,2,3,BlockProc2,Fish - Sardine,B,35,,,100,6824,,,,,,,,,,StudyProc5
IS_JOL A,17,2,3,BlockProc2,Baseball - League,B,36,,,100,7576,,,,,,,,,,StudyProc5
IS_JOL A,17,2,3,BlockProc2,Cherry - Red,F,9,,,70,18600,,,,,,,,,,StudyProc5
IS_JOL A,17,2,3,BlockProc2,Plane - Aircraft,B,34,,,100,6333,,,,,,,,,,StudyProc5
IS_JOL A,17,2,3,BlockProc2,Star - Actress,B,25,,,100,8121,,,,,,,,,,StudyProc5
IS_JOL A,17,2,3,BlockProc2,Deciet - Cheat,,1,,,,,,,,,,,,,,StudyProc6
IS_JOL A,17,2,3,BlockProc2,Contest - Competition,,5,,,,,,,,,,,,,,StudyProc6
IS_JOL A,17,2,3,BlockProc2,Mind - Matter,,2,,,,,,,,,,,,,,StudyProc6
IS_JOL A,17,2,3,BlockProc2,Magician - Magic,,4,,,,,,,,,,,,,,StudyProc6
IS_JOL A,17,2,3,BlockProc2,Deaf - Hear,,3,,,,,,,,,,,,,,StudyProc6
IS_JOL A,17,2,3,BlockProc2,Dine - ?,,16,,,,,,,resturant,,,,,,,recallproc2
IS_JOL A,17,2,3,BlockProc2,Moat - ?,,74,,,,,,,river,,,,,,,recallproc2
IS_JOL A,17,2,3,BlockProc2,Give - ?,,63,,,,,,,take,,,,,,,recallproc2
IS_JOL A,17,2,3,BlockProc2,Truth - ?,,53,,,,,,,lie,,,,,,,recallproc2
IS_JOL A,17,2,3,BlockProc2,Shoelace - ?,,4,,,,,,,tie,,,,,,,recallproc2
IS_JOL A,17,2,3,BlockProc2,Sleep - ?,,39,,,,,,,nap,,,,,,,recallproc2
IS_JOL A,17,2,3,BlockProc2,Candle - ?,,44,,,,,,,wax,,,,,,,recallproc2
IS_JOL A,17,2,3,BlockProc2,Fish - ?,,35,,,,,,,sardine,,,,,,,recallproc2
IS_JOL A,17,2,3,BlockProc2,Stretch - ?,,62,,,,,,,jeans,,,,,,,recallproc2
IS_JOL A,17,2,3,BlockProc2,Car - ?,,22,,,,,,,windshield,,,,,,,recallproc2
IS_JOL A,17,2,3,BlockProc2,Thread - ?,,26,,,,,,,thimble,,,,,,,recallproc2
IS_JOL A,17,2,3,BlockProc2,Alone - ?,,50,,,,,,,lonely,,,,,,,recallproc2
IS_JOL A,17,2,3,BlockProc2,Affection - ?,,20,,,,,,,love,,,,,,,recallproc2
IS_JOL A,17,2,3,BlockProc2,Tantrum - ?,,59,,,,,,,temper,,,,,,,recallproc2
IS_JOL A,17,2,3,BlockProc2,Mule - ?,,13,,,,,,,donkey,,,,,,,recallproc2
IS_JOL A,17,2,3,BlockProc2,Clue - ?,,2,,,,,,,problem,,,,,,,recallproc2
IS_JOL A,17,2,3,BlockProc2,Best - ?,,30,,,,,,,favorite,,,,,,,recallproc2
IS_JOL A,17,2,3,BlockProc2,Star - ?,,25,,,,,,,winner,,,,,,,recallproc2
IS_JOL A,17,2,3,BlockProc2,Razor - ?,,41,,,,,,,haircut,,,,,,,recallproc2
IS_JOL A,17,2,3,BlockProc2,Main - ?,,80,,,,,,,side,,,,,,,recallproc2
IS_JOL A,17,2,3,BlockProc2,Rod - ?,,55,,,,,,,reel,,,,,,,recallproc2
IS_JOL A,17,2,3,BlockProc2,Adjourn - ?,,6,,,,,,,end,,,,,,,recallproc2
IS_JOL A,17,2,3,BlockProc2,Glass - ?,,32,,,,,,,breakable,,,,,,,recallproc2
IS_JOL A,17,2,3,BlockProc2,Document - ?,,14,,,,,,,paper,,,,,,,recallproc2
IS_JOL A,17,2,3,BlockProc2,Cactus - ?,,3,,,,,,,lant,,,,,,,recallproc2
IS_JOL A,17,2,3,BlockProc2,Meat - ?,,66,,,,,,,bone,,,,,,,recallproc2
IS_JOL A,17,2,3,BlockProc2,Money - ?,,37,,,,,,,banker,,,,,,,recallproc2
IS_JOL A,17,2,3,BlockProc2,Chill - ?,,19,,,,,,,cold,,,,,,,recallproc2
IS_JOL A,17,2,3,BlockProc2,Water - ?,,48,,,,,,,soda,,,,,,,recallproc2
IS_JOL A,17,2,3,BlockProc2,Scalp - ?,,10,,,,,,,head,,,,,,,recallproc2
IS_JOL A,17,2,3,BlockProc2,Own - ?,,58,,,,,,,have,,,,,,,recallproc2
IS_JOL A,17,2,3,BlockProc2,Fruit - ?,,29,,,,,,,salad,,,,,,,recallproc2
IS_JOL A,17,2,3,BlockProc2,Dry - ?,,51,,,,,,,wet,,,,,,,recallproc2
IS_JOL A,17,2,3,BlockProc2,Rights - ?,,42,,,,,,,equal,,,,,,,recallproc2
IS_JOL A,17,2,3,BlockProc2,Lease - ?,,75,,,,,,,own,,,,,,,recallproc2
IS_JOL A,17,2,3,BlockProc2,Even - ?,,27,,,,,,,revenge,,,,,,,recallproc2
IS_JOL A,17,2,3,BlockProc2,Phone - ?,,54,,,,,,,conversation,,,,,,,recallproc2
IS_JOL A,17,2,3,BlockProc2,Safety - ?,,52,,,,,,,seatbelt,,,,,,,recallproc2
IS_JOL A,17,2,3,BlockProc2,Crackle - ?,,67,,,,,,,pop,,,,,,,recallproc2
IS_JOL A,17,2,3,BlockProc2,Listen - ?,,69,,,,,,,speak,,,,,,,recallproc2
IS_JOL A,17,2,3,BlockProc2,Litter - ?,,8,,,,,,,trash,,,,,,,recallproc2
IS_JOL A,17,2,3,BlockProc2,Cherry - ?,,9,,,,,,,red,,,,,,,recallproc2
IS_JOL A,17,2,3,BlockProc2,Feud - ?,,18,,,,,,,fight,,,,,,,recallproc2
IS_JOL A,17,2,3,BlockProc2,Name - ?,,72,,,,,,,hate,,,,,,,recallproc2
IS_JOL A,17,2,3,BlockProc2,Keys - ?,,70,,,,,,,latch,,,,,,,recallproc2
IS_JOL A,17,2,3,BlockProc2,Turn - ?,,21,,,,,,,flip,,,,,,,recallproc2
IS_JOL A,17,2,3,BlockProc2,Maze - ?,,64,,,,,,,election,,,,,,,recallproc2
IS_JOL A,17,2,3,BlockProc2,Justice - ?,,61,,,,,,,maroon,,,,,,,recallproc2
IS_JOL A,17,2,3,BlockProc2,Flea - ?,,56,,,,,,,tick,,,,,,,recallproc2
IS_JOL A,17,2,3,BlockProc2,Bad - ?,,23,,,,,,,horrible,,,,,,,recallproc2
IS_JOL A,17,2,3,BlockProc2,Detective - ?,,5,,,,,,,mystery,,,,,,,recallproc2
IS_JOL A,17,2,3,BlockProc2,Fuzzy - ?,,73,,,,,,,dog,,,,,,,recallproc2
IS_JOL A,17,2,3,BlockProc2,Extension - ?,,1,,,,,,,long,,,,,,,recallproc2
IS_JOL A,17,2,3,BlockProc2,Loan - ?,,76,,,,,,,own,,,,,,,recallproc2
IS_JOL A,17,2,3,BlockProc2,Cake - ?,,71,,,,,,,sweet,,,,,,,recallproc2
IS_JOL A,17,2,3,BlockProc2,Temperature - ?,,78,,,,,,,cold,,,,,,,recallproc2
IS_JOL A,17,2,3,BlockProc2,Mason - ?,,43,,,,,,,jar,,,,,,,recallproc2
IS_JOL A,17,2,3,BlockProc2,Both - ?,,77,,,,,,,together,,,,,,,recallproc2
IS_JOL A,17,2,3,BlockProc2,Furry - ?,,7,,,,,,,dog,,,,,,,recallproc2
IS_JOL A,17,2,3,BlockProc2,Element - ?,,46,,,,,,,carbon,,,,,,,recallproc2
IS_JOL A,17,2,3,BlockProc2,Fight - ?,,40,,,,,,,fued,,,,,,,recallproc2
IS_JOL A,17,2,3,BlockProc2,Gone - ?,,47,,,,,,,away,,,,,,,recallproc2
IS_JOL A,17,2,3,BlockProc2,Shears - ?,,17,,,,,,,sissors,,,,,,,recallproc2
IS_JOL A,17,2,3,BlockProc2,Incense - ?,,15,,,,,,,smell,,,,,,,recallproc2
IS_JOL A,17,2,3,BlockProc2,Cat - ?,,31,,,,,,,paw,,,,,,,recallproc2
IS_JOL A,17,2,3,BlockProc2,Plane - ?,,34,,,,,,,piolet,,,,,,,recallproc2
IS_JOL A,17,2,3,BlockProc2,Driver - ?,,11,,,,,,,car,,,,,,,recallproc2
IS_JOL A,17,2,3,BlockProc2,Dead - ?,,33,,,,,,,coffin,,,,,,,recallproc2
IS_JOL A,17,2,3,BlockProc2,Honest - ?,,38,,,,,,,truthful,,,,,,,recallproc2
IS_JOL A,17,2,3,BlockProc2,Sun - ?,,60,,,,,,,tan,,,,,,,recallproc2
IS_JOL A,17,2,3,BlockProc2,Pop - ?,,28,,,,,,,soda,,,,,,,recallproc2
IS_JOL A,17,2,3,BlockProc2,Baseball - ?,,36,,,,,,,catcher,,,,,,,recallproc2
IS_JOL A,17,2,3,BlockProc2,Chop - ?,,12,,,,,,,cut,,,,,,,recallproc2
IS_JOL A,17,2,3,BlockProc2,Earth - ?,,49,,,,,,,ground,,,,,,,recallproc2
IS_JOL A,17,2,3,BlockProc2,Bird - ?,,24,,,,,,,penguin,,,,,,,recallproc2
IS_JOL A,17,2,3,BlockProc2,Mirror - ?,,79,,,,,,,breakable,,,,,,,recallproc2
IS_JOL A,17,2,3,BlockProc2,Loud - ?,,57,,,,,,,noise,,,,,,,recallproc2
IS_JOL A,17,2,3,BlockProc2,Vehicle - ?,,65,,,,,,,car,,,,,,,recallproc2
IS_JOL A,17,2,3,BlockProc2,Wrist - ?,,45,,,,,,,bracelet,,,,,,,recallproc2
IS_JOL A,17,2,3,BlockProc2,Shell - ?,,68,,,,,,,shake,,,,,,,recallproc2
IS_JOL A,5,1,,BlockProc1,Paddle-Row,,4,,,,,,,,,,,,,,Practice1
IS_JOL A,5,1,,BlockProc1,Fashion-Model,,10,,,,,,,,,,,,,,Practice1
IS_JOL A,5,1,,BlockProc1,Deaf-Mute,,2,,,,,,,,,,,,,,Practice1
IS_JOL A,5,1,,BlockProc1,Behavior-Social,,9,,,,,,,,,,,,,,Practice1
IS_JOL A,5,1,,BlockProc1,Ham-Bone,,3,,,,,,,,,,,,,,Practice1
IS_JOL A,5,1,,BlockProc1,Disbelieve-Skeptic,,6,,,,,,,,,,,,,,Practice1
IS_JOL A,5,1,,BlockProc1,Chocolate-Bar,,7,,,,,,,,,,,,,,Practice1
IS_JOL A,5,1,,BlockProc1,Aardvark-Zoo,,1,,,,,,,,,,,,,,Practice1
IS_JOL A,5,1,,BlockProc1,Hinge-Swing,,5,,,,,,,,,,,,,,Practice1
IS_JOL A,5,1,,BlockProc1,Chime-Music,,8,,,,,,,,,,,,,,Practice1
IS_JOL A,5,1,3,BlockProc1,Haircut-Scissors,,1,,,,,,,,,,,,,,StudyProc1
IS_JOL A,5,1,3,BlockProc1,Member - Group,,5,,,,,,,,,,,,,,StudyProc1
IS_JOL A,5,1,3,BlockProc1,Curtain - Drapes,,2,,,,,,,,,,,,,,StudyProc1
IS_JOL A,5,1,3,BlockProc1,Snow - Ice,,3,,,,,,,,,,,,,,StudyProc1
IS_JOL A,5,1,3,BlockProc1,Shrimp - Fish,,4,,,,,,,,,,,,,,StudyProc1
IS_JOL A,5,1,3,BlockProc1,Shoe - Foot,S,55,90,2620,,,,,,,,,,,,StudyProc3
IS_JOL A,5,1,3,BlockProc1,Architecture - Design,S,46,100,3792,,,,,,,,,,,,StudyProc3
IS_JOL A,5,1,3,BlockProc1,Art - Lion,U,74,20,3019,,,,,,,,,,,,StudyProc3
IS_JOL A,5,1,3,BlockProc1,Happy - Car,U,72,10,2423,,,,,,,,,,,,StudyProc3
IS_JOL A,5,1,3,BlockProc1,Choice - Decision,S,57,90,3827,,,,,,,,,,,,StudyProc3
IS_JOL A,5,1,3,BlockProc1,Cash - Would,U,78,0,2333,,,,,,,,,,,,StudyProc3
IS_JOL A,5,1,3,BlockProc1,Trial - Jury,S,45,100,2236,,,,,,,,,,,,StudyProc3
IS_JOL A,5,1,3,BlockProc1,Past - Future,S,56,90,2159,,,,,,,,,,,,StudyProc3
IS_JOL A,5,1,3,BlockProc1,Blow - Wind,S,50,100,3510,,,,,,,,,,,,StudyProc3
IS_JOL A,5,1,3,BlockProc1,Dump - Waste,S,44,100,1797,,,,,,,,,,,,StudyProc3
IS_JOL A,5,1,3,BlockProc1,King - Vase,U,80,0,1755,,,,,,,,,,,,StudyProc3
IS_JOL A,5,1,3,BlockProc1,Honey - Bee,S,58,100,2025,,,,,,,,,,,,StudyProc3
IS_JOL A,5,1,3,BlockProc1,Circle - Round,S,60,100,3389,,,,,,,,,,,,StudyProc3
IS_JOL A,5,1,3,BlockProc1,Allow - Tuck,U,73,0,1849,,,,,,,,,,,,StudyProc3
IS_JOL A,5,1,3,BlockProc1,Strong - Accident,U,75,0,1773,,,,,,,,,,,,StudyProc3
IS_JOL A,5,1,3,BlockProc1,Fix - Hand,U,70,0,1227,,,,,,,,,,,,StudyProc3
IS_JOL A,5,1,3,BlockProc1,Pusher - Clutter,U,61,0,2880,,,,,,,,,,,,StudyProc3
IS_JOL A,5,1,3,BlockProc1,Lift - Woman,U,64,0,3329,,,,,,,,,,,,StudyProc3
IS_JOL A,5,1,3,BlockProc1,Sugar - Riddle,U,76,0,2983,,,,,,,,,,,,StudyProc3
IS_JOL A,5,1,3,BlockProc1,Discover - Floor,U,66,0,2844,,,,,,,,,,,,StudyProc3
IS_JOL A,5,1,3,BlockProc1,Baby - Child,S,59,100,2983,,,,,,,,,,,,StudyProc3
IS_JOL A,5,1,3,BlockProc1,Machine - Position,U,71,0,1964,,,,,,,,,,,,StudyProc3
IS_JOL A,5,1,3,BlockProc1,Begin - End,S,49,100,1923,,,,,,,,,,,,StudyProc3
IS_JOL A,5,1,3,BlockProc1,Hide - Sick,U,79,80,3963,,,,,,,,,,,,StudyProc3
IS_JOL A,5,1,3,BlockProc1,Number - Amount,S,42,100,3231,,,,,,,,,,,,StudyProc3
IS_JOL A,5,1,3,BlockProc1,Soon - Belt,U,65,0,2250,,,,,,,,,,,,StudyProc3
IS_JOL A,5,1,3,BlockProc1,Due - Assignment,S,41,100,1933,,,,,,,,,,,,StudyProc3
IS_JOL A,5,1,3,BlockProc1,Bathroom - Toilet,S,53,100,5541,,,,,,,,,,,,StudyProc3
IS_JOL A,5,1,3,BlockProc1,Debate - Sight,U,68,0,1377,,,,,,,,,,,,StudyProc3
IS_JOL A,5,1,3,BlockProc1,Dietary - Sacking,U,62,80,3064,,,,,,,,,,,,StudyProc3
IS_JOL A,5,1,3,BlockProc1,Death - Business,U,67,20,3713,,,,,,,,,,,,StudyProc3
IS_JOL A,5,1,3,BlockProc1,Park - Hungry,U,63,0,2128,,,,,,,,,,,,StudyProc3
IS_JOL A,5,1,3,BlockProc1,Wine - Cheese,S,52,100,1912,,,,,,,,,,,,StudyProc3
IS_JOL A,5,1,3,BlockProc1,Lettuce - Salad,S,54,100,2017,,,,,,,,,,,,StudyProc3
IS_JOL A,5,1,3,BlockProc1,Valley - Add,U,77,0,1285,,,,,,,,,,,,StudyProc3
IS_JOL A,5,1,3,BlockProc1,Artery - Bronze,U,69,0,3376,,,,,,,,,,,,StudyProc3
IS_JOL A,5,1,3,BlockProc1,Grill - Bar,S,47,0,1621,,,,,,,,,,,,StudyProc3
IS_JOL A,5,1,3,BlockProc1,Location - Site,S,43,100,1881,,,,,,,,,,,,StudyProc3
IS_JOL A,5,1,3,BlockProc1,Pop - Soda,S,51,100,1627,,,,,,,,,,,,StudyProc3
IS_JOL A,5,1,3,BlockProc1,Kidney - Liver,S,48,100,1487,,,,,,,,,,,,StudyProc3
IS_JOL A,5,1,3,BlockProc1,Height - Growth,B,25,,,,,,,,,,100,5617,,,StudyProc7
IS_JOL A,5,1,3,BlockProc1,Math - Division,B,28,,,,,,,,,,100,4130,,,StudyProc7
IS_JOL A,5,1,3,BlockProc1,Hygiene - Clean,F,12,,,,,,,,,,100,3560,,,StudyProc7
IS_JOL A,5,1,3,BlockProc1,Take - Seize,B,24,,,,,,,,,,0,3525,,,StudyProc7
IS_JOL A,5,1,3,BlockProc1,Sleep - Drowsy,B,36,,,,,,,,,,100,4275,,,StudyProc7
IS_JOL A,5,1,3,BlockProc1,Digestion - Stomach,F,2,,,,,,,,,,100,4859,,,StudyProc7
IS_JOL A,5,1,3,BlockProc1,Ball - Racket,B,33,,,,,,,,,,100,2603,,,StudyProc7
IS_JOL A,5,1,3,BlockProc1,Orchid - Flower,F,19,,,,,,,,,,100,2495,,,StudyProc7
IS_JOL A,5,1,3,BlockProc1,Delinquent - Bad,F,1,,,,,,,,,,100,2920,,,StudyProc7
IS_JOL A,5,1,3,BlockProc1,Tuna - Fish,F,20,,,,,,,,,,100,2936,,,StudyProc7
IS_JOL A,5,1,3,BlockProc1,Swan - Bird,F,9,,,,,,,,,,90,3031,,,StudyProc7
IS_JOL A,5,1,3,BlockProc1,Root - Plant,F,8,,,,,,,,,,100,3242,,,StudyProc7
IS_JOL A,5,1,3,BlockProc1,Discussion - Talk,F,16,,,,,,,,,,100,3196,,,StudyProc7
IS_JOL A,5,1,3,BlockProc1,Paw - Dog,F,10,,,,,,,,,,100,2072,,,StudyProc7
IS_JOL A,5,1,3,BlockProc1,Credit - Card,F,18,,,,,,,,,,100,1986,,,StudyProc7
IS_JOL A,5,1,3,BlockProc1,Drink - Sip,B,22,,,,,,,,,,90,2375,,,StudyProc7
IS_JOL A,5,1,3,BlockProc1,Fire - Blaze,B,40,,,,,,,,,,100,2293,,,StudyProc7
IS_JOL A,5,1,3,BlockProc1,Hornet - Sting,F,6,,,,,,,,,,100,3590,,,StudyProc7
IS_JOL A,5,1,3,BlockProc1,Hunger - Famine,B,35,,,,,,,,,,100,4778,,,StudyProc7
IS_JOL A,5,1,3,BlockProc1,Geology - Rock,F,14,,,,,,,,,,100,2981,,,StudyProc7
IS_JOL A,5,1,3,BlockProc1,Bug - Wasp,B,27,,,,,,,,,,100,3946,,,StudyProc7
IS_JOL A,5,1,3,BlockProc1,Chisel - Hammer,F,4,,,,,,,,,,90,3127,,,StudyProc7
IS_JOL A,5,1,3,BlockProc1,Smell - Stench,B,37,,,,,,,,,,100,3646,,,StudyProc7
IS_JOL A,5,1,3,BlockProc1,Sentence - Word,B,26,,,,,,,,,,80,4120,,,StudyProc7
IS_JOL A,5,1,3,BlockProc1,Full - Enough,B,21,,,,,,,,,,80,2550,,,StudyProc7
IS_JOL A,5,1,3,BlockProc1,Key - Latch,B,31,,,,,,,,,,50,6453,,,StudyProc7
IS_JOL A,5,1,3,BlockProc1,Bridge - Water,F,13,,,,,,,,,,50,3228,,,StudyProc7
IS_JOL A,5,1,3,BlockProc1,Editor - News,F,5,,,,,,,,,,100,3999,,,StudyProc7
IS_JOL A,5,1,3,BlockProc1,Herd - Cow,F,17,,,,,,,,,,100,2170,,,StudyProc7
IS_JOL A,5,1,3,BlockProc1,Wage - Money,F,3,,,,,,,,,,100,2160,,,StudyProc7
IS_JOL A,5,1,3,BlockProc1,Clothes - Attire,B,38,,,,,,,,,,90,2566,,,StudyProc7
IS_JOL A,5,1,3,BlockProc1,Revolution - War,F,15,,,,,,,,,,90,2308,,,StudyProc7
IS_JOL A,5,1,3,BlockProc1,Plane - Pilot,B,39,,,,,,,,,,100,2365,,,StudyProc7
IS_JOL A,5,1,3,BlockProc1,Work - Chore,B,34,,,,,,,,,,50,3787,,,StudyProc7
IS_JOL A,5,1,3,BlockProc1,Hot - Chili,B,32,,,,,,,,,,20,4991,,,StudyProc7
IS_JOL A,5,1,3,BlockProc1,Law - Attorney,B,29,,,,,,,,,,100,2089,,,StudyProc7
IS_JOL A,5,1,3,BlockProc1,Great - Fantastic,B,30,,,,,,,,,,100,2163,,,StudyProc7
IS_JOL A,5,1,3,BlockProc1,Dark - Cave,B,23,,,,,,,,,,100,1913,,,StudyProc7
IS_JOL A,5,1,3,BlockProc1,Way - Out,F,11,,,,,,,,,,70,6922,,,StudyProc7
IS_JOL A,5,1,3,BlockProc1,Bitter - Cold,F,7,,,,,,,,,,10,4606,,,StudyProc7
IS_JOL A,5,1,3,BlockProc1,Grab - Take,,2,,,,,,,,,,,,,,StudyProc2
IS_JOL A,5,1,3,BlockProc1,Trees - Green,,5,,,,,,,,,,,,,,StudyProc2
IS_JOL A,5,1,3,BlockProc1,Catcher - Baseball,,4,,,,,,,,,,,,,,StudyProc2
IS_JOL A,5,1,3,BlockProc1,Geese - Goose,,1,,,,,,,,,,,,,,StudyProc2
IS_JOL A,5,1,3,BlockProc1,Friendliness - Nice,,3,,,,,,,,,,,,,,StudyProc2
IS_JOL A,5,1,3,BlockProc1,Swan - ?,,9,,,,,bird,3280,,,,,,,,recallproc1
IS_JOL A,5,1,3,BlockProc1,Hot - ?,,32,,,,,chili,3193,,,,,,,,recallproc1
IS_JOL A,5,1,3,BlockProc1,Debate - ?,,68,,,,,argument,3965,,,,,,,,recallproc1
IS_JOL A,5,1,3,BlockProc1,Valley - ?,,77,,,,,,2481,,,,,,,,recallproc1
IS_JOL A,5,1,3,BlockProc1,Herd - ?,,17,,,,,cow,2331,,,,,,,,recallproc1
IS_JOL A,5,1,3,BlockProc1,Park - ?,,63,,,,,bench,4611,,,,,,,,recallproc1
IS_JOL A,5,1,3,BlockProc1,Paw - ?,,10,,,,,dog,5765,,,,,,,,recallproc1
IS_JOL A,5,1,3,BlockProc1,Lift - ?,,64,,,,,woman,9047,,,,,,,,recallproc1
IS_JOL A,5,1,3,BlockProc1,Wine - ?,,52,,,,,cheese,3436,,,,,,,,recallproc1
IS_JOL A,5,1,3,BlockProc1,Chisel - ?,,4,,,,,hammer,3686,,,,,,,,recallproc1
IS_JOL A,5,1,3,BlockProc1,Art - ?,,74,,,,,project,4887,,,,,,,,recallproc1
IS_JOL A,5,1,3,BlockProc1,Shoe - ?,,55,,,,,foot,3918,,,,,,,,recallproc1
IS_JOL A,5,1,3,BlockProc1,Architecture - ?,,46,,,,,design,7188,,,,,,,,recallproc1
IS_JOL A,5,1,3,BlockProc1,Delinquent - ?,,1,,,,,misbehave,7365,,,,,,,,recallproc1
IS_JOL A,5,1,3,BlockProc1,Kidney - ?,,48,,,,,liver,3983,,,,,,,,recallproc1
IS_JOL A,5,1,3,BlockProc1,Strong - ?,,75,,,,,,5963,,,,,,,,recallproc1
IS_JOL A,5,1,3,BlockProc1,Artery - ?,,69,,,,,heart,4605,,,,,,,,recallproc1
IS_JOL A,5,1,3,BlockProc1,Root - ?,,8,,,,,plant,3791,,,,,,,,recallproc1
IS_JOL A,5,1,3,BlockProc1,Wage - ?,,3,,,,,money,2915,,,,,,,,recallproc1
IS_JOL A,5,1,3,BlockProc1,Law - ?,,29,,,,,attorney,4386,,,,,,,,recallproc1
IS_JOL A,5,1,3,BlockProc1,King - ?,,80,,,,,queen,3798,,,,,,,,recallproc1
IS_JOL A,5,1,3,BlockProc1,Discover - ?,,66,,,,,,1898,,,,,,,,recallproc1
IS_JOL A,5,1,3,BlockProc1,Revolution - ?,,15,,,,,war,3795,,,,,,,,recallproc1
IS_JOL A,5,1,3,BlockProc1,Height - ?,,25,,,,,inches,2807,,,,,,,,recallproc1
IS_JOL A,5,1,3,BlockProc1,Orchid - ?,,19,,,,,flower,2314,,,,,,,,recallproc1
IS_JOL A,5,1,3,BlockProc1,Credit - ?,,18,,,,,,1827,,,,,,,,recallproc1
IS_JOL A,5,1,3,BlockProc1,Work - ?,,34,,,,,chores,2959,,,,,,,,recallproc1
IS_JOL A,5,1,3,BlockProc1,Machine - ?,,71,,,,,,2932,,,,,,,,recallproc1
IS_JOL A,5,1,3,BlockProc1,Blow - ?,,50,,,,,,4980,,,,,,,,recallproc1
IS_JOL A,5,1,3,BlockProc1,Great - ?,,30,,,,,,3599,,,,,,,,recallproc1
IS_JOL A,5,1,3,BlockProc1,Lettuce - ?,,54,,,,,salad,2754,,,,,,,,recallproc1
IS_JOL A,5,1,3,BlockProc1,Hunger - ?,,35,,,,,famine,5672,,,,,,,,recallproc1
IS_JOL A,5,1,3,BlockProc1,Drink - ?,,22,,,,,,4511,,,,,,,,recallproc1
IS_JOL A,5,1,3,BlockProc1,Bug - ?,,27,,,,,spider,7061,,,,,,,,recallproc1
IS_JOL A,5,1,3,BlockProc1,Way - ?,,11,,,,,,3963,,,,,,,,recallproc1
IS_JOL A,5,1,3,BlockProc1,Hornet - ?,,6,,,,,sting,3432,,,,,,,,recallproc1
IS_JOL A,5,1,3,BlockProc1,Bridge - ?,,13,,,,,water,2330,,,,,,,,recallproc1
IS_JOL A,5,1,3,BlockProc1,Sugar - ?,,76,,,,,,3042,,,,,,,,recallproc1
IS_JOL A,5,1,3,BlockProc1,Take - ?,,24,,,,,,6460,,,,,,,,recallproc1
IS_JOL A,5,1,3,BlockProc1,Editor - ?,,5,,,,,newspaper,2962,,,,,,,,recallproc1
IS_JOL A,5,1,3,BlockProc1,Hide - ?,,79,,,,,search,3496,,,,,,,,recallproc1
IS_JOL A,5,1,3,BlockProc1,Smell - ?,,37,,,,,stinch,5424,,,,,,,,recallproc1
IS_JOL A,5,1,3,BlockProc1,Honey - ?,,58,,,,,bee,2760,,,,,,,,recallproc1
IS_JOL A,5,1,3,BlockProc1,Fix - ?,,70,,,,,,1758,,,,,,,,recallproc1
IS_JOL A,5,1,3,BlockProc1,Bathroom - ?,,53,,,,,,2341,,,,,,,,recallproc1
IS_JOL A,5,1,3,BlockProc1,Cash - ?,,78,,,,,,1836,,,,,,,,recallproc1
IS_JOL A,5,1,3,BlockProc1,Geology - ?,,14,,,,,rock,2407,,,,,,,,recallproc1
IS_JOL A,5,1,3,BlockProc1,Begin - ?,,49,,,,,star,5636,,,,,,,,recallproc1
IS_JOL A,5,1,3,BlockProc1,Math - ?,,28,,,,,problm,6740,,,,,,,,recallproc1
IS_JOL A,5,1,3,BlockProc1,Fire - ?,,40,,,,,extinguisher,4535,,,,,,,,recallproc1
IS_JOL A,5,1,3,BlockProc1,Hygiene - ?,,12,,,,,,2077,,,,,,,,recallproc1
IS_JOL A,5,1,3,BlockProc1,Pop - ?,,51,,,,,,2679,,,,,,,,recallproc1
IS_JOL A,5,1,3,BlockProc1,Dietary - ?,,62,,,,,restrictions,3704,,,,,,,,recallproc1
IS_JOL A,5,1,3,BlockProc1,Past - ?,,56,,,,,,2071,,,,,,,,recallproc1
IS_JOL A,5,1,3,BlockProc1,Circle - ?,,60,,,,,,1233,,,,,,,,recallproc1
IS_JOL A,5,1,3,BlockProc1,Dark - ?,,23,,,,,light,4310,,,,,,,,recallproc1
IS_JOL A,5,1,3,BlockProc1,Discussion - ?,,16,,,,,,2780,,,,,,,,recallproc1
IS_JOL A,5,1,3,BlockProc1,Location - ?,,43,,,,,place,5666,,,,,,,,recallproc1
IS_JOL A,5,1,3,BlockProc1,Clothes - ?,,38,,,,,,1801,,,,,,,,recallproc1
IS_JOL A,5,1,3,BlockProc1,Sentence - ?,,26,,,,,word,5342,,,,,,,,recallproc1
IS_JOL A,5,1,3,BlockProc1,Number - ?,,42,,,,,,1762,,,,,,,,recallproc1
IS_JOL A,5,1,3,BlockProc1,Grill - ?,,47,,,,,bar,2841,,,,,,,,recallproc1
IS_JOL A,5,1,3,BlockProc1,Soon - ?,,65,,,,,now,2659,,,,,,,,recallproc1
IS_JOL A,5,1,3,BlockProc1,Digestion - ?,,2,,,,,stomach,3053,,,,,,,,recallproc1
IS_JOL A,5,1,3,BlockProc1,Pusher - ?,,61,,,,,,1391,,,,,,,,recallproc1
IS_JOL A,5,1,3,BlockProc1,Baby - ?,,59,,,,,child,2717,,,,,,,,recallproc1
IS_JOL A,5,1,3,BlockProc1,Tuna - ?,,20,,,,,fish,2349,,,,,,,,recallproc1
IS_JOL A,5,1,3,BlockProc1,Dump - ?,,44,,,,,waste,3316,,,,,,,,recallproc1
IS_JOL A,5,1,3,BlockProc1,Trial - ?,,45,,,,,start,3123,,,,,,,,recallproc1
IS_JOL A,5,1,3,BlockProc1,Due - ?,,41,,,,,date,1962,,,,,,,,recallproc1
IS_JOL A,5,1,3,BlockProc1,Happy - ?,,72,,,,,sad,3593,,,,,,,,recallproc1
IS_JOL A,5,1,3,BlockProc1,Bitter - ?,,7,,,,,,1812,,,,,,,,recallproc1
IS_JOL A,5,1,3,BlockProc1,Sleep - ?,,36,,,,,,2401,,,,,,,,recallproc1
IS_JOL A,5,1,3,BlockProc1,Allow - ?,,73,,,,,take,2718,,,,,,,,recallproc1
IS_JOL A,5,1,3,BlockProc1,Full - ?,,21,,,,,enough,4670,,,,,,,,recallproc1
IS_JOL A,5,1,3,BlockProc1,Death - ?,,67,,,,,,2366,,,,,,,,recallproc1
IS_JOL A,5,1,3,BlockProc1,Plane - ?,,39,,,,,,4252,,,,,,,,recallproc1
IS_JOL A,5,1,3,BlockProc1,Ball - ?,,33,,,,,,3709,,,,,,,,recallproc1
IS_JOL A,5,1,3,BlockProc1,Key - ?,,31,,,,,latch,2396,,,,,,,,recallproc1
IS_JOL A,5,1,3,BlockProc1,Choice - ?,,57,,,,,,4705,,,,,,,,recallproc1
IS_JOL A,5,2,3,BlockProc2,Sheriff - Police,,1,,,,,,,,,,,,,,StudyProc4
IS_JOL A,5,2,3,BlockProc2,Essay - Write,,4,,,,,,,,,,,,,,StudyProc4
IS_JOL A,5,2,3,BlockProc2,Malt - Chocolate,,5,,,,,,,,,,,,,,StudyProc4
IS_JOL A,5,2,3,BlockProc2,Hide - Scare,,2,,,,,,,,,,,,,,StudyProc4
IS_JOL A,5,2,3,BlockProc2,Disintegrate - Disappear,,3,,,,,,,,,,,,,,StudyProc4
IS_JOL A,5,2,3,BlockProc2,Keys - Joke,U,70,,,,,,,,,,,,0,2099,StudyProc8
IS_JOL A,5,2,3,BlockProc2,Dry - Wet,S,51,,,,,,,,,,,,0,2324,StudyProc8
IS_JOL A,5,2,3,BlockProc2,Maze - Election,U,64,,,,,,,,,,,,0,1676,StudyProc8
IS_JOL A,5,2,3,BlockProc2,Earth - Ground,S,49,,,,,,,,,,,,80,4726,StudyProc8
IS_JOL A,5,2,3,BlockProc2,Wrist - Bracelet,S,45,,,,,,,,,,,,100,2220,StudyProc8
IS_JOL A,5,2,3,BlockProc2,Water - Drink,S,48,,,,,,,,,,,,100,2007,StudyProc8
IS_JOL A,5,2,3,BlockProc2,Fuzzy - Bang,U,73,,,,,,,,,,,,0,1652,StudyProc8
IS_JOL A,5,2,3,BlockProc2,Alone - Lonely,S,50,,,,,,,,,,,,100,1687,StudyProc8
IS_JOL A,5,2,3,BlockProc2,Loud - Noise,S,57,,,,,,,,,,,,100,3305,StudyProc8
IS_JOL A,5,2,3,BlockProc2,Name - Hate,U,72,,,,,,,,,,,,0,1640,StudyProc8
IS_JOL A,5,2,3,BlockProc2,Own - Have,S,58,,,,,,,,,,,,80,3268,StudyProc8
IS_JOL A,5,2,3,BlockProc2,Listen - Fiction,U,69,,,,,,,,,,,,0,5757,StudyProc8
IS_JOL A,5,2,3,BlockProc2,Cake - Clothes,U,71,,,,,,,,,,,,0,1608,StudyProc8
IS_JOL A,5,2,3,BlockProc2,Moat - Clear,U,74,,,,,,,,,,,,0,2005,StudyProc8
IS_JOL A,5,2,3,BlockProc2,Crackle - Able,U,67,,,,,,,,,,,,0,2274,StudyProc8
IS_JOL A,5,2,3,BlockProc2,Gone - Away,S,47,,,,,,,,,,,,100,1859,StudyProc8
IS_JOL A,5,2,3,BlockProc2,Candle - Wax,S,44,,,,,,,,,,,,100,1510,StudyProc8
IS_JOL A,5,2,3,BlockProc2,Lease - Toil,U,75,,,,,,,,,,,,0,1167,StudyProc8
IS_JOL A,5,2,3,BlockProc2,Shell - Shake,U,68,,,,,,,,,,,,0,1375,StudyProc8
IS_JOL A,5,2,3,BlockProc2,Razor - Shave,S,41,,,,,,,,,,,,100,1629,StudyProc8
IS_JOL A,5,2,3,BlockProc2,Mirror - Children,U,79,,,,,,,,,,,,0,2074,StudyProc8
IS_JOL A,5,2,3,BlockProc2,Flea - Tick,S,56,,,,,,,,,,,,100,2148,StudyProc8
IS_JOL A,5,2,3,BlockProc2,Both - Ounce,U,77,,,,,,,,,,,,0,1251,StudyProc8
IS_JOL A,5,2,3,BlockProc2,Loan - Sign,U,76,,,,,,,,,,,,0,1039,StudyProc8
IS_JOL A,5,2,3,BlockProc2,Mason - Jar,S,43,,,,,,,,,,,,100,3003,StudyProc8
IS_JOL A,5,2,3,BlockProc2,Temperature - Morning,U,78,,,,,,,,,,,,20,6751,StudyProc8
IS_JOL A,5,2,3,BlockProc2,Sun - Tan,S,60,,,,,,,,,,,,100,1538,StudyProc8
IS_JOL A,5,2,3,BlockProc2,Vehicle - Charm,U,65,,,,,,,,,,,,0,1090,StudyProc8
IS_JOL A,5,2,3,BlockProc2,Rights - Equal,S,42,,,,,,,,,,,,0,956,StudyProc8
IS_JOL A,5,2,3,BlockProc2,Justice - Maroon,U,61,,,,,,,,,,,,0,1396,StudyProc8
IS_JOL A,5,2,3,BlockProc2,Rod - Reel,S,55,,,,,,,,,,,,100,1881,StudyProc8
IS_JOL A,5,2,3,BlockProc2,Give - Steak,U,63,,,,,,,,,,,,0,1660,StudyProc8
IS_JOL A,5,2,3,BlockProc2,Truth - Lie,S,53,,,,,,,,,,,,100,1448,StudyProc8
IS_JOL A,5,2,3,BlockProc2,Element - Carbon,S,46,,,,,,,,,,,,20,3242,StudyProc8
IS_JOL A,5,2,3,BlockProc2,Main - Scar,U,80,,,,,,,,,,,,0,1596,StudyProc8
IS_JOL A,5,2,3,BlockProc2,Meat - Obtain,U,66,,,,,,,,,,,,0,1266,StudyProc8
IS_JOL A,5,2,3,BlockProc2,Tantrum - Temper,S,59,,,,,,,,,,,,10,2351,StudyProc8
IS_JOL A,5,2,3,BlockProc2,Safety - Seatbelt,S,52,,,,,,,,,,,,100,2405,StudyProc8
IS_JOL A,5,2,3,BlockProc2,Phone - Communicatio,S,54,,,,,,,,,,,,10,1617,StudyProc8
IS_JOL A,5,2,3,BlockProc2,Stretch - Cloth,U,62,,,,,,,,,,,,0,4590,StudyProc8
IS_JOL A,5,2,3,BlockProc2,Chop - Cut,F,12,,,100,4194,,,,,,,,,,StudyProc5
IS_JOL A,5,2,3,BlockProc2,Car - Windshield,B,22,,,90,2357,,,,,,,,,,StudyProc5
IS_JOL A,5,2,3,BlockProc2,Even - Revenge,B,27,,,90,2179,,,,,,,,,,StudyProc5
IS_JOL A,5,2,3,BlockProc2,Affection - Love,F,20,,,100,2145,,,,,,,,,,StudyProc5
IS_JOL A,5,2,3,BlockProc2,Star - Actress,B,25,,,100,1849,,,,,,,,,,StudyProc5
IS_JOL A,5,2,3,BlockProc2,Mule - Donkey,F,13,,,100,1795,,,,,,,,,,StudyProc5
IS_JOL A,5,2,3,BlockProc2,Extension - Long,F,1,,,100,1873,,,,,,,,,,StudyProc5
IS_JOL A,5,2,3,BlockProc2,Clue - Game,F,2,,,100,2267,,,,,,,,,,StudyProc5
IS_JOL A,5,2,3,BlockProc2,Document - Paper,F,14,,,100,1637,,,,,,,,,,StudyProc5
IS_JOL A,5,2,3,BlockProc2,Dead - Coffin,B,33,,,100,1457,,,,,,,,,,StudyProc5
IS_JOL A,5,2,3,BlockProc2,Baseball - League,B,36,,,100,2020,,,,,,,,,,StudyProc5
IS_JOL A,5,2,3,BlockProc2,Shoelace - Tie,F,4,,,90,4608,,,,,,,,,,StudyProc5
IS_JOL A,5,2,3,BlockProc2,Turn - Flip,B,21,,,80,2922,,,,,,,,,,StudyProc5
IS_JOL A,5,2,3,BlockProc2,Fish - Sardine,B,35,,,100,1817,,,,,,,,,,StudyProc5
IS_JOL A,5,2,3,BlockProc2,Fight - Brawl,B,40,,,100,2159,,,,,,,,,,StudyProc5
IS_JOL A,5,2,3,BlockProc2,Scalp - Head,F,10,,,100,1973,,,,,,,,,,StudyProc5
IS_JOL A,5,2,3,BlockProc2,Money - Banker,B,37,,,100,1571,,,,,,,,,,StudyProc5
IS_JOL A,5,2,3,BlockProc2,Driver - Car,F,11,,,100,1346,,,,,,,,,,StudyProc5
IS_JOL A,5,2,3,BlockProc2,Bird - Penguin,B,24,,,100,1745,,,,,,,,,,StudyProc5
IS_JOL A,5,2,3,BlockProc2,Pop - Balloon,B,28,,,100,1944,,,,,,,,,,StudyProc5
IS_JOL A,5,2,3,BlockProc2,Cherry - Red,F,9,,,100,3784,,,,,,,,,,StudyProc5
IS_JOL A,5,2,3,BlockProc2,Plane - Aircraft,B,34,,,100,2564,,,,,,,,,,StudyProc5
IS_JOL A,5,2,3,BlockProc2,Thread - Thimble,B,26,,,90,2058,,,,,,,,,,StudyProc5
IS_JOL A,5,2,3,BlockProc2,Fruit - Strawberry,B,29,,,100,1549,,,,,,,,,,StudyProc5
IS_JOL A,5,2,3,BlockProc2,Detective - Mystery,F,5,,,100,1964,,,,,,,,,,StudyProc5
IS_JOL A,5,2,3,BlockProc2,Furry - Dog,F,7,,,100,2291,,,,,,,,,,StudyProc5
IS_JOL A,5,2,3,BlockProc2,Dine - Eat,F,16,,,100,2116,,,,,,,,,,StudyProc5
IS_JOL A,5,2,3,BlockProc2,Chill - Cold,F,19,,,100,1597,,,,,,,,,,StudyProc5
IS_JOL A,5,2,3,BlockProc2,Sleep - Nap,B,39,,,100,1554,,,,,,,,,,StudyProc5
IS_JOL A,5,2,3,BlockProc2,Feud - Fight,F,18,,,90,2002,,,,,,,,,,StudyProc5
IS_JOL A,5,2,3,BlockProc2,Best - Favorite,B,30,,,90,2383,,,,,,,,,,StudyProc5
IS_JOL A,5,2,3,BlockProc2,Bad - Villain,B,23,,,80,3492,,,,,,,,,,StudyProc5
IS_JOL A,5,2,3,BlockProc2,Incense - Smell,F,15,,,60,2900,,,,,,,,,,StudyProc5
IS_JOL A,5,2,3,BlockProc2,Shears - Scissors,F,17,,,40,3165,,,,,,,,,,StudyProc5
IS_JOL A,5,2,3,BlockProc2,Glass - Breakable,B,32,,,90,3242,,,,,,,,,,StudyProc5
IS_JOL A,5,2,3,BlockProc2,Adjourn - End,F,6,,,90,2996,,,,,,,,,,StudyProc5
IS_JOL A,5,2,3,BlockProc2,Cactus - Plant,F,3,,,90,1865,,,,,,,,,,StudyProc5
IS_JOL A,5,2,3,BlockProc2,Cat - Panther,B,31,,,50,3443,,,,,,,,,,StudyProc5
IS_JOL A,5,2,3,BlockProc2,Honest - Truthful,B,38,,,100,5285,,,,,,,,,,StudyProc5
IS_JOL A,5,2,3,BlockProc2,Litter - Trash,F,8,,,100,1564,,,,,,,,,,StudyProc5
IS_JOL A,5,2,3,BlockProc2,Deaf - Hear,,3,,,,,,,,,,,,,,StudyProc6
IS_JOL A,5,2,3,BlockProc2,Magician - Magic,,4,,,,,,,,,,,,,,StudyProc6
IS_JOL A,5,2,3,BlockProc2,Mind - Matter,,2,,,,,,,,,,,,,,StudyProc6
IS_JOL A,5,2,3,BlockProc2,Contest - Competition,,5,,,,,,,,,,,,,,StudyProc6
IS_JOL A,5,2,3,BlockProc2,Deciet - Cheat,,1,,,,,,,,,,,,,,StudyProc6
IS_JOL A,5,2,3,BlockProc2,Fight - ?,,40,,,,,,,brawl,,,,,,,recallproc2
IS_JOL A,5,2,3,BlockProc2,Car - ?,,22,,,,,,,accident,,,,,,,recallproc2
IS_JOL A,5,2,3,BlockProc2,Meat - ?,,66,,,,,,,,,,,,,,recallproc2
IS_JOL A,5,2,3,BlockProc2,Stretch - ?,,62,,,,,,,,,,,,,,recallproc2
IS_JOL A,5,2,3,BlockProc2,Phone - ?,,54,,,,,,,cell,,,,,,,recallproc2
IS_JOL A,5,2,3,BlockProc2,Turn - ?,,21,,,,,,,away,,,,,,,recallproc2
IS_JOL A,5,2,3,BlockProc2,Chop - ?,,12,,,,,,,,,,,,,,recallproc2
IS_JOL A,5,2,3,BlockProc2,Loan - ?,,76,,,,,,,money,,,,,,,recallproc2
IS_JOL A,5,2,3,BlockProc2,Alone - ?,,50,,,,,,,solo,,,,,,,recallproc2
IS_JOL A,5,2,3,BlockProc2,Dry - ?,,51,,,,,,,wet,,,,,,,recallproc2
IS_JOL A,5,2,3,BlockProc2,Even - ?,,27,,,,,,,revenge,,,,,,,recallproc2
IS_JOL A,5,2,3,BlockProc2,Razor - ?,,41,,,,,,,blade,,,,,,,recallproc2
IS_JOL A,5,2,3,BlockProc2,Thread - ?,,26,,,,,,,thimble,,,,,,,recallproc2
IS_JOL A,5,2,3,BlockProc2,Rights - ?,,42,,,,,,,equal,,,,,,,recallproc2
IS_JOL A,5,2,3,BlockProc2,Candle - ?,,44,,,,,,,wax,,,,,,,recallproc2
IS_JOL A,5,2,3,BlockProc2,Extension - ?,,1,,,,,,,arm,,,,,,,recallproc2
IS_JOL A,5,2,3,BlockProc2,Truth - ?,,53,,,,,,,honesy,,,,,,,recallproc2
IS_JOL A,5,2,3,BlockProc2,Money - ?,,37,,,,,,,wage,,,,,,,recallproc2
IS_JOL A,5,2,3,BlockProc2,Crackle - ?,,67,,,,,,,,,,,,,,recallproc2
IS_JOL A,5,2,3,BlockProc2,Cake - ?,,71,,,,,,,pop,,,,,,,recallproc2
IS_JOL A,5,2,3,BlockProc2,Maze - ?,,64,,,,,,,runner,,,,,,,recallproc2
IS_JOL A,5,2,3,BlockProc2,Cactus - ?,,3,,,,,,,plant,,,,,,,recallproc2
IS_JOL A,5,2,3,BlockProc2,Both - ?,,77,,,,,,,ways,,,,,,,recallproc2
IS_JOL A,5,2,3,BlockProc2,Litter - ?,,8,,,,,,,trash,,,,,,,recallproc2
IS_JOL A,5,2,3,BlockProc2,Detective - ?,,5,,,,,,,crime,,,,,,,recallproc2
IS_JOL A,5,2,3,BlockProc2,Plane - ?,,34,,,,,,,aircrat,,,,,,,recallproc2
IS_JOL A,5,2,3,BlockProc2,Keys - ?,,70,,,,,,,lock,,,,,,,recallproc2
IS_JOL A,5,2,3,BlockProc2,Baseball - ?,,36,,,,,,,league,,,,,,,recallproc2
IS_JOL A,5,2,3,BlockProc2,Mule - ?,,13,,,,,,,donkey,,,,,,,recallproc2
IS_JOL A,5,2,3,BlockProc2,Clue - ?,,2,,,,,,,ga,,,,,,,recallproc2
IS_JOL A,5,2,3,BlockProc2,Shears - ?,,17,,,,,,,scissors,,,,,,,recallproc2
IS_JOL A,5,2,3,BlockProc2,Best - ?,,30,,,,,,,favorite,,,,,,,recallproc2
IS_JOL A,5,2,3,BlockProc2,Furry - ?,,7,,,,,,,dog,,,,,,,recallproc2
IS_JOL A,5,2,3,BlockProc2,Feud - ?,,18,,,,,,,argument,,,,,,,recallproc2
IS_JOL A,5,2,3,BlockProc2,Star - ?,,25,,,,,,,celebrity,,,,,,,recallproc2
IS_JOL A,5,2,3,BlockProc2,Safety - ?,,52,,,,,,,,,,,,,,recallproc2
IS_JOL A,5,2,3,BlockProc2,Gone - ?,,47,,,,,,,away,,,,,,,recallproc2
IS_JOL A,5,2,3,BlockProc2,Shoelace - ?,,4,,,,,,,shoe,,,,,,,recallproc2
IS_JOL A,5,2,3,BlockProc2,Moat - ?,,74,,,,,,,,,,,,,,recallproc2
IS_JOL A,5,2,3,BlockProc2,Loud - ?,,57,,,,,,,nosie,,,,,,,recallproc2
IS_JOL A,5,2,3,BlockProc2,Incense - ?,,15,,,,,,,smell,,,,,,,recallproc2
IS_JOL A,5,2,3,BlockProc2,Adjourn - ?,,6,,,,,,,end,,,,,,,recallproc2
IS_JOL A,5,2,3,BlockProc2,Dine - ?,,16,,,,,,,dinner,,,,,,,recallproc2
IS_JOL A,5,2,3,BlockProc2,Scalp - ?,,10,,,,,,,head,,,,,,,recallproc2
IS_JOL A,5,2,3,BlockProc2,Main - ?,,80,,,,,,,,,,,,,,recallproc2
IS_JOL A,5,2,3,BlockProc2,Rod - ?,,55,,,,,,,reel,,,,,,,recallproc2
IS_JOL A,5,2,3,BlockProc2,Cherry - ?,,9,,,,,,,red,,,,,,,recallproc2
IS_JOL A,5,2,3,BlockProc2,Document - ?,,14,,,,,,,paper,,,,,,,recallproc2
IS_JOL A,5,2,3,BlockProc2,Fish - ?,,35,,,,,,,sardine,,,,,,,recallproc2
IS_JOL A,5,2,3,BlockProc2,Flea - ?,,56,,,,,,,tick,,,,,,,recallproc2
IS_JOL A,5,2,3,BlockProc2,Bird - ?,,24,,,,,,,penguin,,,,,,,recallproc2
IS_JOL A,5,2,3,BlockProc2,Vehicle - ?,,65,,,,,,,car,,,,,,,recallproc2
IS_JOL A,5,2,3,BlockProc2,Shell - ?,,68,,,,,,,crab,,,,,,,recallproc2
IS_JOL A,5,2,3,BlockProc2,Driver - ?,,11,,,,,,,,,,,,,,recallproc2
IS_JOL A,5,2,3,BlockProc2,Fruit - ?,,29,,,,,,,strawberyy,,,,,,,recallproc2
IS_JOL A,5,2,3,BlockProc2,Honest - ?,,38,,,,,,,truth,,,,,,,recallproc2
IS_JOL A,5,2,3,BlockProc2,Name - ?,,72,,,,,,,,,,,,,,recallproc2
IS_JOL A,5,2,3,BlockProc2,Mason - ?,,43,,,,,,,jar,,,,,,,recallproc2
IS_JOL A,5,2,3,BlockProc2,Lease - ?,,75,,,,,,,contract,,,,,,,recallproc2
IS_JOL A,5,2,3,BlockProc2,Sleep - ?,,39,,,,,,,nap,,,,,,,recallproc2
IS_JOL A,5,2,3,BlockProc2,Glass - ?,,32,,,,,,,,,,,,,,recallproc2
IS_JOL A,5,2,3,BlockProc2,Sun - ?,,60,,,,,,,screenh,,,,,,,recallproc2
IS_JOL A,5,2,3,BlockProc2,Wrist - ?,,45,,,,,,,bracelet,,,,,,,recallproc2
IS_JOL A,5,2,3,BlockProc2,Pop - ?,,28,,,,,,,,,,,,,,recallproc2
IS_JOL A,5,2,3,BlockProc2,Own - ?,,58,,,,,,,,,,,,,,recallproc2
IS_JOL A,5,2,3,BlockProc2,Chill - ?,,19,,,,,,,cold,,,,,,,recallproc2
IS_JOL A,5,2,3,BlockProc2,Dead - ?,,33,,,,,,,coffin,,,,,,,recallproc2
IS_JOL A,5,2,3,BlockProc2,Temperature - ?,,78,,,,,,,morning,,,,,,,recallproc2
IS_JOL A,5,2,3,BlockProc2,Water - ?,,48,,,,,,,fall,,,,,,,recallproc2
IS_JOL A,5,2,3,BlockProc2,Give - ?,,63,,,,,,,away,,,,,,,recallproc2
IS_JOL A,5,2,3,BlockProc2,Mirror - ?,,79,,,,,,,,,,,,,,recallproc2
IS_JOL A,5,2,3,BlockProc2,Bad - ?,,23,,,,,,,,,,,,,,recallproc2
IS_JOL A,5,2,3,BlockProc2,Earth - ?,,49,,,,,,,ground,,,,,,,recallproc2
IS_JOL A,5,2,3,BlockProc2,Affection - ?,,20,,,,,,,love,,,,,,,recallproc2
IS_JOL A,5,2,3,BlockProc2,Tantrum - ?,,59,,,,,,,temper,,,,,,,recallproc2
IS_JOL A,5,2,3,BlockProc2,Cat - ?,,31,,,,,,,,,,,,,,recallproc2
IS_JOL A,5,2,3,BlockProc2,Fuzzy - ?,,73,,,,,,,dog,,,,,,,recallproc2
IS_JOL A,5,2,3,BlockProc2,Justice - ?,,61,,,,,,,peace,,,,,,,recallproc2
IS_JOL A,5,2,3,BlockProc2,Element - ?,,46,,,,,,,carbon,,,,,,,recallproc2
IS_JOL A,5,2,3,BlockProc2,Listen - ?,,69,,,,,,,,,,,,,,recallproc2
IS_JOL B,18,1,,BlockProc1,Deaf-Mute,,2,,,,,,,,,,,,,,Practice1
IS_JOL B,18,1,,BlockProc1,Behavior-Social,,9,,,,,,,,,,,,,,Practice1
IS_JOL B,18,1,,BlockProc1,Aardvark-Zoo,,1,,,,,,,,,,,,,,Practice1
IS_JOL B,18,1,,BlockProc1,Paddle-Row,,4,,,,,,,,,,,,,,Practice1
IS_JOL B,18,1,,BlockProc1,Fashion-Model,,10,,,,,,,,,,,,,,Practice1
IS_JOL B,18,1,,BlockProc1,Ham-Bone,,3,,,,,,,,,,,,,,Practice1
IS_JOL B,18,1,,BlockProc1,Disbelieve-Skeptic,,6,,,,,,,,,,,,,,Practice1
IS_JOL B,18,1,,BlockProc1,Chocolate-Bar,,7,,,,,,,,,,,,,,Practice1
IS_JOL B,18,1,,BlockProc1,Chime-Music,,8,,,,,,,,,,,,,,Practice1
IS_JOL B,18,1,,BlockProc1,Hinge-Swing,,5,,,,,,,,,,,,,,Practice1
IS_JOL B,18,1,3,BlockProc1,Member - Group,,5,,,,,,,,,,,,,,StudyProc1
IS_JOL B,18,1,3,BlockProc1,Curtain - Drapes,,2,,,,,,,,,,,,,,StudyProc1
IS_JOL B,18,1,3,BlockProc1,Shrimp - Fish,,4,,,,,,,,,,,,,,StudyProc1
IS_JOL B,18,1,3,BlockProc1,Snow - Ice,,3,,,,,,,,,,,,,,StudyProc1
IS_JOL B,18,1,3,BlockProc1,Haircut-Scissors,,1,,,,,,,,,,,,,,StudyProc1
IS_JOL B,18,1,3,BlockProc1,Baseball - League,B,36,100,13671,,,,,,,,,,,,StudyProc3
IS_JOL B,18,1,3,BlockProc1,Cat - Panther,B,31,100,16606,,,,,,,,,,,,StudyProc3
IS_JOL B,18,1,3,BlockProc1,Honest - Truthful,B,38,0,12925,,,,,,,,,,,,StudyProc3
IS_JOL B,18,1,3,BlockProc1,Shears - Scissors,F,17,10,11739,,,,,,,,,,,,StudyProc3
IS_JOL B,18,1,3,BlockProc1,Chill - Cold,F,19,20,12881,,,,,,,,,,,,StudyProc3
IS_JOL B,18,1,3,BlockProc1,Best - Favorite,B,30,10,9448,,,,,,,,,,,,StudyProc3
IS_JOL B,18,1,3,BlockProc1,Even - Revenge,B,27,50,23316,,,,,,,,,,,,StudyProc3
IS_JOL B,18,1,3,BlockProc1,Cactus - Plant,F,3,50,16288,,,,,,,,,,,,StudyProc3
IS_JOL B,18,1,3,BlockProc1,Litter - Trash,F,8,50,15420,,,,,,,,,,,,StudyProc3
IS_JOL B,18,1,3,BlockProc1,Fight - Brawl,B,40,100,19219,,,,,,,,,,,,StudyProc3
IS_JOL B,18,1,3,BlockProc1,Shoelace - Tie,F,4,100,13807,,,,,,,,,,,,StudyProc3
IS_JOL B,18,1,3,BlockProc1,Fruit - Strawberry,B,29,0,16017,,,,,,,,,,,,StudyProc3
IS_JOL B,18,1,3,BlockProc1,Thread - Thimble,B,26,0,6464,,,,,,,,,,,,StudyProc3
IS_JOL B,18,1,3,BlockProc1,Bad - Villain,B,23,100,21094,,,,,,,,,,,,StudyProc3
IS_JOL B,18,1,3,BlockProc1,Star - Actress,B,25,0,15085,,,,,,,,,,,,StudyProc3
IS_JOL B,18,1,3,BlockProc1,Furry - Dog,F,7,50,18378,,,,,,,,,,,,StudyProc3
IS_JOL B,18,1,3,BlockProc1,Cherry - Red,F,9,100,17144,,,,,,,,,,,,StudyProc3
IS_JOL B,18,1,3,BlockProc1,Detective - Mystery,F,5,50,11513,,,,,,,,,,,,StudyProc3
IS_JOL B,18,1,3,BlockProc1,Adjourn - End,F,6,50,6512,,,,,,,,,,,,StudyProc3
IS_JOL B,18,1,3,BlockProc1,Document - Paper,F,14,50,17717,,,,,,,,,,,,StudyProc3
IS_JOL B,18,1,3,BlockProc1,Dead - Coffin,B,33,0,19102,,,,,,,,,,,,StudyProc3
IS_JOL B,18,1,3,BlockProc1,Feud - Fight,F,18,50,6799,,,,,,,,,,,,StudyProc3
IS_JOL B,18,1,3,BlockProc1,Incense - Smell,F,15,50,15536,,,,,,,,,,,,StudyProc3
IS_JOL B,18,1,3,BlockProc1,Turn - Flip,B,21,100,20594,,,,,,,,,,,,StudyProc3
IS_JOL B,18,1,3,BlockProc1,Mule - Donkey,F,13,70,12366,,,,,,,,,,,,StudyProc3
IS_JOL B,18,1,3,BlockProc1,Money - Banker,B,37,0,16626,,,,,,,,,,,,StudyProc3
IS_JOL B,18,1,3,BlockProc1,Plane - Aircraft,B,34,50,8032,,,,,,,,,,,,StudyProc3
IS_JOL B,18,1,3,BlockProc1,Glass - Breakable,B,32,100,14894,,,,,,,,,,,,StudyProc3
IS_JOL B,18,1,3,BlockProc1,Bird - Penguin,B,24,50,4955,,,,,,,,,,,,StudyProc3
IS_JOL B,18,1,3,BlockProc1,Affection - Love,F,20,50,10967,,,,,,,,,,,,StudyProc3
IS_JOL B,18,1,3,BlockProc1,Clue - Game,F,2,50,7821,,,,,,,,,,,,StudyProc3
IS_JOL B,18,1,3,BlockProc1,Driver - Car,F,11,40,7476,,,,,,,,,,,,StudyProc3
IS_JOL B,18,1,3,BlockProc1,Extension - Long,F,1,70,6864,,,,,,,,,,,,StudyProc3
IS_JOL B,18,1,3,BlockProc1,Scalp - Head,F,10,20,5870,,,,,,,,,,,,StudyProc3
IS_JOL B,18,1,3,BlockProc1,Pop - Balloon,B,28,60,11013,,,,,,,,,,,,StudyProc3
IS_JOL B,18,1,3,BlockProc1,Fish - Sardine,B,35,20,5977,,,,,,,,,,,,StudyProc3
IS_JOL B,18,1,3,BlockProc1,Chop - Cut,F,12,30,6331,,,,,,,,,,,,StudyProc3
IS_JOL B,18,1,3,BlockProc1,Dine - Eat,F,16,50,7310,,,,,,,,,,,,StudyProc3
IS_JOL B,18,1,3,BlockProc1,Car - Windshield,B,22,50,8010,,,,,,,,,,,,StudyProc3
IS_JOL B,18,1,3,BlockProc1,Sleep - Nap,B,39,100,6696,,,,,,,,,,,,StudyProc3
IS_JOL B,18,1,3,BlockProc1,Mirror - Children,U,79,,,,,,,,0,15589,,,,,StudyProc7
IS_JOL B,18,1,3,BlockProc1,Phone - Communicatio,S,54,,,,,,,,100,5974,,,,,StudyProc7
IS_JOL B,18,1,3,BlockProc1,Dry - Wet,S,51,,,,,,,,50,13688,,,,,StudyProc7
IS_JOL B,18,1,3,BlockProc1,Justice - Maroon,U,61,,,,,,,,0,5527,,,,,StudyProc7
IS_JOL B,18,1,3,BlockProc1,Earth - Ground,S,49,,,,,,,,20,6427,,,,,StudyProc7
IS_JOL B,18,1,3,BlockProc1,Rights - Equal,S,42,,,,,,,,50,7611,,,,,StudyProc7
IS_JOL B,18,1,3,BlockProc1,Truth - Lie,S,53,,,,,,,,50,31305,,,,,StudyProc7
IS_JOL B,18,1,3,BlockProc1,Cake - Clothes,U,71,,,,,,,,0,11885,,,,,StudyProc7
IS_JOL B,18,1,3,BlockProc1,Gone - Away,S,47,,,,,,,,20,12574,,,,,StudyProc7
IS_JOL B,18,1,3,BlockProc1,Listen - Fiction,U,69,,,,,,,,0,8843,,,,,StudyProc7
IS_JOL B,18,1,3,BlockProc1,Fuzzy - Bang,U,73,,,,,,,,50,9023,,,,,StudyProc7
IS_JOL B,18,1,3,BlockProc1,Main - Scar,U,80,,,,,,,,0,5052,,,,,StudyProc7
IS_JOL B,18,1,3,BlockProc1,Give - Steak,U,63,,,,,,,,0,5141,,,,,StudyProc7
IS_JOL B,18,1,3,BlockProc1,Maze - Election,U,64,,,,,,,,0,7977,,,,,StudyProc7
IS_JOL B,18,1,3,BlockProc1,Loan - Sign,U,76,,,,,,,,0,12978,,,,,StudyProc7
IS_JOL B,18,1,3,BlockProc1,Razor - Shave,S,41,,,,,,,,100,4253,,,,,StudyProc7
IS_JOL B,18,1,3,BlockProc1,Alone - Lonely,S,50,,,,,,,,100,4486,,,,,StudyProc7
IS_JOL B,18,1,3,BlockProc1,Both - Ounce,U,77,,,,,,,,0,4557,,,,,StudyProc7
IS_JOL B,18,1,3,BlockProc1,Tantrum - Temper,S,59,,,,,,,,100,4081,,,,,StudyProc7
IS_JOL B,18,1,3,BlockProc1,Crackle - Able,U,67,,,,,,,,0,6297,,,,,StudyProc7
IS_JOL B,18,1,3,BlockProc1,Stretch - Cloth,U,62,,,,,,,,30,9798,,,,,StudyProc7
IS_JOL B,18,1,3,BlockProc1,Shell - Shake,U,68,,,,,,,,0,6780,,,,,StudyProc7
IS_JOL B,18,1,3,BlockProc1,Wrist - Bracelet,S,45,,,,,,,,80,4165,,,,,StudyProc7
IS_JOL B,18,1,3,BlockProc1,Element - Carbon,S,46,,,,,,,,100,5481,,,,,StudyProc7
IS_JOL B,18,1,3,BlockProc1,Moat - Clear,U,74,,,,,,,,10,6000,,,,,StudyProc7
IS_JOL B,18,1,3,BlockProc1,Water - Drink,S,48,,,,,,,,100,7961,,,,,StudyProc7
IS_JOL B,18,1,3,BlockProc1,Candle - Wax,S,44,,,,,,,,100,6386,,,,,StudyProc7
IS_JOL B,18,1,3,BlockProc1,Loud - Noise,S,57,,,,,,,,100,5916,,,,,StudyProc7
IS_JOL B,18,1,3,BlockProc1,Rod - Reel,S,55,,,,,,,,0,8792,,,,,StudyProc7
IS_JOL B,18,1,3,BlockProc1,Own - Have,S,58,,,,,,,,25,10639,,,,,StudyProc7
IS_JOL B,18,1,3,BlockProc1,Flea - Tick,S,56,,,,,,,,20,5802,,,,,StudyProc7
IS_JOL B,18,1,3,BlockProc1,Vehicle - Charm,U,65,,,,,,,,30,6460,,,,,StudyProc7
IS_JOL B,18,1,3,BlockProc1,Safety - Seatbelt,S,52,,,,,,,,50,5242,,,,,StudyProc7
IS_JOL B,18,1,3,BlockProc1,Mason - Jar,S,43,,,,,,,,100,5650,,,,,StudyProc7
IS_JOL B,18,1,3,BlockProc1,Temperature - Morning,U,78,,,,,,,,0,4130,,,,,StudyProc7
IS_JOL B,18,1,3,BlockProc1,Meat - Obtain,U,66,,,,,,,,15,7287,,,,,StudyProc7
IS_JOL B,18,1,3,BlockProc1,Keys - Joke,U,70,,,,,,,,0,8836,,,,,StudyProc7
IS_JOL B,18,1,3,BlockProc1,Name - Hate,U,72,,,,,,,,0,5913,,,,,StudyProc7
IS_JOL B,18,1,3,BlockProc1,Sun - Tan,S,60,,,,,,,,100,6390,,,,,StudyProc7
IS_JOL B,18,1,3,BlockProc1,Lease - Toil,U,75,,,,,,,,0,4855,,,,,StudyProc7
IS_JOL B,18,1,3,BlockProc1,Geese - Goose,,1,,,,,,,,,,,,,,StudyProc2
IS_JOL B,18,1,3,BlockProc1,Catcher - Baseball,,4,,,,,,,,,,,,,,StudyProc2
IS_JOL B,18,1,3,BlockProc1,Trees - Green,,5,,,,,,,,,,,,,,StudyProc2
IS_JOL B,18,1,3,BlockProc1,Grab - Take,,2,,,,,,,,,,,,,,StudyProc2
IS_JOL B,18,1,3,BlockProc1,Friendliness - Nice,,3,,,,,,,,,,,,,,StudyProc2
IS_JOL B,18,1,3,BlockProc1,Truth - ?,,53,,,,,honesty,7652,,,,,,,,recallproc1
IS_JOL B,18,1,3,BlockProc1,Name - ?,,72,,,,,hate,9281,,,,,,,,recallproc1
IS_JOL B,18,1,3,BlockProc1,Rights - ?,,42,,,,,even,2868,,,,,,,,recallproc1
IS_JOL B,18,1,3,BlockProc1,Gone - ?,,47,,,,,away,3854,,,,,,,,recallproc1
IS_JOL B,18,1,3,BlockProc1,Shell - ?,,68,,,,,cat,9975,,,,,,,,recallproc1
IS_JOL B,18,1,3,BlockProc1,Even - ?,,27,,,,,rights,4366,,,,,,,,recallproc1
IS_JOL B,18,1,3,BlockProc1,Loud - ?,,57,,,,,noise,8906,,,,,,,,recallproc1
IS_JOL B,18,1,3,BlockProc1,Bad - ?,,23,,,,,villian,6189,,,,,,,,recallproc1
IS_JOL B,18,1,3,BlockProc1,Keys - ?,,70,,,,,joke,6319,,,,,,,,recallproc1
IS_JOL B,18,1,3,BlockProc1,Shoelace - ?,,4,,,,,tie,2267,,,,,,,,recallproc1
IS_JOL B,18,1,3,BlockProc1,Star - ?,,25,,,,,actress,6709,,,,,,,,recallproc1
IS_JOL B,18,1,3,BlockProc1,Scalp - ?,,10,,,,,head,3017,,,,,,,,recallproc1
IS_JOL B,18,1,3,BlockProc1,Lease - ?,,75,,,,,toll,6541,,,,,,,,recallproc1
IS_JOL B,18,1,3,BlockProc1,Turn - ?,,21,,,,,around,8624,,,,,,,,recallproc1
IS_JOL B,18,1,3,BlockProc1,Razor - ?,,41,,,,,blade,3550,,,,,,,,recallproc1
IS_JOL B,18,1,3,BlockProc1,Own - ?,,58,,,,,have,8555,,,,,,,,recallproc1
IS_JOL B,18,1,3,BlockProc1,Detective - ?,,5,,,,,mystery,4060,,,,,,,,recallproc1
IS_JOL B,18,1,3,BlockProc1,Cake - ?,,71,,,,,clothes,7205,,,,,,,,recallproc1
IS_JOL B,18,1,3,BlockProc1,Best - ?,,30,,,,,favorite,4997,,,,,,,,recallproc1
IS_JOL B,18,1,3,BlockProc1,Thread - ?,,26,,,,,throddle,5663,,,,,,,,recallproc1
IS_JOL B,18,1,3,BlockProc1,Element - ?,,46,,,,,,23278,,,,,,,,recallproc1
IS_JOL B,18,1,3,BlockProc1,Maze - ?,,64,,,,,election,7532,,,,,,,,recallproc1
IS_JOL B,18,1,3,BlockProc1,Main - ?,,80,,,,,,4430,,,,,,,,recallproc1
IS_JOL B,18,1,3,BlockProc1,Crackle - ?,,67,,,,,glass,6976,,,,,,,,recallproc1
IS_JOL B,18,1,3,BlockProc1,Listen - ?,,69,,,,,hear,4553,,,,,,,,recallproc1
IS_JOL B,18,1,3,BlockProc1,Fruit - ?,,29,,,,,strawberry,4477,,,,,,,,recallproc1
IS_JOL B,18,1,3,BlockProc1,Document - ?,,14,,,,,paper,2197,,,,,,,,recallproc1
IS_JOL B,18,1,3,BlockProc1,Cherry - ?,,9,,,,,red,2114,,,,,,,,recallproc1
IS_JOL B,18,1,3,BlockProc1,Glass - ?,,32,,,,,break,4603,,,,,,,,recallproc1
IS_JOL B,18,1,3,BlockProc1,Baseball - ?,,36,,,,,catcher,6925,,,,,,,,recallproc1
IS_JOL B,18,1,3,BlockProc1,Fight - ?,,40,,,,,brawl,4312,,,,,,,,recallproc1
IS_JOL B,18,1,3,BlockProc1,Water - ?,,48,,,,,juice,10911,,,,,,,,recallproc1
IS_JOL B,18,1,3,BlockProc1,Cactus - ?,,3,,,,,plant,2583,,,,,,,,recallproc1
IS_JOL B,18,1,3,BlockProc1,Give - ?,,63,,,,,take,3236,,,,,,,,recallproc1
IS_JOL B,18,1,3,BlockProc1,Chop - ?,,12,,,,,scissors,6287,,,,,,,,recallproc1
IS_JOL B,18,1,3,BlockProc1,Feud - ?,,18,,,,,fight,2285,,,,,,,,recallproc1
IS_JOL B,18,1,3,BlockProc1,Vehicle - ?,,65,,,,,car,2215,,,,,,,,recallproc1
IS_JOL B,18,1,3,BlockProc1,Clue - ?,,2,,,,,hint,6387,,,,,,,,recallproc1
IS_JOL B,18,1,3,BlockProc1,Dry - ?,,51,,,,,wet,2709,,,,,,,,recallproc1
IS_JOL B,18,1,3,BlockProc1,Flea - ?,,56,,,,,tick,3061,,,,,,,,recallproc1
IS_JOL B,18,1,3,BlockProc1,Incense - ?,,15,,,,,smell,2134,,,,,,,,recallproc1
IS_JOL B,18,1,3,BlockProc1,Furry - ?,,7,,,,,dog,1742,,,,,,,,recallproc1
IS_JOL B,18,1,3,BlockProc1,Bird - ?,,24,,,,,penguin,8502,,,,,,,,recallproc1
IS_JOL B,18,1,3,BlockProc1,Mule - ?,,13,,,,,donkey,3704,,,,,,,,recallproc1
IS_JOL B,18,1,3,BlockProc1,Chill - ?,,19,,,,,cold,1887,,,,,,,,recallproc1
IS_JOL B,18,1,3,BlockProc1,Fish - ?,,35,,,,,shrimp,3697,,,,,,,,recallproc1
IS_JOL B,18,1,3,BlockProc1,Meat - ?,,66,,,,,intake,14800,,,,,,,,recallproc1
IS_JOL B,18,1,3,BlockProc1,Safety - ?,,52,,,,,first,5137,,,,,,,,recallproc1
IS_JOL B,18,1,3,BlockProc1,Adjourn - ?,,6,,,,,end,2654,,,,,,,,recallproc1
IS_JOL B,18,1,3,BlockProc1,Litter - ?,,8,,,,,trash,3144,,,,,,,,recallproc1
IS_JOL B,18,1,3,BlockProc1,Justice - ?,,61,,,,,house,4734,,,,,,,,recallproc1
IS_JOL B,18,1,3,BlockProc1,Candle - ?,,44,,,,,wax,2371,,,,,,,,recallproc1
IS_JOL B,18,1,3,BlockProc1,Loan - ?,,76,,,,,give,4641,,,,,,,,recallproc1
IS_JOL B,18,1,3,BlockProc1,Stretch - ?,,62,,,,,cloth,2193,,,,,,,,recallproc1
IS_JOL B,18,1,3,BlockProc1,Dead - ?,,33,,,,,coffin,3159,,,,,,,,recallproc1
IS_JOL B,18,1,3,BlockProc1,Car - ?,,22,,,,,drive,2548,,,,,,,,recallproc1
IS_JOL B,18,1,3,BlockProc1,Mirror - ?,,79,,,,,children,3347,,,,,,,,recallproc1
IS_JOL B,18,1,3,BlockProc1,Mason - ?,,43,,,,,jar,1849,,,,,,,,recallproc1
IS_JOL B,18,1,3,BlockProc1,Moat - ?,,74,,,,,cold,3220,,,,,,,,recallproc1
IS_JOL B,18,1,3,BlockProc1,Plane - ?,,34,,,,,row,7680,,,,,,,,recallproc1
IS_JOL B,18,1,3,BlockProc1,Cat - ?,,31,,,,,turtle,4628,,,,,,,,recallproc1
IS_JOL B,18,1,3,BlockProc1,Wrist - ?,,45,,,,,bracelet,4653,,,,,,,,recallproc1
IS_JOL B,18,1,3,BlockProc1,Alone - ?,,50,,,,,lonely,3726,,,,,,,,recallproc1
IS_JOL B,18,1,3,BlockProc1,Money - ?,,37,,,,,dollare,3132,,,,,,,,recallproc1
IS_JOL B,18,1,3,BlockProc1,Both - ?,,77,,,,,ounce,5203,,,,,,,,recallproc1
IS_JOL B,18,1,3,BlockProc1,Earth - ?,,49,,,,,ground,2861,,,,,,,,recallproc1
IS_JOL B,18,1,3,BlockProc1,Sun - ?,,60,,,,,tan,2143,,,,,,,,recallproc1
IS_JOL B,18,1,3,BlockProc1,Pop - ?,,28,,,,,balloon,5358,,,,,,,,recallproc1
IS_JOL B,18,1,3,BlockProc1,Extension - ?,,1,,,,,long,3882,,,,,,,,recallproc1
IS_JOL B,18,1,3,BlockProc1,Driver - ?,,11,,,,,car,4730,,,,,,,,recallproc1
IS_JOL B,18,1,3,BlockProc1,Fuzzy - ?,,73,,,,,dog,2031,,,,,,,,recallproc1
IS_JOL B,18,1,3,BlockProc1,Affection - ?,,20,,,,,love,3275,,,,,,,,recallproc1
IS_JOL B,18,1,3,BlockProc1,Honest - ?,,38,,,,,truthfulness,4500,,,,,,,,recallproc1
IS_JOL B,18,1,3,BlockProc1,Dine - ?,,16,,,,,eat,2130,,,,,,,,recallproc1
IS_JOL B,18,1,3,BlockProc1,Sleep - ?,,39,,,,,rest,4370,,,,,,,,recallproc1
IS_JOL B,18,1,3,BlockProc1,Tantrum - ?,,59,,,,,angry,5014,,,,,,,,recallproc1
IS_JOL B,18,1,3,BlockProc1,Phone - ?,,54,,,,,conversation,6224,,,,,,,,recallproc1
IS_JOL B,18,1,3,BlockProc1,Rod - ?,,55,,,,,reel,2088,,,,,,,,recallproc1
IS_JOL B,18,1,3,BlockProc1,Shears - ?,,17,,,,,sharp,2889,,,,,,,,recallproc1
IS_JOL B,18,1,3,BlockProc1,Temperature - ?,,78,,,,,morning,6234,,,,,,,,recallproc1
IS_JOL B,18,2,3,BlockProc2,Sheriff - Police,,1,,,,,,,,,,,,,,StudyProc4
IS_JOL B,18,2,3,BlockProc2,Hide - Scare,,2,,,,,,,,,,,,,,StudyProc4
IS_JOL B,18,2,3,BlockProc2,Essay - Write,,4,,,,,,,,,,,,,,StudyProc4
IS_JOL B,18,2,3,BlockProc2,Disintegrate - Disappear,,3,,,,,,,,,,,,,,StudyProc4
IS_JOL B,18,2,3,BlockProc2,Malt - Chocolate,,5,,,,,,,,,,,,,,StudyProc4
IS_JOL B,18,2,3,BlockProc2,Discussion - Talk,F,16,,,60,9687,,,,,,,,,,StudyProc5
IS_JOL B,18,2,3,BlockProc2,Law - Attorney,B,29,,,100,8378,,,,,,,,,,StudyProc5
IS_JOL B,18,2,3,BlockProc2,Take - Seize,B,24,,,100,4849,,,,,,,,,,StudyProc5
IS_JOL B,18,2,3,BlockProc2,Hunger - Famine,B,35,,,0,3898,,,,,,,,,,StudyProc5
IS_JOL B,18,2,3,BlockProc2,Clothes - Attire,B,38,,,100,4297,,,,,,,,,,StudyProc5
IS_JOL B,18,2,3,BlockProc2,Editor - News,F,5,,,50,7616,,,,,,,,,,StudyProc5
IS_JOL B,18,2,3,BlockProc2,Orchid - Flower,F,19,,,100,3847,,,,,,,,,,StudyProc5
IS_JOL B,18,2,3,BlockProc2,Hygiene - Clean,F,12,,,100,4785,,,,,,,,,,StudyProc5
IS_JOL B,18,2,3,BlockProc2,Smell - Stench,B,37,,,100,8564,,,,,,,,,,StudyProc5
IS_JOL B,18,2,3,BlockProc2,Way - Out,F,11,,,60,9204,,,,,,,,,,StudyProc5
IS_JOL B,18,2,3,BlockProc2,Hornet - Sting,F,6,,,100,13058,,,,,,,,,,StudyProc5
IS_JOL B,18,2,3,BlockProc2,Sleep - Drowsy,B,36,,,100,4674,,,,,,,,,,StudyProc5
IS_JOL B,18,2,3,BlockProc2,Bitter - Cold,F,7,,,0,5082,,,,,,,,,,StudyProc5
IS_JOL B,18,2,3,BlockProc2,Geology - Rock,F,14,,,75,7737,,,,,,,,,,StudyProc5
IS_JOL B,18,2,3,BlockProc2,Swan - Bird,F,9,,,100,5803,,,,,,,,,,StudyProc5
IS_JOL B,18,2,3,BlockProc2,Digestion - Stomach,F,2,,,100,3763,,,,,,,,,,StudyProc5
IS_JOL B,18,2,3,BlockProc2,Wage - Money,F,3,,,50,27049,,,,,,,,,,StudyProc5
IS_JOL B,18,2,3,BlockProc2,Herd - Cow,F,17,,,100,11308,,,,,,,,,,StudyProc5
IS_JOL B,18,2,3,BlockProc2,Fire - Blaze,B,40,,,50,25779,,,,,,,,,,StudyProc5
IS_JOL B,18,2,3,BlockProc2,Full - Enough,B,21,,,50,14906,,,,,,,,,,StudyProc5
IS_JOL B,18,2,3,BlockProc2,Plane - Pilot,B,39,,,100,29071,,,,,,,,,,StudyProc5
IS_JOL B,18,2,3,BlockProc2,Bridge - Water,F,13,,,50,28127,,,,,,,,,,StudyProc5
IS_JOL B,18,2,3,BlockProc2,Root - Plant,F,8,,,50,26502,,,,,,,,,,StudyProc5
IS_JOL B,18,2,3,BlockProc2,Height - Growth,B,25,,,100,19016,,,,,,,,,,StudyProc5
IS_JOL B,18,2,3,BlockProc2,Revolution - War,F,15,,,0,13284,,,,,,,,,,StudyProc5
IS_JOL B,18,2,3,BlockProc2,Chisel - Hammer,F,4,,,0,13131,,,,,,,,,,StudyProc5
IS_JOL B,18,2,3,BlockProc2,Dark - Cave,B,23,,,50,27463,,,,,,,,,,StudyProc5
IS_JOL B,18,2,3,BlockProc2,Bug - Wasp,B,27,,,0,21393,,,,,,,,,,StudyProc5
IS_JOL B,18,2,3,BlockProc2,Key - Latch,B,31,,,30,17116,,,,,,,,,,StudyProc5
IS_JOL B,18,2,3,BlockProc2,Work - Chore,B,34,,,0,19046,,,,,,,,,,StudyProc5
IS_JOL B,18,2,3,BlockProc2,Sentence - Word,B,26,,,50,16081,,,,,,,,,,StudyProc5
IS_JOL B,18,2,3,BlockProc2,Paw - Dog,F,10,,,,16686,,,,,,,,,,StudyProc5
IS_JOL B,18,2,3,BlockProc2,Math - Division,B,28,,,75,21033,,,,,,,,,,StudyProc5
IS_JOL B,18,2,3,BlockProc2,Great - Fantastic,B,30,,,100,16051,,,,,,,,,,StudyProc5
IS_JOL B,18,2,3,BlockProc2,Credit - Card,F,18,,,,16096,,,,,,,,,,StudyProc5
IS_JOL B,18,2,3,BlockProc2,Tuna - Fish,F,20,,,100,21476,,,,,,,,,,StudyProc5
IS_JOL B,18,2,3,BlockProc2,Delinquent - Bad,F,1,,,50,20235,,,,,,,,,,StudyProc5
IS_JOL B,18,2,3,BlockProc2,Ball - Racket,B,33,,,50,18998,,,,,,,,,,StudyProc5
IS_JOL B,18,2,3,BlockProc2,Drink - Sip,B,22,,,50,28451,,,,,,,,,,StudyProc5
IS_JOL B,18,2,3,BlockProc2,Hot - Chili,B,32,,,50,14388,,,,,,,,,,StudyProc5
IS_JOL B,18,2,3,BlockProc2,Fix - Hand,U,70,,,,,,,,,,0,15179,,,StudyProc8
IS_JOL B,18,2,3,BlockProc2,Park - Hungry,U,63,,,,,,,,,,0,15188,,,StudyProc8
IS_JOL B,18,2,3,BlockProc2,Dietary - Slacking,U,62,,,,,,,,,,0,9709,,,StudyProc8
IS_JOL B,18,2,3,BlockProc2,Hide - Sick,U,79,,,,,,,,,,0,11623,,,StudyProc8
IS_JOL B,18,2,3,BlockProc2,Artery - Bronze,U,69,,,,,,,,,,0,21570,,,StudyProc8
IS_JOL B,18,2,3,BlockProc2,Choice - Decision,S,57,,,,,,,,,,100,24854,,,StudyProc8
IS_JOL B,18,2,3,BlockProc2,Discover - Floor,U,66,,,,,,,,,,0,8787,,,StudyProc8
IS_JOL B,18,2,3,BlockProc2,Blow - Wind,S,50,,,,,,,,,,0,15978,,,StudyProc8
IS_JOL B,18,2,3,BlockProc2,Lettuce - Salad,S,54,,,,,,,,,,100,16803,,,StudyProc8
IS_JOL B,18,2,3,BlockProc2,Trial - Jury,S,45,,,,,,,,,,100,15561,,,StudyProc8
IS_JOL B,18,2,3,BlockProc2,Dump - Waste,S,44,,,,,,,,,,100,12051,,,StudyProc8
IS_JOL B,18,2,3,BlockProc2,Wine - Cheese,S,52,,,,,,,,,,0,13028,,,StudyProc8
IS_JOL B,18,2,3,BlockProc2,Baby - Child,S,59,,,,,,,,,,100,29182,,,StudyProc8
IS_JOL B,18,2,3,BlockProc2,Death - Business,U,67,,,,,,,,,,0,13553,,,StudyProc8
IS_JOL B,18,2,3,BlockProc2,Kidney - Liver,S,48,,,,,,,,,,0,22613,,,StudyProc8
IS_JOL B,18,2,3,BlockProc2,Soon - Belt,U,65,,,,,,,,,,0,9414,,,StudyProc8
IS_JOL B,18,2,3,BlockProc2,Machine - Position,U,71,,,,,,,,,,0,13595,,,StudyProc8
IS_JOL B,18,2,3,BlockProc2,Pop - Soda,S,51,,,,,,,,,,100,9502,,,StudyProc8
IS_JOL B,18,2,3,BlockProc2,Shoe - Foot,S,55,,,,,,,,,,100,16207,,,StudyProc8
IS_JOL B,18,2,3,BlockProc2,Circle - Round,S,60,,,,,,,,,,100,17775,,,StudyProc8
IS_JOL B,18,2,3,BlockProc2,Valley - Add,U,77,,,,,,,,,,0,11613,,,StudyProc8
IS_JOL B,18,2,3,BlockProc2,Strong - Accident,U,75,,,,,,,,,,0,12513,,,StudyProc8
IS_JOL B,18,2,3,BlockProc2,Bathroom - Toilet,S,53,,,,,,,,,,100,24751,,,StudyProc8
IS_JOL B,18,2,3,BlockProc2,Allow - Tuck,U,73,,,,,,,,,,0,11553,,,StudyProc8
IS_JOL B,18,2,3,BlockProc2,Cash - Would,U,78,,,,,,,,,,0,10030,,,StudyProc8
IS_JOL B,18,2,3,BlockProc2,Begin - End,S,49,,,,,,,,,,50,23570,,,StudyProc8
IS_JOL B,18,2,3,BlockProc2,Art - Lion,U,74,,,,,,,,,,0,7764,,,StudyProc8
IS_JOL B,18,2,3,BlockProc2,King - Vase,U,80,,,,,,,,,,0,11053,,,StudyProc8
IS_JOL B,18,2,3,BlockProc2,Lift - Woman,U,64,,,,,,,,,,0,13599,,,StudyProc8
IS_JOL B,18,2,3,BlockProc2,Honey - Bee,S,58,,,,,,,,,,100,11345,,,StudyProc8
IS_JOL B,18,2,3,BlockProc2,Number - Amount,S,42,,,,,,,,,,0,9432,,,StudyProc8
IS_JOL B,18,2,3,BlockProc2,Happy - Car,U,72,,,,,,,,,,0,9052,,,StudyProc8
IS_JOL B,18,2,3,BlockProc2,Past - Future,S,56,,,,,,,,,,50,11553,,,StudyProc8
IS_JOL B,18,2,3,BlockProc2,Grill - Bar,S,47,,,,,,,,,,0,10806,,,StudyProc8
IS_JOL B,18,2,3,BlockProc2,Architecture - Design,S,46,,,,,,,,,,50,18155,,,StudyProc8
IS_JOL B,18,2,3,BlockProc2,Due - Assignment,S,41,,,,,,,,,,50,10546,,,StudyProc8
IS_JOL B,18,2,3,BlockProc2,Location - Site,S,43,,,,,,,,,,100,13449,,,StudyProc8
IS_JOL B,18,2,3,BlockProc2,Debate - Sight,U,68,,,,,,,,,,0,10225,,,StudyProc8
IS_JOL B,18,2,3,BlockProc2,Sugar - Riddle,U,76,,,,,,,,,,0,8957,,,StudyProc8
IS_JOL B,18,2,3,BlockProc2,Pusher - Clutter,U,61,,,,,,,,,,0,10677,,,StudyProc8
IS_JOL B,18,2,3,BlockProc2,Mind - Matter,,2,,,,,,,,,,,,,,StudyProc6
IS_JOL B,18,2,3,BlockProc2,Deciet - Cheat,,1,,,,,,,,,,,,,,StudyProc6
IS_JOL B,18,2,3,BlockProc2,Contest - Competition,,5,,,,,,,,,,,,,,StudyProc6
IS_JOL B,18,2,3,BlockProc2,Magician - Magic,,4,,,,,,,,,,,,,,StudyProc6
IS_JOL B,18,2,3,BlockProc2,Deaf - Hear,,3,,,,,,,,,,,,,,StudyProc6
IS_JOL B,18,2,3,BlockProc2,Paw - ?,,10,,,,,,,dog,,,,,,,recallproc2
IS_JOL B,18,2,3,BlockProc2,Bug - ?,,27,,,,,,,wasp,,,,,,,recallproc2
IS_JOL B,18,2,3,BlockProc2,Shoe - ?,,55,,,,,,,foot,,,,,,,recallproc2
IS_JOL B,18,2,3,BlockProc2,Credit - ?,,18,,,,,,,card,,,,,,,recallproc2
IS_JOL B,18,2,3,BlockProc2,Number - ?,,42,,,,,,,even,,,,,,,recallproc2
IS_JOL B,18,2,3,BlockProc2,Hide - ?,,79,,,,,,,away,,,,,,,recallproc2
IS_JOL B,18,2,3,BlockProc2,Valley - ?,,77,,,,,,,swing,,,,,,,recallproc2
IS_JOL B,18,2,3,BlockProc2,Sentence - ?,,26,,,,,,,word,,,,,,,recallproc2
IS_JOL B,18,2,3,BlockProc2,Sleep - ?,,36,,,,,,,rest,,,,,,,recallproc2
IS_JOL B,18,2,3,BlockProc2,Fix - ?,,70,,,,,,,hand,,,,,,,recallproc2
IS_JOL B,18,2,3,BlockProc2,Tuna - ?,,20,,,,,,,fish,,,,,,,recallproc2
IS_JOL B,18,2,3,BlockProc2,Chisel - ?,,4,,,,,,,,,,,,,,recallproc2
IS_JOL B,18,2,3,BlockProc2,Artery - ?,,69,,,,,,,lung,,,,,,,recallproc2
IS_JOL B,18,2,3,BlockProc2,Sugar - ?,,76,,,,,,,,,,,,,,recallproc2
IS_JOL B,18,2,3,BlockProc2,Fire - ?,,40,,,,,,,blaze,,,,,,,recallproc2
IS_JOL B,18,2,3,BlockProc2,Dump - ?,,44,,,,,,,waste,,,,,,,recallproc2
IS_JOL B,18,2,3,BlockProc2,Baby - ?,,59,,,,,,,child,,,,,,,recallproc2
IS_JOL B,18,2,3,BlockProc2,Editor - ?,,5,,,,,,,movie,,,,,,,recallproc2
IS_JOL B,18,2,3,BlockProc2,Smell - ?,,37,,,,,,,scent,,,,,,,recallproc2
IS_JOL B,18,2,3,BlockProc2,Lift - ?,,64,,,,,,,woman,,,,,,,recallproc2
IS_JOL B,18,2,3,BlockProc2,Honey - ?,,58,,,,,,,bee,,,,,,,recallproc2
IS_JOL B,18,2,3,BlockProc2,Orchid - ?,,19,,,,,,,flower,,,,,,,recallproc2
IS_JOL B,18,2,3,BlockProc2,Height - ?,,25,,,,,,,tall,,,,,,,recallproc2
IS_JOL B,18,2,3,BlockProc2,Grill - ?,,47,,,,,,,bar,,,,,,,recallproc2
IS_JOL B,18,2,3,BlockProc2,Digestion - ?,,2,,,,,,,stomach,,,,,,,recallproc2
IS_JOL B,18,2,3,BlockProc2,Bathroom - ?,,53,,,,,,,toilet,,,,,,,recallproc2
IS_JOL B,18,2,3,BlockProc2,Lettuce - ?,,54,,,,,,,salad,,,,,,,recallproc2
IS_JOL B,18,2,3,BlockProc2,Key - ?,,31,,,,,,,hide,,,,,,,recallproc2
IS_JOL B,18,2,3,BlockProc2,Take - ?,,24,,,,,,,away,,,,,,,recallproc2
IS_JOL B,18,2,3,BlockProc2,Pusher - ?,,61,,,,,,,cluster,,,,,,,recallproc2
IS_JOL B,18,2,3,BlockProc2,Full - ?,,21,,,,,,,enough,,,,,,,recallproc2
IS_JOL B,18,2,3,BlockProc2,Strong - ?,,75,,,,,,,man,,,,,,,recallproc2
IS_JOL B,18,2,3,BlockProc2,Dark - ?,,23,,,,,,,hear,,,,,,,recallproc2
IS_JOL B,18,2,3,BlockProc2,Due - ?,,41,,,,,,,assignment,,,,,,,recallproc2
IS_JOL B,18,2,3,BlockProc2,Bitter - ?,,7,,,,,,,lemon,,,,,,,recallproc2
IS_JOL B,18,2,3,BlockProc2,Plane - ?,,39,,,,,,,air,,,,,,,recallproc2
IS_JOL B,18,2,3,BlockProc2,Great - ?,,30,,,,,,,fantastic,,,,,,,recallproc2
IS_JOL B,18,2,3,BlockProc2,Clothes - ?,,38,,,,,,,shirt,,,,,,,recallproc2
IS_JOL B,18,2,3,BlockProc2,Architecture - ?,,46,,,,,,,design,,,,,,,recallproc2
IS_JOL B,18,2,3,BlockProc2,Pop - ?,,51,,,,,,,soad,,,,,,,recallproc2
IS_JOL B,18,2,3,BlockProc2,Math - ?,,28,,,,,,,numbers,,,,,,,recallproc2
IS_JOL B,18,2,3,BlockProc2,Wine - ?,,52,,,,,,,fruit,,,,,,,recallproc2
IS_JOL B,18,2,3,BlockProc2,Blow - ?,,50,,,,,,,wind,,,,,,,recallproc2
IS_JOL B,18,2,3,BlockProc2,Discussion - ?,,16,,,,,,,choice,,,,,,,recallproc2
IS_JOL B,18,2,3,BlockProc2,Work - ?,,34,,,,,,,chore,,,,,,,recallproc2
IS_JOL B,18,2,3,BlockProc2,Law - ?,,29,,,,,,,attorney,,,,,,,recallproc2
IS_JOL B,18,2,3,BlockProc2,Revolution - ?,,15,,,,,,,war,,,,,,,recallproc2
IS_JOL B,18,2,3,BlockProc2,Delinquent - ?,,1,,,,,,,bad,,,,,,,recallproc2
IS_JOL B,18,2,3,BlockProc2,Wage - ?,,3,,,,,,,work,,,,,,,recallproc2
IS_JOL B,18,2,3,BlockProc2,Allow - ?,,73,,,,,,,let,,,,,,,recallproc2
IS_JOL B,18,2,3,BlockProc2,Trial - ?,,45,,,,,,,jury,,,,,,,recallproc2
IS_JOL B,18,2,3,BlockProc2,Hornet - ?,,6,,,,,,,bee,,,,,,,recallproc2
IS_JOL B,18,2,3,BlockProc2,Hot - ?,,32,,,,,,,chili,,,,,,,recallproc2
IS_JOL B,18,2,3,BlockProc2,Discover - ?,,66,,,,,,,mystery,,,,,,,recallproc2
IS_JOL B,18,2,3,BlockProc2,Death - ?,,67,,,,,,,coffin,,,,,,,recallproc2
IS_JOL B,18,2,3,BlockProc2,Soon - ?,,65,,,,,,,later,,,,,,,recallproc2
IS_JOL B,18,2,3,BlockProc2,Location - ?,,43,,,,,,,site,,,,,,,recallproc2
IS_JOL B,18,2,3,BlockProc2,Hunger - ?,,35,,,,,,,eat,,,,,,,recallproc2
IS_JOL B,18,2,3,BlockProc2,Drink - ?,,22,,,,,,,soda,,,,,,,recallproc2
IS_JOL B,18,2,3,BlockProc2,King - ?,,80,,,,,,,mind,,,,,,,recallproc2
IS_JOL B,18,2,3,BlockProc2,Way - ?,,11,,,,,,,away,,,,,,,recallproc2
IS_JOL B,18,2,3,BlockProc2,Root - ?,,8,,,,,,,hair,,,,,,,recallproc2
IS_JOL B,18,2,3,BlockProc2,Bridge - ?,,13,,,,,,,water,,,,,,,recallproc2
IS_JOL B,18,2,3,BlockProc2,Begin - ?,,49,,,,,,,end,,,,,,,recallproc2
IS_JOL B,18,2,3,BlockProc2,Circle - ?,,60,,,,,,,round,,,,,,,recallproc2
IS_JOL B,18,2,3,BlockProc2,Debate - ?,,68,,,,,,,answer,,,,,,,recallproc2
IS_JOL B,18,2,3,BlockProc2,Hygiene - ?,,12,,,,,,,clean,,,,,,,recallproc2
IS_JOL B,18,2,3,BlockProc2,Ball - ?,,33,,,,,,,round,,,,,,,recallproc2
IS_JOL B,18,2,3,BlockProc2,Past - ?,,56,,,,,,,future,,,,,,,recallproc2
IS_JOL B,18,2,3,BlockProc2,Geology - ?,,14,,,,,,,rock,,,,,,,recallproc2
IS_JOL B,18,2,3,BlockProc2,Cash - ?,,78,,,,,,,money,,,,,,,recallproc2
IS_JOL B,18,2,3,BlockProc2,Swan - ?,,9,,,,,,,goose,,,,,,,recallproc2
IS_JOL B,18,2,3,BlockProc2,Art - ?,,74,,,,,,,wax,,,,,,,recallproc2
IS_JOL B,18,2,3,BlockProc2,Herd - ?,,17,,,,,,,cow,,,,,,,recallproc2
IS_JOL B,18,2,3,BlockProc2,Choice - ?,,57,,,,,,,dicission,,,,,,,recallproc2
IS_JOL B,18,2,3,BlockProc2,Machine - ?,,71,,,,,,,factory,,,,,,,recallproc2
IS_JOL B,18,2,3,BlockProc2,Dietary - ?,,62,,,,,,,stomach,,,,,,,recallproc2
IS_JOL B,18,2,3,BlockProc2,Park - ?,,63,,,,,,,vine,,,,,,,recallproc2
IS_JOL B,18,2,3,BlockProc2,Kidney - ?,,48,,,,,,,liver,,,,,,,recallproc2
IS_JOL B,18,2,3,BlockProc2,Happy - ?,,72,,,,,,,sad,,,,,,,recallproc2
IS_JOL B,6,1,,BlockProc1,Aardvark-Zoo,,1,,,,,,,,,,,,,,Practice1
IS_JOL B,6,1,,BlockProc1,Chime-Music,,8,,,,,,,,,,,,,,Practice1
IS_JOL B,6,1,,BlockProc1,Deaf-Mute,,2,,,,,,,,,,,,,,Practice1
IS_JOL B,6,1,,BlockProc1,Ham-Bone,,3,,,,,,,,,,,,,,Practice1
IS_JOL B,6,1,,BlockProc1,Paddle-Row,,4,,,,,,,,,,,,,,Practice1
IS_JOL B,6,1,,BlockProc1,Hinge-Swing,,5,,,,,,,,,,,,,,Practice1
IS_JOL B,6,1,,BlockProc1,Disbelieve-Skeptic,,6,,,,,,,,,,,,,,Practice1
IS_JOL B,6,1,,BlockProc1,Behavior-Social,,9,,,,,,,,,,,,,,Practice1
IS_JOL B,6,1,,BlockProc1,Fashion-Model,,10,,,,,,,,,,,,,,Practice1
IS_JOL B,6,1,,BlockProc1,Chocolate-Bar,,7,,,,,,,,,,,,,,Practice1
IS_JOL B,6,1,3,BlockProc1,Shrimp - Fish,,4,,,,,,,,,,,,,,StudyProc1
IS_JOL B,6,1,3,BlockProc1,Snow - Ice,,3,,,,,,,,,,,,,,StudyProc1
IS_JOL B,6,1,3,BlockProc1,Member - Group,,5,,,,,,,,,,,,,,StudyProc1
IS_JOL B,6,1,3,BlockProc1,Curtain - Drapes,,2,,,,,,,,,,,,,,StudyProc1
IS_JOL B,6,1,3,BlockProc1,Haircut-Scissors,,1,,,,,,,,,,,,,,StudyProc1
IS_JOL B,6,1,3,BlockProc1,Best - Favorite,B,30,65,14199,,,,,,,,,,,,StudyProc3
IS_JOL B,6,1,3,BlockProc1,Thread - Thimble,B,26,50,20032,,,,,,,,,,,,StudyProc3
IS_JOL B,6,1,3,BlockProc1,Furry - Dog,F,7,80,17907,,,,,,,,,,,,StudyProc3
IS_JOL B,6,1,3,BlockProc1,Fruit - Strawberry,B,29,70,18244,,,,,,,,,,,,StudyProc3
IS_JOL B,6,1,3,BlockProc1,Chill - Cold,F,19,60,22297,,,,,,,,,,,,StudyProc3
IS_JOL B,6,1,3,BlockProc1,Dead - Coffin,B,33,75,13901,,,,,,,,,,,,StudyProc3
IS_JOL B,6,1,3,BlockProc1,Feud - Fight,F,18,80,10619,,,,,,,,,,,,StudyProc3
IS_JOL B,6,1,3,BlockProc1,Chop - Cut,F,12,80,19583,,,,,,,,,,,,StudyProc3
IS_JOL B,6,1,3,BlockProc1,Fight - Brawl,B,40,70,17060,,,,,,,,,,,,StudyProc3
IS_JOL B,6,1,3,BlockProc1,Shears - Scissors,F,17,80,29432,,,,,,,,,,,,StudyProc3
IS_JOL B,6,1,3,BlockProc1,Mule - Donkey,F,13,80,15921,,,,,,,,,,,,StudyProc3
IS_JOL B,6,1,3,BlockProc1,Glass - Breakable,B,32,75,22108,,,,,,,,,,,,StudyProc3
IS_JOL B,6,1,3,BlockProc1,Turn - Flip,B,21,80,10234,,,,,,,,,,,,StudyProc3
IS_JOL B,6,1,3,BlockProc1,Sleep - Nap,B,39,85,11494,,,,,,,,,,,,StudyProc3
IS_JOL B,6,1,3,BlockProc1,Clue - Game,F,2,70,18742,,,,,,,,,,,,StudyProc3
IS_JOL B,6,1,3,BlockProc1,Pop - Balloon,B,28,85,12686,,,,,,,,,,,,StudyProc3
IS_JOL B,6,1,3,BlockProc1,Cherry - Red,F,9,80,16077,,,,,,,,,,,,StudyProc3
IS_JOL B,6,1,3,BlockProc1,Bird - Penguin,B,24,80,20625,,,,,,,,,,,,StudyProc3
IS_JOL B,6,1,3,BlockProc1,Cat - Panther,B,31,85,11539,,,,,,,,,,,,StudyProc3
IS_JOL B,6,1,3,BlockProc1,Fish - Sardine,B,35,70,10002,,,,,,,,,,,,StudyProc3
IS_JOL B,6,1,3,BlockProc1,Star - Actress,B,25,70,11127,,,,,,,,,,,,StudyProc3
IS_JOL B,6,1,3,BlockProc1,Bad - Villain,B,23,75,15079,,,,,,,,,,,,StudyProc3
IS_JOL B,6,1,3,BlockProc1,Detective - Mystery,F,5,0,9972,,,,,,,,,,,,StudyProc3
IS_JOL B,6,1,3,BlockProc1,Incense - Smell,F,15,60,19267,,,,,,,,,,,,StudyProc3
IS_JOL B,6,1,3,BlockProc1,Driver - Car,F,11,70,9461,,,,,,,,,,,,StudyProc3
IS_JOL B,6,1,3,BlockProc1,Affection - Love,F,20,70,24624,,,,,,,,,,,,StudyProc3
IS_JOL B,6,1,3,BlockProc1,Car - Windshield,B,22,80,18327,,,,,,,,,,,,StudyProc3
IS_JOL B,6,1,3,BlockProc1,Adjourn - End,F,6,60,17119,,,,,,,,,,,,StudyProc3
IS_JOL B,6,1,3,BlockProc1,Document - Paper,F,14,60,14169,,,,,,,,,,,,StudyProc3
IS_JOL B,6,1,3,BlockProc1,Cactus - Plant,F,3,60,14467,,,,,,,,,,,,StudyProc3
IS_JOL B,6,1,3,BlockProc1,Dine - Eat,F,16,80,8897,,,,,,,,,,,,StudyProc3
IS_JOL B,6,1,3,BlockProc1,Money - Banker,B,37,80,6220,,,,,,,,,,,,StudyProc3
IS_JOL B,6,1,3,BlockProc1,Even - Revenge,B,27,65,32868,,,,,,,,,,,,StudyProc3
IS_JOL B,6,1,3,BlockProc1,Litter - Trash,F,8,60,11625,,,,,,,,,,,,StudyProc3
IS_JOL B,6,1,3,BlockProc1,Extension - Long,F,1,8,12684,,,,,,,,,,,,StudyProc3
IS_JOL B,6,1,3,BlockProc1,Shoelace - Tie,F,4,60,11211,,,,,,,,,,,,StudyProc3
IS_JOL B,6,1,3,BlockProc1,Honest - Truthful,B,38,60,12759,,,,,,,,,,,,StudyProc3
IS_JOL B,6,1,3,BlockProc1,Plane - Aircraft,B,34,65,11691,,,,,,,,,,,,StudyProc3
IS_JOL B,6,1,3,BlockProc1,Baseball - League,B,36,70,13588,,,,,,,,,,,,StudyProc3
IS_JOL B,6,1,3,BlockProc1,Scalp - Head,F,10,60,10470,,,,,,,,,,,,StudyProc3
IS_JOL B,6,1,3,BlockProc1,Crackle - Able,U,67,,,,,,,,60,17750,,,,,StudyProc7
IS_JOL B,6,1,3,BlockProc1,Temperature - Morning,U,78,,,,,,,,50,22534,,,,,StudyProc7
IS_JOL B,6,1,3,BlockProc1,Tantrum - Temper,S,59,,,,,,,,60,16450,,,,,StudyProc7
IS_JOL B,6,1,3,BlockProc1,Dry - Wet,S,51,,,,,,,,80,10047,,,,,StudyProc7
IS_JOL B,6,1,3,BlockProc1,Candle - Wax,S,44,,,,,,,,80,13290,,,,,StudyProc7
IS_JOL B,6,1,3,BlockProc1,Listen - Fiction,U,69,,,,,,,,6,14969,,,,,StudyProc7
IS_JOL B,6,1,3,BlockProc1,Maze - Election,U,64,,,,,,,,50,16538,,,,,StudyProc7
IS_JOL B,6,1,3,BlockProc1,Alone - Lonely,S,50,,,,,,,,60,11036,,,,,StudyProc7
IS_JOL B,6,1,3,BlockProc1,Main - Scar,U,80,,,,,,,,10,20127,,,,,StudyProc7
IS_JOL B,6,1,3,BlockProc1,Earth - Ground,S,49,,,,,,,,30,12293,,,,,StudyProc7
IS_JOL B,6,1,3,BlockProc1,Razor - Shave,S,41,,,,,,,,40,10645,,,,,StudyProc7
IS_JOL B,6,1,3,BlockProc1,Rod - Reel,S,55,,,,,,,,60,17200,,,,,StudyProc7
IS_JOL B,6,1,3,BlockProc1,Give - Steak,U,63,,,,,,,,10,9534,,,,,StudyProc7
IS_JOL B,6,1,3,BlockProc1,Shell - Shake,U,68,,,,,,,,10,18135,,,,,StudyProc7
IS_JOL B,6,1,3,BlockProc1,Water - Drink,S,48,,,,,,,,30,11047,,,,,StudyProc7
IS_JOL B,6,1,3,BlockProc1,Element - Carbon,S,46,,,,,,,,30,15026,,,,,StudyProc7
IS_JOL B,6,1,3,BlockProc1,Own - Have,S,58,,,,,,,,20,18370,,,,,StudyProc7
IS_JOL B,6,1,3,BlockProc1,Cake - Clothes,U,71,,,,,,,,20,13544,,,,,StudyProc7
IS_JOL B,6,1,3,BlockProc1,Justice - Maroon,U,61,,,,,,,,0,11101,,,,,StudyProc7
IS_JOL B,6,1,3,BlockProc1,Vehicle - Charm,U,65,,,,,,,,0,13324,,,,,StudyProc7
IS_JOL B,6,1,3,BlockProc1,Phone - Communicatio,S,54,,,,,,,,30,13074,,,,,StudyProc7
IS_JOL B,6,1,3,BlockProc1,Mason - Jar,S,43,,,,,,,,30,8593,,,,,StudyProc7
IS_JOL B,6,1,3,BlockProc1,Loan - Sign,U,76,,,,,,,,0,11704,,,,,StudyProc7
IS_JOL B,6,1,3,BlockProc1,Both - Ounce,U,77,,,,,,,,10,14760,,,,,StudyProc7
IS_JOL B,6,1,3,BlockProc1,Loud - Noise,S,57,,,,,,,,30,15082,,,,,StudyProc7
IS_JOL B,6,1,3,BlockProc1,Sun - Tan,S,60,,,,,,,,40,12759,,,,,StudyProc7
IS_JOL B,6,1,3,BlockProc1,Wrist - Bracelet,S,45,,,,,,,,40,7260,,,,,StudyProc7
IS_JOL B,6,1,3,BlockProc1,Fuzzy - Bang,U,73,,,,,,,,0,14826,,,,,StudyProc7
IS_JOL B,6,1,3,BlockProc1,Stretch - Cloth,U,62,,,,,,,,0,12498,,,,,StudyProc7
IS_JOL B,6,1,3,BlockProc1,Flea - Tick,S,56,,,,,,,,50,12672,,,,,StudyProc7
IS_JOL B,6,1,3,BlockProc1,Lease - Toil,U,75,,,,,,,,10,21552,,,,,StudyProc7
IS_JOL B,6,1,3,BlockProc1,Meat - Obtain,U,66,,,,,,,,0,9517,,,,,StudyProc7
IS_JOL B,6,1,3,BlockProc1,Keys - Joke,U,70,,,,,,,,5,11558,,,,,StudyProc7
IS_JOL B,6,1,3,BlockProc1,Truth - Lie,S,53,,,,,,,,60,7700,,,,,StudyProc7
IS_JOL B,6,1,3,BlockProc1,Name - Hate,U,72,,,,,,,,0,7839,,,,,StudyProc7
IS_JOL B,6,1,3,BlockProc1,Safety - Seatbelt,S,52,,,,,,,,40,13133,,,,,StudyProc7
IS_JOL B,6,1,3,BlockProc1,Rights - Equal,S,42,,,,,,,,10,14090,,,,,StudyProc7
IS_JOL B,6,1,3,BlockProc1,Gone - Away,S,47,,,,,,,,20,10848,,,,,StudyProc7
IS_JOL B,6,1,3,BlockProc1,Moat - Clear,U,74,,,,,,,,0,29475,,,,,StudyProc7
IS_JOL B,6,1,3,BlockProc1,Mirror - Children,U,79,,,,,,,,10,8282,,,,,StudyProc7
IS_JOL B,6,1,3,BlockProc1,Catcher - Baseball,,4,,,,,,,,,,,,,,StudyProc2
IS_JOL B,6,1,3,BlockProc1,Grab - Take,,2,,,,,,,,,,,,,,StudyProc2
IS_JOL B,6,1,3,BlockProc1,Trees - Green,,5,,,,,,,,,,,,,,StudyProc2
IS_JOL B,6,1,3,BlockProc1,Friendliness - Nice,,3,,,,,,,,,,,,,,StudyProc2
IS_JOL B,6,1,3,BlockProc1,Geese - Goose,,1,,,,,,,,,,,,,,StudyProc2
IS_JOL B,6,1,3,BlockProc1,Best - ?,,30,,,,,favorite,8617,,,,,,,,recallproc1
IS_JOL B,6,1,3,BlockProc1,Give - ?,,63,,,,,take,2559,,,,,,,,recallproc1
IS_JOL B,6,1,3,BlockProc1,Fuzzy - ?,,73,,,,,eaf,3037,,,,,,,,recallproc1
IS_JOL B,6,1,3,BlockProc1,Baseball - ?,,36,,,,,catcher,4335,,,,,,,,recallproc1
IS_JOL B,6,1,3,BlockProc1,Incense - ?,,15,,,,,smell,3381,,,,,,,,recallproc1
IS_JOL B,6,1,3,BlockProc1,Cherry - ?,,9,,,,,red,1969,,,,,,,,recallproc1
IS_JOL B,6,1,3,BlockProc1,Meat - ?,,66,,,,,loaf,6695,,,,,,,,recallproc1
IS_JOL B,6,1,3,BlockProc1,Rod - ?,,55,,,,,reel,2780,,,,,,,,recallproc1
IS_JOL B,6,1,3,BlockProc1,Glass - ?,,32,,,,,breakable,4609,,,,,,,,recallproc1
IS_JOL B,6,1,3,BlockProc1,Money - ?,,37,,,,,job,6227,,,,,,,,recallproc1
IS_JOL B,6,1,3,BlockProc1,Bad - ?,,23,,,,,villian,4915,,,,,,,,recallproc1
IS_JOL B,6,1,3,BlockProc1,Adjourn - ?,,6,,,,,end,2233,,,,,,,,recallproc1
IS_JOL B,6,1,3,BlockProc1,Shears - ?,,17,,,,,scissors,2685,,,,,,,,recallproc1
IS_JOL B,6,1,3,BlockProc1,Sun - ?,,60,,,,,tan,3614,,,,,,,,recallproc1
IS_JOL B,6,1,3,BlockProc1,Chill - ?,,19,,,,,cold,2129,,,,,,,,recallproc1
IS_JOL B,6,1,3,BlockProc1,Mule - ?,,13,,,,,donkey,4617,,,,,,,,recallproc1
IS_JOL B,6,1,3,BlockProc1,Alone - ?,,50,,,,,lonely,3579,,,,,,,,recallproc1
IS_JOL B,6,1,3,BlockProc1,Feud - ?,,18,,,,,fight,2151,,,,,,,,recallproc1
IS_JOL B,6,1,3,BlockProc1,Element - ?,,46,,,,,carbon,3606,,,,,,,,recallproc1
IS_JOL B,6,1,3,BlockProc1,Document - ?,,14,,,,,paper,2801,,,,,,,,recallproc1
IS_JOL B,6,1,3,BlockProc1,Thread - ?,,26,,,,,thimble,3430,,,,,,,,recallproc1
IS_JOL B,6,1,3,BlockProc1,Dine - ?,,16,,,,,eat,2496,,,,,,,,recallproc1
IS_JOL B,6,1,3,BlockProc1,Driver - ?,,11,,,,,car,3481,,,,,,,,recallproc1
IS_JOL B,6,1,3,BlockProc1,Shell - ?,,68,,,,,fish,14378,,,,,,,,recallproc1
IS_JOL B,6,1,3,BlockProc1,Razor - ?,,41,,,,,shave,4372,,,,,,,,recallproc1
IS_JOL B,6,1,3,BlockProc1,Gone - ?,,47,,,,,away,3871,,,,,,,,recallproc1
IS_JOL B,6,1,3,BlockProc1,Water - ?,,48,,,,,drink,5144,,,,,,,,recallproc1
IS_JOL B,6,1,3,BlockProc1,Dry - ?,,51,,,,,wet,1820,,,,,,,,recallproc1
IS_JOL B,6,1,3,BlockProc1,Dead - ?,,33,,,,,coffin,2640,,,,,,,,recallproc1
IS_JOL B,6,1,3,BlockProc1,Lease - ?,,75,,,,,money,9643,,,,,,,,recallproc1
IS_JOL B,6,1,3,BlockProc1,Safety - ?,,52,,,,,seatbelt,2919,,,,,,,,recallproc1
IS_JOL B,6,1,3,BlockProc1,Temperature - ?,,78,,,,,morning,4367,,,,,,,,recallproc1
IS_JOL B,6,1,3,BlockProc1,Chop - ?,,12,,,,,cut,2371,,,,,,,,recallproc1
IS_JOL B,6,1,3,BlockProc1,Name - ?,,72,,,,,hate,11160,,,,,,,,recallproc1
IS_JOL B,6,1,3,BlockProc1,Listen - ?,,69,,,,,ear,8440,,,,,,,,recallproc1
IS_JOL B,6,1,3,BlockProc1,Moat - ?,,74,,,,,toil,6084,,,,,,,,recallproc1
IS_JOL B,6,1,3,BlockProc1,Loan - ?,,76,,,,,rent,10330,,,,,,,,recallproc1
IS_JOL B,6,1,3,BlockProc1,Vehicle - ?,,65,,,,,automobile,8218,,,,,,,,recallproc1
IS_JOL B,6,1,3,BlockProc1,Loud - ?,,57,,,,,noise,2384,,,,,,,,recallproc1
IS_JOL B,6,1,3,BlockProc1,Earth - ?,,49,,,,,ground,3622,,,,,,,,recallproc1
IS_JOL B,6,1,3,BlockProc1,Extension - ?,,1,,,,,long,1840,,,,,,,,recallproc1
IS_JOL B,6,1,3,BlockProc1,Plane - ?,,34,,,,,aircraft,3596,,,,,,,,recallproc1
IS_JOL B,6,1,3,BlockProc1,Scalp - ?,,10,,,,,head,1935,,,,,,,,recallproc1
IS_JOL B,6,1,3,BlockProc1,Crackle - ?,,67,,,,,noise,2975,,,,,,,,recallproc1
IS_JOL B,6,1,3,BlockProc1,Fruit - ?,,29,,,,,strawberry,4236,,,,,,,,recallproc1
IS_JOL B,6,1,3,BlockProc1,Mason - ?,,43,,,,,jar,1615,,,,,,,,recallproc1
IS_JOL B,6,1,3,BlockProc1,Rights - ?,,42,,,,,even,3003,,,,,,,,recallproc1
IS_JOL B,6,1,3,BlockProc1,Own - ?,,58,,,,,have,2846,,,,,,,,recallproc1
IS_JOL B,6,1,3,BlockProc1,Car - ?,,22,,,,,automobile,4057,,,,,,,,recallproc1
IS_JOL B,6,1,3,BlockProc1,Clue - ?,,2,,,,,hint,3066,,,,,,,,recallproc1
IS_JOL B,6,1,3,BlockProc1,Sleep - ?,,39,,,,,nap,4907,,,,,,,,recallproc1
IS_JOL B,6,1,3,BlockProc1,Cactus - ?,,3,,,,,plant,2145,,,,,,,,recallproc1
IS_JOL B,6,1,3,BlockProc1,Maze - ?,,64,,,,,corn,4745,,,,,,,,recallproc1
IS_JOL B,6,1,3,BlockProc1,Detective - ?,,5,,,,,mystery,3525,,,,,,,,recallproc1
IS_JOL B,6,1,3,BlockProc1,Both - ?,,77,,,,,even,7612,,,,,,,,recallproc1
IS_JOL B,6,1,3,BlockProc1,Main - ?,,80,,,,,important,10146,,,,,,,,recallproc1
IS_JOL B,6,1,3,BlockProc1,Mirror - ?,,79,,,,,children,3505,,,,,,,,recallproc1
IS_JOL B,6,1,3,BlockProc1,Honest - ?,,38,,,,,truth,6410,,,,,,,,recallproc1
IS_JOL B,6,1,3,BlockProc1,Truth - ?,,53,,,,,lie,1578,,,,,,,,recallproc1
IS_JOL B,6,1,3,BlockProc1,Shoelace - ?,,4,,,,,tie,6087,,,,,,,,recallproc1
IS_JOL B,6,1,3,BlockProc1,Litter - ?,,8,,,,,trash,3845,,,,,,,,recallproc1
IS_JOL B,6,1,3,BlockProc1,Candle - ?,,44,,,,,wax,2704,,,,,,,,recallproc1
IS_JOL B,6,1,3,BlockProc1,Affection - ?,,20,,,,,love,1976,,,,,,,,recallproc1
IS_JOL B,6,1,3,BlockProc1,Cake - ?,,71,,,,,dessert,7173,,,,,,,,recallproc1
IS_JOL B,6,1,3,BlockProc1,Cat - ?,,31,,,,,panther,6367,,,,,,,,recallproc1
IS_JOL B,6,1,3,BlockProc1,Furry - ?,,7,,,,,dog,3674,,,,,,,,recallproc1
IS_JOL B,6,1,3,BlockProc1,Tantrum - ?,,59,,,,,children,12090,,,,,,,,recallproc1
IS_JOL B,6,1,3,BlockProc1,Pop - ?,,28,,,,,noise,3497,,,,,,,,recallproc1
IS_JOL B,6,1,3,BlockProc1,Stretch - ?,,62,,,,,morning,2554,,,,,,,,recallproc1
IS_JOL B,6,1,3,BlockProc1,Justice - ?,,61,,,,,even,2344,,,,,,,,recallproc1
IS_JOL B,6,1,3,BlockProc1,Phone - ?,,54,,,,,call,2607,,,,,,,,recallproc1
IS_JOL B,6,1,3,BlockProc1,Keys - ?,,70,,,,,car,6875,,,,,,,,recallproc1
IS_JOL B,6,1,3,BlockProc1,Turn - ?,,21,,,,,flip,2872,,,,,,,,recallproc1
IS_JOL B,6,1,3,BlockProc1,Fight - ?,,40,,,,,brawl,3929,,,,,,,,recallproc1
IS_JOL B,6,1,3,BlockProc1,Wrist - ?,,45,,,,,braceet,4143,,,,,,,,recallproc1
IS_JOL B,6,1,3,BlockProc1,Bird - ?,,24,,,,,penguin,4988,,,,,,,,recallproc1
IS_JOL B,6,1,3,BlockProc1,Flea - ?,,56,,,,,tick,2135,,,,,,,,recallproc1
IS_JOL B,6,1,3,BlockProc1,Star - ?,,25,,,,,actress,3855,,,,,,,,recallproc1
IS_JOL B,6,1,3,BlockProc1,Fish - ?,,35,,,,,sardine,3512,,,,,,,,recallproc1
IS_JOL B,6,1,3,BlockProc1,Even - ?,,27,,,,,revenge,17223,,,,,,,,recallproc1
IS_JOL B,6,2,3,BlockProc2,Sheriff - Police,,1,,,,,,,,,,,,,,StudyProc4
IS_JOL B,6,2,3,BlockProc2,Hide - Scare,,2,,,,,,,,,,,,,,StudyProc4
IS_JOL B,6,2,3,BlockProc2,Malt - Chocolate,,5,,,,,,,,,,,,,,StudyProc4
IS_JOL B,6,2,3,BlockProc2,Essay - Write,,4,,,,,,,,,,,,,,StudyProc4
IS_JOL B,6,2,3,BlockProc2,Disintegrate - Disappear,,3,,,,,,,,,,,,,,StudyProc4
IS_JOL B,6,2,3,BlockProc2,Herd - Cow,F,17,,,60,5233,,,,,,,,,,StudyProc5
IS_JOL B,6,2,3,BlockProc2,Hygiene - Clean,F,12,,,60,9874,,,,,,,,,,StudyProc5
IS_JOL B,6,2,3,BlockProc2,Smell - Stench,B,37,,,40,13228,,,,,,,,,,StudyProc5
IS_JOL B,6,2,3,BlockProc2,Law - Attorney,B,29,,,50,16054,,,,,,,,,,StudyProc5
IS_JOL B,6,2,3,BlockProc2,Sentence - Word,B,26,,,40,12107,,,,,,,,,,StudyProc5
IS_JOL B,6,2,3,BlockProc2,Fire - Blaze,B,40,,,20,16674,,,,,,,,,,StudyProc5
IS_JOL B,6,2,3,BlockProc2,Swan - Bird,F,9,,,40,12558,,,,,,,,,,StudyProc5
IS_JOL B,6,2,3,BlockProc2,Drink - Sip,B,22,,,20,7619,,,,,,,,,,StudyProc5
IS_JOL B,6,2,3,BlockProc2,Tuna - Fish,F,20,,,50,6090,,,,,,,,,,StudyProc5
IS_JOL B,6,2,3,BlockProc2,Dark - Cave,B,23,,,20,15008,,,,,,,,,,StudyProc5
IS_JOL B,6,2,3,BlockProc2,Math - Division,B,28,,,30,8208,,,,,,,,,,StudyProc5
IS_JOL B,6,2,3,BlockProc2,Work - Chore,B,34,,,50,9039,,,,,,,,,,StudyProc5
IS_JOL B,6,2,3,BlockProc2,Height - Growth,B,25,,,20,7820,,,,,,,,,,StudyProc5
IS_JOL B,6,2,3,BlockProc2,Hornet - Sting,F,6,,,40,8587,,,,,,,,,,StudyProc5
IS_JOL B,6,2,3,BlockProc2,Bitter - Cold,F,7,,,20,12843,,,,,,,,,,StudyProc5
IS_JOL B,6,2,3,BlockProc2,Full - Enough,B,21,,,20,9828,,,,,,,,,,StudyProc5
IS_JOL B,6,2,3,BlockProc2,Root - Plant,F,8,,,20,9288,,,,,,,,,,StudyProc5
IS_JOL B,6,2,3,BlockProc2,Revolution - War,F,15,,,60,11778,,,,,,,,,,StudyProc5
IS_JOL B,6,2,3,BlockProc2,Plane - Pilot,B,39,,,70,4951,,,,,,,,,,StudyProc5
IS_JOL B,6,2,3,BlockProc2,Discussion - Talk,F,16,,,40,8036,,,,,,,,,,StudyProc5
IS_JOL B,6,2,3,BlockProc2,Way - Out,F,11,,,50,8514,,,,,,,,,,StudyProc5
IS_JOL B,6,2,3,BlockProc2,Geology - Rock,F,14,,,40,13804,,,,,,,,,,StudyProc5
IS_JOL B,6,2,3,BlockProc2,Clothes - Attire,B,38,,,50,7917,,,,,,,,,,StudyProc5
IS_JOL B,6,2,3,BlockProc2,Orchid - Flower,F,19,,,6,8664,,,,,,,,,,StudyProc5
IS_JOL B,6,2,3,BlockProc2,Take - Seize,B,24,,,40,16756,,,,,,,,,,StudyProc5
IS_JOL B,6,2,3,BlockProc2,Digestion - Stomach,F,2,,,50,8292,,,,,,,,,,StudyProc5
IS_JOL B,6,2,3,BlockProc2,Bridge - Water,F,13,,,50,4864,,,,,,,,,,StudyProc5
IS_JOL B,6,2,3,BlockProc2,Sleep - Drowsy,B,36,,,50,6815,,,,,,,,,,StudyProc5
IS_JOL B,6,2,3,BlockProc2,Paw - Dog,F,10,,,60,9487,,,,,,,,,,StudyProc5
IS_JOL B,6,2,3,BlockProc2,Chisel - Hammer,F,4,,,60,8618,,,,,,,,,,StudyProc5
IS_JOL B,6,2,3,BlockProc2,Wage - Money,F,3,,,50,6808,,,,,,,,,,StudyProc5
IS_JOL B,6,2,3,BlockProc2,Key - Latch,B,31,,,50,8663,,,,,,,,,,StudyProc5
IS_JOL B,6,2,3,BlockProc2,Great - Fantastic,B,30,,,40,9283,,,,,,,,,,StudyProc5
IS_JOL B,6,2,3,BlockProc2,Hot - Chili,B,32,,,40,6142,,,,,,,,,,StudyProc5
IS_JOL B,6,2,3,BlockProc2,Ball - Racket,B,33,,,40,11201,,,,,,,,,,StudyProc5
IS_JOL B,6,2,3,BlockProc2,Credit - Card,F,18,,,40,8085,,,,,,,,,,StudyProc5
IS_JOL B,6,2,3,BlockProc2,Editor - News,F,5,,,40,9593,,,,,,,,,,StudyProc5
IS_JOL B,6,2,3,BlockProc2,Hunger - Famine,B,35,,,50,5136,,,,,,,,,,StudyProc5
IS_JOL B,6,2,3,BlockProc2,Delinquent - Bad,F,1,,,40,8868,,,,,,,,,,StudyProc5
IS_JOL B,6,2,3,BlockProc2,Bug - Wasp,B,27,,,50,9952,,,,,,,,,,StudyProc5
IS_JOL B,6,2,3,BlockProc2,Dietary - Slacking,U,62,,,,,,,,,,0,19120,,,StudyProc8
IS_JOL B,6,2,3,BlockProc2,Park - Hungry,U,63,,,,,,,,,,0,7663,,,StudyProc8
IS_JOL B,6,2,3,BlockProc2,Shoe - Foot,S,55,,,,,,,,,,80,4628,,,StudyProc8
IS_JOL B,6,2,3,BlockProc2,Machine - Position,U,71,,,,,,,,,,30,11118,,,StudyProc8
IS_JOL B,6,2,3,BlockProc2,Bathroom - Toilet,S,53,,,,,,,,,,50,11822,,,StudyProc8
IS_JOL B,6,2,3,BlockProc2,Sugar - Riddle,U,76,,,,,,,,,,0,13000,,,StudyProc8
IS_JOL B,6,2,3,BlockProc2,Trial - Jury,S,45,,,,,,,,,,3,17218,,,StudyProc8
IS_JOL B,6,2,3,BlockProc2,Due - Assignment,S,41,,,,,,,,,,30,8672,,,StudyProc8
IS_JOL B,6,2,3,BlockProc2,Debate - Sight,U,68,,,,,,,,,,0,6764,,,StudyProc8
IS_JOL B,6,2,3,BlockProc2,Blow - Wind,S,50,,,,,,,,,,30,11582,,,StudyProc8
IS_JOL B,6,2,3,BlockProc2,Lift - Woman,U,64,,,,,,,,,,2,9899,,,StudyProc8
IS_JOL B,6,2,3,BlockProc2,Strong - Accident,U,75,,,,,,,,,,0,14667,,,StudyProc8
IS_JOL B,6,2,3,BlockProc2,Honey - Bee,S,58,,,,,,,,,,50,11377,,,StudyProc8
IS_JOL B,6,2,3,BlockProc2,Dump - Waste,S,44,,,,,,,,,,40,8575,,,StudyProc8
IS_JOL B,6,2,3,BlockProc2,Baby - Child,S,59,,,,,,,,,,50,10063,,,StudyProc8
IS_JOL B,6,2,3,BlockProc2,Choice - Decision,S,57,,,,,,,,,,50,5577,,,StudyProc8
IS_JOL B,6,2,3,BlockProc2,Begin - End,S,49,,,,,,,,,,60,6349,,,StudyProc8
IS_JOL B,6,2,3,BlockProc2,Circle - Round,S,60,,,,,,,,,,60,9343,,,StudyProc8
IS_JOL B,6,2,3,BlockProc2,Fix - Hand,U,70,,,,,,,,,,10,6623,,,StudyProc8
IS_JOL B,6,2,3,BlockProc2,Past - Future,S,56,,,,,,,,,,80,10551,,,StudyProc8
IS_JOL B,6,2,3,BlockProc2,Soon - Belt,U,65,,,,,,,,,,50,8494,,,StudyProc8
IS_JOL B,6,2,3,BlockProc2,Wine - Cheese,S,52,,,,,,,,,,80,6873,,,StudyProc8
IS_JOL B,6,2,3,BlockProc2,Art - Lion,U,74,,,,,,,,,,0,5639,,,StudyProc8
IS_JOL B,6,2,3,BlockProc2,King - Vase,U,80,,,,,,,,,,0,6030,,,StudyProc8
IS_JOL B,6,2,3,BlockProc2,Kidney - Liver,S,48,,,,,,,,,,10,11175,,,StudyProc8
IS_JOL B,6,2,3,BlockProc2,Pusher - Clutter,U,61,,,,,,,,,,0,7445,,,StudyProc8
IS_JOL B,6,2,3,BlockProc2,Number - Amount,S,42,,,,,,,,,,20,12450,,,StudyProc8
IS_JOL B,6,2,3,BlockProc2,Pop - Soda,S,51,,,,,,,,,,50,8227,,,StudyProc8
IS_JOL B,6,2,3,BlockProc2,Grill - Bar,S,47,,,,,,,,,,50,8145,,,StudyProc8
IS_JOL B,6,2,3,BlockProc2,Hide - Sick,U,79,,,,,,,,,,30,9810,,,StudyProc8
IS_JOL B,6,2,3,BlockProc2,Valley - Add,U,77,,,,,,,,,,40,9888,,,StudyProc8
IS_JOL B,6,2,3,BlockProc2,Location - Site,S,43,,,,,,,,,,30,7330,,,StudyProc8
IS_JOL B,6,2,3,BlockProc2,Discover - Floor,U,66,,,,,,,,,,0,9756,,,StudyProc8
IS_JOL B,6,2,3,BlockProc2,Death - Business,U,67,,,,,,,,,,20,10956,,,StudyProc8
IS_JOL B,6,2,3,BlockProc2,Allow - Tuck,U,73,,,,,,,,,,20,9538,,,StudyProc8
IS_JOL B,6,2,3,BlockProc2,Lettuce - Salad,S,54,,,,,,,,,,20,22427,,,StudyProc8
IS_JOL B,6,2,3,BlockProc2,Happy - Car,U,72,,,,,,,,,,10,7643,,,StudyProc8
IS_JOL B,6,2,3,BlockProc2,Cash - Would,U,78,,,,,,,,,,0,11105,,,StudyProc8
IS_JOL B,6,2,3,BlockProc2,Artery - Bronze,U,69,,,,,,,,,,0,11737,,,StudyProc8
IS_JOL B,6,2,3,BlockProc2,Architecture - Design,S,46,,,,,,,,,,50,7647,,,StudyProc8
IS_JOL B,6,2,3,BlockProc2,Deciet - Cheat,,1,,,,,,,,,,,,,,StudyProc6
IS_JOL B,6,2,3,BlockProc2,Deaf - Hear,,3,,,,,,,,,,,,,,StudyProc6
IS_JOL B,6,2,3,BlockProc2,Contest - Competition,,5,,,,,,,,,,,,,,StudyProc6
IS_JOL B,6,2,3,BlockProc2,Mind - Matter,,2,,,,,,,,,,,,,,StudyProc6
IS_JOL B,6,2,3,BlockProc2,Magician - Magic,,4,,,,,,,,,,,,,,StudyProc6
IS_JOL B,6,2,3,BlockProc2,Circle - ?,,60,,,,,,,round,,,,,,,recallproc2
IS_JOL B,6,2,3,BlockProc2,Hide - ?,,79,,,,,,,away,,,,,,,recallproc2
IS_JOL B,6,2,3,BlockProc2,Swan - ?,,9,,,,,,,bird,,,,,,,recallproc2
IS_JOL B,6,2,3,BlockProc2,Chisel - ?,,4,,,,,,,hammer,,,,,,,recallproc2
IS_JOL B,6,2,3,BlockProc2,Dark - ?,,23,,,,,,,cav,,,,,,,recallproc2
IS_JOL B,6,2,3,BlockProc2,Tuna - ?,,20,,,,,,,fish,,,,,,,recallproc2
IS_JOL B,6,2,3,BlockProc2,Discussion - ?,,16,,,,,,,talk,,,,,,,recallproc2
IS_JOL B,6,2,3,BlockProc2,Discover - ?,,66,,,,,,,find,,,,,,,recallproc2
IS_JOL B,6,2,3,BlockProc2,Hunger - ?,,35,,,,,,,famine,,,,,,,recallproc2
IS_JOL B,6,2,3,BlockProc2,Honey - ?,,58,,,,,,,bee,,,,,,,recallproc2
IS_JOL B,6,2,3,BlockProc2,Fire - ?,,40,,,,,,,blaze,,,,,,,recallproc2
IS_JOL B,6,2,3,BlockProc2,Ball - ?,,33,,,,,,,racket,,,,,,,recallproc2
IS_JOL B,6,2,3,BlockProc2,Editor - ?,,5,,,,,,,news,,,,,,,recallproc2
IS_JOL B,6,2,3,BlockProc2,Begin - ?,,49,,,,,,,end,,,,,,,recallproc2
IS_JOL B,6,2,3,BlockProc2,Wage - ?,,3,,,,,,,slary,,,,,,,recallproc2
IS_JOL B,6,2,3,BlockProc2,Debate - ?,,68,,,,,,,argment,,,,,,,recallproc2
IS_JOL B,6,2,3,BlockProc2,Drink - ?,,22,,,,,,,sip,,,,,,,recallproc2
IS_JOL B,6,2,3,BlockProc2,Key - ?,,31,,,,,,,latch,,,,,,,recallproc2
IS_JOL B,6,2,3,BlockProc2,Wine - ?,,52,,,,,,,cheese,,,,,,,recallproc2
IS_JOL B,6,2,3,BlockProc2,Hornet - ?,,6,,,,,,,sting,,,,,,,recallproc2
IS_JOL B,6,2,3,BlockProc2,Great - ?,,30,,,,,,,fantastic,,,,,,,recallproc2
IS_JOL B,6,2,3,BlockProc2,Soon - ?,,65,,,,,,,maybe,,,,,,,recallproc2
IS_JOL B,6,2,3,BlockProc2,Lift - ?,,64,,,,,,,tuck,,,,,,,recallproc2
IS_JOL B,6,2,3,BlockProc2,Bug - ?,,27,,,,,,,bee,,,,,,,recallproc2
IS_JOL B,6,2,3,BlockProc2,Fix - ?,,70,,,,,,,turn,,,,,,,recallproc2
IS_JOL B,6,2,3,BlockProc2,Death - ?,,67,,,,,,,coffin,,,,,,,recallproc2
IS_JOL B,6,2,3,BlockProc2,Due - ?,,41,,,,,,,assignment,,,,,,,recallproc2
IS_JOL B,6,2,3,BlockProc2,Baby - ?,,59,,,,,,,child,,,,,,,recallproc2
