"Username","Trial","Condition.Number","Condition.Description","Condition.Notes","Stimuli.Cue","Stimuli.Answer","Stimuli.Shuffle","Stimuli.Stimuli.Notes","Procedure.Trial.Type","Procedure.Shuffle","Response.RT","Response.Response","Response.JOL"
"55885869fdf99b4020ba0b64",24,18,"BACKWARD IS VERSION B","NEW","GIVE","STEAK","ON2","U","JOL","Study Phase",3814,"","60"
"55885869fdf99b4020ba0b64",25,18,"BACKWARD IS VERSION B","NEW","MONEY","BANKER","ON2","B","JOL","Study Phase",2396,"","45"
"55885869fdf99b4020ba0b64",26,18,"BACKWARD IS VERSION B","NEW","MULE","DONKEY","ON2","F","JOL","Study Phase",3144,"","62"
"55885869fdf99b4020ba0b64",27,18,"BACKWARD IS VERSION B","NEW","CAKE","CLOTHES","ON2","U","JOL","Study Phase",9690,"","45"
"55885869fdf99b4020ba0b64",28,18,"BACKWARD IS VERSION B","NEW","BOTH","OUNCE","ON2","U","JOL","Study Phase",4772,"","15"
"55885869fdf99b4020ba0b64",29,18,"BACKWARD IS VERSION B","NEW","FISH","SARDINE","ON2","B","JOL","Study Phase",3844,"","50"
"55885869fdf99b4020ba0b64",30,18,"BACKWARD IS VERSION B","NEW","AFFECTION","LOVE","ON2","F","JOL","Study Phase",3103,"","80"
"55885869fdf99b4020ba0b64",31,18,"BACKWARD IS VERSION B","NEW","BAD","VILLAIN","ON2","B","JOL","Study Phase",4071,"","95"
"55885869fdf99b4020ba0b64",32,18,"BACKWARD IS VERSION B","NEW","SLEEP","NAP","ON2","B","JOL","Study Phase",3549,"","88"
"55885869fdf99b4020ba0b64",33,18,"BACKWARD IS VERSION B","NEW","VEHICLE","CHARM","ON2","U","JOL","Study Phase",3330,"","10"
"55885869fdf99b4020ba0b64",34,18,"BACKWARD IS VERSION B","NEW","EVEN","REVENGE","ON2","B","JOL","Study Phase",2727,"","50"
"55885869fdf99b4020ba0b64",35,18,"BACKWARD IS VERSION B","NEW","MAZE","ELECTION","ON2","U","JOL","Study Phase",3529,"","80"
"55885869fdf99b4020ba0b64",36,18,"BACKWARD IS VERSION B","NEW","GLASS","BREAKABLE","ON2","B","JOL","Study Phase",3069,"","90"
"55885869fdf99b4020ba0b64",37,18,"BACKWARD IS VERSION B","NEW","CAR","WINDSHIELD","ON2","B","JOL","Study Phase",6787,"","97"
"55885869fdf99b4020ba0b64",38,18,"BACKWARD IS VERSION B","NEW","SHEARS","SCISSORS","ON2","F","JOL","Study Phase",2988,"","25"
"55885869fdf99b4020ba0b64",39,18,"BACKWARD IS VERSION B","NEW","FURRY","DOG","ON2","F","JOL","Study Phase",2390,"","100"
"55885869fdf99b4020ba0b64",40,18,"BACKWARD IS VERSION B","NEW","MEAT","OBTAIN","ON2","U","JOL","Study Phase",5672,"","30"
"55885869fdf99b4020ba0b64",41,18,"BACKWARD IS VERSION B","NEW","FIGHT","BRAWL","ON2","B","JOL","Study Phase",3011,"","50"
"55885869fdf99b4020ba0b64",42,18,"BACKWARD IS VERSION B","NEW","TURN","FLIP","ON2","B","JOL","Study Phase",6573,"","84"
"55885869fdf99b4020ba0b64",43,18,"BACKWARD IS VERSION B","NEW","SHOELACE","TIE","ON2","F","JOL","Study Phase",2417,"","50"
"55885869fdf99b4020ba0b64",44,18,"BACKWARD IS VERSION B","NEW","POP","BALLOON","ON2","B","JOL","Study Phase",5034,"","40"
"55885869fdf99b4020ba0b64",45,18,"BACKWARD IS VERSION B","NEW","CHERRY","RED","ON2","F","JOL","Study Phase",2081,"","100"
"55885869fdf99b4020ba0b64",46,18,"BACKWARD IS VERSION B","NEW","ROD","REEL","ON2","S","JOL","Study Phase",3066,"","95"
"55885869fdf99b4020ba0b64",47,18,"BACKWARD IS VERSION B","NEW","MASON","JAR","ON2","S","JOL","Study Phase",4041,"","87"
"55885869fdf99b4020ba0b64",48,18,"BACKWARD IS VERSION B","NEW","EXTENSION","LONG","ON2","F","JOL","Study Phase",5712,"","95"
"55885869fdf99b4020ba0b64",49,18,"BACKWARD IS VERSION B","NEW","CACTUS","PLANT","ON2","F","JOL","Study Phase",10785,"","95"
"55885869fdf99b4020ba0b64",50,18,"BACKWARD IS VERSION B","NEW","THREAD","THIMBLE","ON2","B","JOL","Study Phase",2995,"","80"
"55885869fdf99b4020ba0b64",51,18,"BACKWARD IS VERSION B","NEW","DETECTIVE","MYSTERY","ON2","F","JOL","Study Phase",11401,"","10"
"55885869fdf99b4020ba0b64",52,18,"BACKWARD IS VERSION B","NEW","MIRROR","CHILDREN","ON2","U","JOL","Study Phase",10742,"","10"
"55885869fdf99b4020ba0b64",53,18,"BACKWARD IS VERSION B","NEW","BASEBALL","LEAGUE","ON2","B","JOL","Study Phase",3382,"","51"
"55885869fdf99b4020ba0b64",54,18,"BACKWARD IS VERSION B","NEW","BIRD","PENGUIN","ON2","B","JOL","Study Phase",2959,"","80"
"55885869fdf99b4020ba0b64",55,18,"BACKWARD IS VERSION B","NEW","FLEA","TICK","ON2","S","JOL","Study Phase",3234,"","85"
"55885869fdf99b4020ba0b64",56,18,"BACKWARD IS VERSION B","NEW","WATER","DRINK","ON2","S","JOL","Study Phase",14824,"","93"
"55885869fdf99b4020ba0b64",57,18,"BACKWARD IS VERSION B","NEW","LITTER","TRASH","ON2","F","JOL","Study Phase",9654,"","55"
"55885869fdf99b4020ba0b64",58,18,"BACKWARD IS VERSION B","NEW","ELEMENT","CARBON","ON2","S","JOL","Study Phase",4985,"","10"
"55885869fdf99b4020ba0b64",60,18,"BACKWARD IS VERSION B","NEW","LEASE","TOIL","ON2","U","JOL","Study Phase",6597,"","20"
"55885869fdf99b4020ba0b64",61,18,"BACKWARD IS VERSION B","NEW","PLANE","AIRCRAFT","ON2","B","JOL","Study Phase",6052,"","80"
"55885869fdf99b4020ba0b64",62,18,"BACKWARD IS VERSION B","NEW","CANDLE","WAX","ON2","S","JOL","Study Phase",2187,"","95"
"55885869fdf99b4020ba0b64",63,18,"BACKWARD IS VERSION B","NEW","LISTEN","FICTION","ON2","U","JOL","Study Phase",3476,"","75"
"55885869fdf99b4020ba0b64",64,18,"BACKWARD IS VERSION B","NEW","RAZOR","SHAVE","ON2","S","JOL","Study Phase",3577,"","60"
"55885869fdf99b4020ba0b64",65,18,"BACKWARD IS VERSION B","NEW","DOCUMENT","PAPER","ON2","F","JOL","Study Phase",2686,"","80"
"55885869fdf99b4020ba0b64",66,18,"BACKWARD IS VERSION B","NEW","ADJOURN","END","ON2","F","JOL","Study Phase",3706,"","10"
"55885869fdf99b4020ba0b64",67,18,"BACKWARD IS VERSION B","NEW","FEUD","FIGHT","ON2","F","JOL","Study Phase",5921,"","90"
"55885869fdf99b4020ba0b64",68,18,"BACKWARD IS VERSION B","NEW","WRIST","BRACELET","ON2","S","JOL","Study Phase",9535,"","25"
"55885869fdf99b4020ba0b64",69,18,"BACKWARD IS VERSION B","NEW","MAIN","SCAR","ON2","U","JOL","Study Phase",3844,"","90"
"55885869fdf99b4020ba0b64",70,18,"BACKWARD IS VERSION B","NEW","PHONE","COMMUNICATION","ON2","S","JOL","Study Phase",5041,"","75"
"55885869fdf99b4020ba0b64",71,18,"BACKWARD IS VERSION B","NEW","INCENSE","SMELL","ON2","F","JOL","Study Phase",7438,"","98"
"55885869fdf99b4020ba0b64",72,18,"BACKWARD IS VERSION B","NEW","CHILL","COLD","ON2","F","JOL","Study Phase",8092,"","50"
"55885869fdf99b4020ba0b64",73,18,"BACKWARD IS VERSION B","NEW","EARTH","GROUND","ON2","S","JOL","Study Phase",1436,"","25"
"55885869fdf99b4020ba0b64",74,18,"BACKWARD IS VERSION B","NEW","DEAD","COFFIN","ON2","B","JOL","Study Phase",3916,"","60"
"55885869fdf99b4020ba0b64",75,18,"BACKWARD IS VERSION B","NEW","FUZZY","BANG","ON2","U","JOL","Study Phase",6684,"","50"
"55885869fdf99b4020ba0b64",76,18,"BACKWARD IS VERSION B","NEW","CRACKLE","ABLE","ON2","U","JOL","Study Phase",33918,"","77"
"55885869fdf99b4020ba0b64",77,18,"BACKWARD IS VERSION B","NEW","SUN","TAN","ON2","S","JOL","Study Phase",2710,"","50"
"55885869fdf99b4020ba0b64",78,18,"BACKWARD IS VERSION B","NEW","ALONE","LONELY","ON2","S","JOL","Study Phase",2741,"","65"
"55885869fdf99b4020ba0b64",79,18,"BACKWARD IS VERSION B","NEW","SHELL","SHAKE","ON2","U","JOL","Study Phase",2416,"","5"
"55885869fdf99b4020ba0b64",80,18,"BACKWARD IS VERSION B","NEW","RIGHTS","EQUAL","ON2","S","JOL","Study Phase",2771,"","10"
"55885869fdf99b4020ba0b64",81,18,"BACKWARD IS VERSION B","NEW","TRUTH","LIE","ON2","S","JOL","Study Phase",2312,"","50"
"55885869fdf99b4020ba0b64",82,18,"BACKWARD IS VERSION B","NEW","STRETCH","CLOTH","ON2","U","JOL","Study Phase",3912,"","30"
"55885869fdf99b4020ba0b64",83,18,"BACKWARD IS VERSION B","NEW","HONEST","TRUTHFUL","ON2","B","JOL","Study Phase",3155,"","50"
"55885869fdf99b4020ba0b64",84,18,"BACKWARD IS VERSION B","NEW","JUSTICE","MAROON","ON2","U","JOL","Study Phase",9411,"","5"
"55885869fdf99b4020ba0b64",85,18,"BACKWARD IS VERSION B","NEW","NAME","HATE","ON2","U","JOL","Study Phase",1966,"","20"
"55885869fdf99b4020ba0b64",86,18,"BACKWARD IS VERSION B","NEW","OWN","HAVE","ON2","S","JOL","Study Phase",9987,"","50"
"55885869fdf99b4020ba0b64",87,18,"BACKWARD IS VERSION B","NEW","CHOP","CUT","ON2","F","JOL","Study Phase",2641,"","60"
"55885869fdf99b4020ba0b64",88,18,"BACKWARD IS VERSION B","NEW","LOUD","NOISE","ON2","S","JOL","Study Phase",3472,"","70"
"55885869fdf99b4020ba0b64",89,18,"BACKWARD IS VERSION B","NEW","TANTRUM","TEMPER","ON2","S","JOL","Study Phase",2877,"","50"
"55885869fdf99b4020ba0b64",90,18,"BACKWARD IS VERSION B","NEW","STAR","ACTRESS","ON2","B","JOL","Study Phase",3281,"","20"
"55885869fdf99b4020ba0b64",91,18,"BACKWARD IS VERSION B","NEW","SCALP","HEAD","ON2","F","JOL","Study Phase",3936,"","80"
"55885869fdf99b4020ba0b64",92,18,"BACKWARD IS VERSION B","NEW","KEYS","JOKE","ON2","U","JOL","Study Phase",3714,"","84"
"55885869fdf99b4020ba0b64",93,18,"BACKWARD IS VERSION B","NEW","CAT","PANTHER","ON2","B","JOL","Study Phase",2814,"","62"
"55885869fdf99b4020ba0b64",94,18,"BACKWARD IS VERSION B","NEW","CLUE","GAME","ON2","F","JOL","Study Phase",2930,"","55"
"55885869fdf99b4020ba0b64",95,18,"BACKWARD IS VERSION B","NEW","LOAN","SIGN","ON2","U","JOL","Study Phase",10752,"","65"
"55885869fdf99b4020ba0b64",96,18,"BACKWARD IS VERSION B","NEW","DRIVER","CAR","ON2","F","JOL","Study Phase",2096,"","50"
"55885869fdf99b4020ba0b64",97,18,"BACKWARD IS VERSION B","NEW","SAFETY","SEATBELT","ON2","S","JOL","Study Phase",10782,"","65"
"55885869fdf99b4020ba0b64",98,18,"BACKWARD IS VERSION B","NEW","DRY","WET","ON2","S","JOL","Study Phase",3526,"","90"
"55885869fdf99b4020ba0b64",99,18,"BACKWARD IS VERSION B","NEW","TEMPERATURE","MORNING","ON2","U","JOL","Study Phase",8797,"","70"
"55885869fdf99b4020ba0b64",100,18,"BACKWARD IS VERSION B","NEW","GONE","AWAY","ON2","S","JOL","Study Phase",4737,"","100"
"55885869fdf99b4020ba0b64",101,18,"BACKWARD IS VERSION B","NEW","DINE","EAT","ON2","F","JOL","Study Phase",2744,"","95"
"55885869fdf99b4020ba0b64",102,18,"BACKWARD IS VERSION B","NEW","MOAT","CLEAR","ON2","U","JOL","Study Phase",3608,"","32"
"55885869fdf99b4020ba0b64",103,18,"BACKWARD IS VERSION B","NEW","FRUIT","STRAWBERRY","ON2","B","JOL","Study Phase",3071,"","100"
"55885869fdf99b4020ba0b64",104,18,"BACKWARD IS VERSION B","NEW","BEST","FAVORITE","ON2","B","JOL","Study Phase",4687,"","65"
"55885869fdf99b4020ba0b64",115,18,"BACKWARD IS VERSION B","NEW","CAR","WINDSHIELD","ON2","B","Test","Recall1",5480,"Truck",NA
"55885869fdf99b4020ba0b64",116,18,"BACKWARD IS VERSION B","NEW","FIGHT","BRAWL","ON2","B","Test","Recall1",2280,"Fued",NA
"55885869fdf99b4020ba0b64",117,18,"BACKWARD IS VERSION B","NEW","TANTRUM","TEMPER","ON2","S","Test","Recall1",3242,"Upset",NA
"55885869fdf99b4020ba0b64",118,18,"BACKWARD IS VERSION B","NEW","GLASS","BREAKABLE","ON2","B","Test","Recall1",2407,"Cup",NA
"55885869fdf99b4020ba0b64",119,18,"BACKWARD IS VERSION B","NEW","SHELL","SHAKE","ON2","U","Test","Recall1",3015,"Turtle",NA
"55885869fdf99b4020ba0b64",120,18,"BACKWARD IS VERSION B","NEW","CHOP","CUT","ON2","F","Test","Recall1",1670,"Cut",NA
"55885869fdf99b4020ba0b64",121,18,"BACKWARD IS VERSION B","NEW","MEAT","OBTAIN","ON2","U","Test","Recall1",2557,"Animal",NA
"55885869fdf99b4020ba0b64",122,18,"BACKWARD IS VERSION B","NEW","NAME","HATE","ON2","U","Test","Recall1",2450,"Person",NA
"55885869fdf99b4020ba0b64",123,18,"BACKWARD IS VERSION B","NEW","DOCUMENT","PAPER","ON2","F","Test","Recall1",1416,"Paper",NA
"55885869fdf99b4020ba0b64",124,18,"BACKWARD IS VERSION B","NEW","SAFETY","SEATBELT","ON2","S","Test","Recall1",3555,"Cautious",NA
"55885869fdf99b4020ba0b64",125,18,"BACKWARD IS VERSION B","NEW","SHEARS","SCISSORS","ON2","F","Test","Recall1",5190,"Scissors ",NA
"55885869fdf99b4020ba0b64",126,18,"BACKWARD IS VERSION B","NEW","LOAN","SIGN","ON2","U","Test","Recall1",3152,"Borrow",NA
"55885869fdf99b4020ba0b64",127,18,"BACKWARD IS VERSION B","NEW","CRACKLE","ABLE","ON2","U","Test","Recall1",7416,"Noise",NA
"55885869fdf99b4020ba0b64",128,18,"BACKWARD IS VERSION B","NEW","SLEEP","NAP","ON2","B","Test","Recall1",1586,"Nap",NA
"55885869fdf99b4020ba0b64",129,18,"BACKWARD IS VERSION B","NEW","DETECTIVE","MYSTERY","ON2","F","Test","Recall1",4266,"Spy",NA
"55885869fdf99b4020ba0b64",130,18,"BACKWARD IS VERSION B","NEW","MAZE","ELECTION","ON2","U","Test","Recall1",3296,"Puzzle",NA
"55885869fdf99b4020ba0b64",131,18,"BACKWARD IS VERSION B","NEW","SCALP","HEAD","ON2","F","Test","Recall1",2235,"Head",NA
"55885869fdf99b4020ba0b64",132,18,"BACKWARD IS VERSION B","NEW","EXTENSION","LONG","ON2","F","Test","Recall1",5456,"Long",NA
"55885869fdf99b4020ba0b64",133,18,"BACKWARD IS VERSION B","NEW","TEMPERATURE","MORNING","ON2","U","Test","Recall1",1905,"Cold",NA
"55885869fdf99b4020ba0b64",134,18,"BACKWARD IS VERSION B","NEW","CHILL","COLD","ON2","F","Test","Recall1",1764,"Cold",NA
"55885869fdf99b4020ba0b64",135,18,"BACKWARD IS VERSION B","NEW","MASON","JAR","ON2","S","Test","Recall1",2019,"Jar",NA
"55885869fdf99b4020ba0b64",136,18,"BACKWARD IS VERSION B","NEW","FISH","SARDINE","ON2","B","Test","Recall1",3509,"Salmon",NA
"55885869fdf99b4020ba0b64",137,18,"BACKWARD IS VERSION B","NEW","DINE","EAT","ON2","F","Test","Recall1",2960,"Dinner",NA
"55885869fdf99b4020ba0b64",138,18,"BACKWARD IS VERSION B","NEW","SUN","TAN","ON2","S","Test","Recall1",2506,"Moon",NA
"55885869fdf99b4020ba0b64",139,18,"BACKWARD IS VERSION B","NEW","GIVE","STEAK","ON2","U","Test","Recall1",3448,"Charity",NA
"55885869fdf99b4020ba0b64",140,18,"BACKWARD IS VERSION B","NEW","DRIVER","CAR","ON2","F","Test","Recall1",2679,"Race",NA
"55885869fdf99b4020ba0b64",141,18,"BACKWARD IS VERSION B","NEW","LEASE","TOIL","ON2","U","Test","Recall1",1787,"Rent",NA
"55885869fdf99b4020ba0b64",142,18,"BACKWARD IS VERSION B","NEW","STRETCH","CLOTH","ON2","U","Test","Recall1",2821,"Muscl",NA
"55885869fdf99b4020ba0b64",143,18,"BACKWARD IS VERSION B","NEW","DRY","WET","ON2","S","Test","Recall1",2180,"Wet",NA
"55885869fdf99b4020ba0b64",144,18,"BACKWARD IS VERSION B","NEW","LISTEN","FICTION","ON2","U","Test","Recall1",2629,"Loud",NA
"55885869fdf99b4020ba0b64",145,18,"BACKWARD IS VERSION B","NEW","CHERRY","RED","ON2","F","Test","Recall1",1848,"Red",NA
"55885869fdf99b4020ba0b64",146,18,"BACKWARD IS VERSION B","NEW","GONE","AWAY","ON2","S","Test","Recall1",3973,"Lost",NA
"55885869fdf99b4020ba0b64",147,18,"BACKWARD IS VERSION B","NEW","BAD","VILLAIN","ON2","B","Test","Recall1",4697,"Angry",NA
"55885869fdf99b4020ba0b64",148,18,"BACKWARD IS VERSION B","NEW","INCENSE","SMELL","ON2","F","Test","Recall1",2227,"Smell",NA
"55885869fdf99b4020ba0b64",149,18,"BACKWARD IS VERSION B","NEW","POP","BALLOON","ON2","B","Test","Recall1",2168,"Loud",NA
"55885869fdf99b4020ba0b64",150,18,"BACKWARD IS VERSION B","NEW","FUZZY","BANG","ON2","U","Test","Recall1",1978,"Soft",NA
"55885869fdf99b4020ba0b64",151,18,"BACKWARD IS VERSION B","NEW","CACTUS","PLANT","ON2","F","Test","Recall1",2428,"Plant",NA
"55885869fdf99b4020ba0b64",152,18,"BACKWARD IS VERSION B","NEW","LITTER","TRASH","ON2","F","Test","Recall1",4812,"Messy",NA
"55885869fdf99b4020ba0b64",153,18,"BACKWARD IS VERSION B","NEW","LOUD","NOISE","ON2","S","Test","Recall1",2360,"Noise",NA
"55885869fdf99b4020ba0b64",154,18,"BACKWARD IS VERSION B","NEW","THREAD","THIMBLE","ON2","B","Test","Recall1",2295,"String",NA
"55885869fdf99b4020ba0b64",155,18,"BACKWARD IS VERSION B","NEW","PHONE","COMMUNICATION","ON2","S","Test","Recall1",2886,"Call",NA
"55885869fdf99b4020ba0b64",156,18,"BACKWARD IS VERSION B","NEW","JUSTICE","MAROON","ON2","U","Test","Recall1",4056,"Peace",NA
"55885869fdf99b4020ba0b64",157,18,"BACKWARD IS VERSION B","NEW","MAIN","SCAR","ON2","U","Test","Recall1",6231,"First",NA
"55885869fdf99b4020ba0b64",158,18,"BACKWARD IS VERSION B","NEW","AFFECTION","LOVE","ON2","F","Test","Recall1",1747,"Love",NA
"55885869fdf99b4020ba0b64",159,18,"BACKWARD IS VERSION B","NEW","MONEY","BANKER","ON2","B","Test","Recall1",3699,"Green",NA
"55885869fdf99b4020ba0b64",160,18,"BACKWARD IS VERSION B","NEW","WATER","DRINK","ON2","S","Test","Recall1",7290,"Liquid ",NA
"55885869fdf99b4020ba0b64",161,18,"BACKWARD IS VERSION B","NEW","FRUIT","STRAWBERRY","ON2","B","Test","Recall1",2963,"Strawberry",NA
"55885869fdf99b4020ba0b64",162,18,"BACKWARD IS VERSION B","NEW","CLUE","GAME","ON2","F","Test","Recall1",2297,"Hint",NA
"55885869fdf99b4020ba0b64",163,18,"BACKWARD IS VERSION B","NEW","BASEBALL","LEAGUE","ON2","B","Test","Recall1",1837,"Sport",NA
"55885869fdf99b4020ba0b64",164,18,"BACKWARD IS VERSION B","NEW","BEST","FAVORITE","ON2","B","Test","Recall1",4196,"Greatest",NA
"55885869fdf99b4020ba0b64",165,18,"BACKWARD IS VERSION B","NEW","SHOELACE","TIE","ON2","F","Test","Recall1",2430,"Tie",NA
"55885869fdf99b4020ba0b64",166,18,"BACKWARD IS VERSION B","NEW","FLEA","TICK","ON2","S","Test","Recall1",2196,"Tick",NA
"55885869fdf99b4020ba0b64",167,18,"BACKWARD IS VERSION B","NEW","FEUD","FIGHT","ON2","F","Test","Recall1",2322,"Fight",NA
"55885869fdf99b4020ba0b64",168,18,"BACKWARD IS VERSION B","NEW","STAR","ACTRESS","ON2","B","Test","Recall1",3967,"Actress",NA
"55885869fdf99b4020ba0b64",169,18,"BACKWARD IS VERSION B","NEW","ROD","REEL","ON2","S","Test","Recall1",5611,"Red",NA
"55885869fdf99b4020ba0b64",170,18,"BACKWARD IS VERSION B","NEW","BOTH","OUNCE","ON2","U","Test","Recall1",2867,"Tie",NA
"55885869fdf99b4020ba0b64",171,18,"BACKWARD IS VERSION B","NEW","TURN","FLIP","ON2","B","Test","Recall1",5122,"Left",NA
"55885869fdf99b4020ba0b64",172,18,"BACKWARD IS VERSION B","NEW","MIRROR","CHILDREN","ON2","U","Test","Recall1",4452,"Reflection",NA
"55885869fdf99b4020ba0b64",173,18,"BACKWARD IS VERSION B","NEW","RAZOR","SHAVE","ON2","S","Test","Recall1",1647,"Shave",NA
"55885869fdf99b4020ba0b64",174,18,"BACKWARD IS VERSION B","NEW","ALONE","LONELY","ON2","S","Test","Recall1",2927,"Lonely",NA
"55885869fdf99b4020ba0b64",175,18,"BACKWARD IS VERSION B","NEW","BIRD","PENGUIN","ON2","B","Test","Recall1",2147,"Fish",NA
"55885869fdf99b4020ba0b64",176,18,"BACKWARD IS VERSION B","NEW","FURRY","DOG","ON2","F","Test","Recall1",2862,"Fuzzy",NA
"55885869fdf99b4020ba0b64",177,18,"BACKWARD IS VERSION B","NEW","OWN","HAVE","ON2","S","Test","Recall1",2434,"Given",NA
"55885869fdf99b4020ba0b64",178,18,"BACKWARD IS VERSION B","NEW","KEYS","JOKE","ON2","U","Test","Recall1",2798,"Chime",NA
"55885869fdf99b4020ba0b64",179,18,"BACKWARD IS VERSION B","NEW","EARTH","GROUND","ON2","S","Test","Recall1",2410,"Green",NA
"55885869fdf99b4020ba0b64",180,18,"BACKWARD IS VERSION B","NEW","CANDLE","WAX","ON2","S","Test","Recall1",2203,"Fire",NA
"55885869fdf99b4020ba0b64",181,18,"BACKWARD IS VERSION B","NEW","PLANE","AIRCRAFT","ON2","B","Test","Recall1",3588,"Flight",NA
"55885869fdf99b4020ba0b64",182,18,"BACKWARD IS VERSION B","NEW","RIGHTS","EQUAL","ON2","S","Test","Recall1",9447,"Government",NA
"55885869fdf99b4020ba0b64",183,18,"BACKWARD IS VERSION B","NEW","EVEN","REVENGE","ON2","B","Test","Recall1",1960,"Tie",NA
"55885869fdf99b4020ba0b64",184,18,"BACKWARD IS VERSION B","NEW","HONEST","TRUTHFUL","ON2","B","Test","Recall1",2219,"Lie",NA
"55885869fdf99b4020ba0b64",185,18,"BACKWARD IS VERSION B","NEW","CAKE","CLOTHES","ON2","U","Test","Recall1",3745,"Pie",NA
"55885869fdf99b4020ba0b64",186,18,"BACKWARD IS VERSION B","NEW","MOAT","CLEAR","ON2","U","Test","Recall1",2676,"Water",NA
"55885869fdf99b4020ba0b64",187,18,"BACKWARD IS VERSION B","NEW","MULE","DONKEY","ON2","F","Test","Recall1",2301,"Donkey",NA
"55885869fdf99b4020ba0b64",188,18,"BACKWARD IS VERSION B","NEW","DEAD","COFFIN","ON2","B","Test","Recall1",1902,"Alive",NA
"55885869fdf99b4020ba0b64",189,18,"BACKWARD IS VERSION B","NEW","ADJOURN","END","ON2","F","Test","Recall1",3017,"Tie",NA
"55885869fdf99b4020ba0b64",190,18,"BACKWARD IS VERSION B","NEW","CAT","PANTHER","ON2","B","Test","Recall1",1605,"Dog",NA
"55885869fdf99b4020ba0b64",191,18,"BACKWARD IS VERSION B","NEW","TRUTH","LIE","ON2","S","Test","Recall1",1407,"Lie",NA
"55885869fdf99b4020ba0b64",192,18,"BACKWARD IS VERSION B","NEW","VEHICLE","CHARM","ON2","U","Test","Recall1",1415,"Car",NA
"55885869fdf99b4020ba0b64",193,18,"BACKWARD IS VERSION B","NEW","WRIST","BRACELET","ON2","S","Test","Recall1",4617,"Ankle",NA
"55885869fdf99b4020ba0b64",194,18,"BACKWARD IS VERSION B","NEW","ELEMENT","CARBON","ON2","S","Test","Recall1",2159,"Water",NA
"55885869fdf99b4020ba0b64",209,18,"BACKWARD IS VERSION B","NEW","SHOE","FOOT","ON","S","JOL","Study Phase2",3111,"","70"
"55885869fdf99b4020ba0b64",210,18,"BACKWARD IS VERSION B","NEW","DRINK","SIP","ON","B","JOL","Study Phase2",2362,"","45"
"55885869fdf99b4020ba0b64",211,18,"BACKWARD IS VERSION B","NEW","HIDE","SICK","ON","U","JOL","Study Phase2",2157,"","10"
"55885869fdf99b4020ba0b64",212,18,"BACKWARD IS VERSION B","NEW","KIDNEY","LIVER","ON","S","JOL","Study Phase2",3209,"","25"
"55885869fdf99b4020ba0b64",213,18,"BACKWARD IS VERSION B","NEW","BATHROOM","TOILET","ON","S","JOL","Study Phase2",3968,"","55"
"55885869fdf99b4020ba0b64",214,18,"BACKWARD IS VERSION B","NEW","SOON","BELT","ON","U","JOL","Study Phase2",2023,"","5"
"55885869fdf99b4020ba0b64",215,18,"BACKWARD IS VERSION B","NEW","CREDIT","CARD","ON","F","JOL","Study Phase2",1737,"","100"
"55885869fdf99b4020ba0b64",216,18,"BACKWARD IS VERSION B","NEW","KEY","LATCH","ON","B","JOL","Study Phase2",2192,"","90"
"55885869fdf99b4020ba0b64",217,18,"BACKWARD IS VERSION B","NEW","BUG","WASP","ON","B","JOL","Study Phase2",2547,"","40"
"55885869fdf99b4020ba0b64",218,18,"BACKWARD IS VERSION B","NEW","MACHINE","POSITION","ON","U","JOL","Study Phase2",2295,"","1"
"55885869fdf99b4020ba0b64",219,18,"BACKWARD IS VERSION B","NEW","GREAT","FANTASTIC","ON","B","JOL","Study Phase2",3719,"","19"
"55885869fdf99b4020ba0b64",220,18,"BACKWARD IS VERSION B","NEW","TAKE","SEIZE","ON","B","JOL","Study Phase2",2778,"","23"
"55885869fdf99b4020ba0b64",221,18,"BACKWARD IS VERSION B","NEW","SUGAR","RIDDLE","ON","U","JOL","Study Phase2",2995,"","6"
"55885869fdf99b4020ba0b64",222,18,"BACKWARD IS VERSION B","NEW","CHISEL","HAMMER","ON","F","JOL","Study Phase2",1748,"","2"
"55885869fdf99b4020ba0b64",223,18,"BACKWARD IS VERSION B","NEW","DEATH","BUSINESS","ON","U","JOL","Study Phase2",2204,"","2"
"55885869fdf99b4020ba0b64",224,18,"BACKWARD IS VERSION B","NEW","GRILL","BAR","ON","S","JOL","Study Phase2",1605,"","10"
"55885869fdf99b4020ba0b64",225,18,"BACKWARD IS VERSION B","NEW","TUNA","FISH","ON","F","JOL","Study Phase2",1894,"","50"
"55885869fdf99b4020ba0b64",226,18,"BACKWARD IS VERSION B","NEW","WORK","CHORE","ON","B","JOL","Study Phase2",2719,"","2"
"55885869fdf99b4020ba0b64",227,18,"BACKWARD IS VERSION B","NEW","WAGE","MONEY","ON","F","JOL","Study Phase2",1570,"","15"
"55885869fdf99b4020ba0b64",228,18,"BACKWARD IS VERSION B","NEW","ROOT","PLANT","ON","F","JOL","Study Phase2",2094,"","23"
"55885869fdf99b4020ba0b64",229,18,"BACKWARD IS VERSION B","NEW","TRIAL","JURY","ON","S","JOL","Study Phase2",1988,"","25"
"55885869fdf99b4020ba0b64",230,18,"BACKWARD IS VERSION B","NEW","DARK","CAVE","ON","B","JOL","Study Phase2",3573,"","10"
"55885869fdf99b4020ba0b64",231,18,"BACKWARD IS VERSION B","NEW","NUMBER","AMOUNT","ON","S","JOL","Study Phase2",1998,"","90"
"55885869fdf99b4020ba0b64",232,18,"BACKWARD IS VERSION B","NEW","CIRCLE","ROUND","ON","S","JOL","Study Phase2",3021,"","75"
"55885869fdf99b4020ba0b64",233,18,"BACKWARD IS VERSION B","NEW","DIGESTION","STOMACH","ON","F","JOL","Study Phase2",2276,"","20"
"55885869fdf99b4020ba0b64",234,18,"BACKWARD IS VERSION B","NEW","VALLEY","ADD","ON","U","JOL","Study Phase2",2647,"","5"
"55885869fdf99b4020ba0b64",235,18,"BACKWARD IS VERSION B","NEW","HAPPY","CAR","ON","U","JOL","Study Phase2",3270,"","12"
"55885869fdf99b4020ba0b64",236,18,"BACKWARD IS VERSION B","NEW","GEOLOGY","ROCK","ON","F","JOL","Study Phase2",2162,"","30"
"55885869fdf99b4020ba0b64",237,18,"BACKWARD IS VERSION B","NEW","BITTER","COLD","ON","F","JOL","Study Phase2",1938,"","20"
"55885869fdf99b4020ba0b64",238,18,"BACKWARD IS VERSION B","NEW","ARCHITECTURE","DESIGN","ON","S","JOL","Study Phase2",1819,"","5"
"55885869fdf99b4020ba0b64",239,18,"BACKWARD IS VERSION B","NEW","PAW","DOG","ON","F","JOL","Study Phase2",1804,"","100"
"55885869fdf99b4020ba0b64",240,18,"BACKWARD IS VERSION B","NEW","POP","SODA","ON","S","JOL","Study Phase2",1767,"","90"
"55885869fdf99b4020ba0b64",241,18,"BACKWARD IS VERSION B","NEW","FULL","ENOUGH","ON","B","JOL","Study Phase2",1742,"","50"
"55885869fdf99b4020ba0b64",242,18,"BACKWARD IS VERSION B","NEW","SMELL","STENCH","ON","B","JOL","Study Phase2",1561,"","20"
"55885869fdf99b4020ba0b64",243,18,"BACKWARD IS VERSION B","NEW","HERD","COW","ON","F","JOL","Study Phase2",1615,"","20"
"55885869fdf99b4020ba0b64",245,18,"BACKWARD IS VERSION B","NEW","LAW","ATTORNEY","ON","B","JOL","Study Phase2",2222,"","50"
"55885869fdf99b4020ba0b64",246,18,"BACKWARD IS VERSION B","NEW","HORNET","STING","ON","F","JOL","Study Phase2",2567,"","90"
"55885869fdf99b4020ba0b64",247,18,"BACKWARD IS VERSION B","NEW","SLEEP","DROWSY","ON","B","JOL","Study Phase2",2621,"","75"
"55885869fdf99b4020ba0b64",248,18,"BACKWARD IS VERSION B","NEW","ORCHID","FLOWER","ON","F","JOL","Study Phase2",1172,"","88"
"55885869fdf99b4020ba0b64",249,18,"BACKWARD IS VERSION B","NEW","DUMP","WASTE","ON","S","JOL","Study Phase2",1753,"","60"
"55885869fdf99b4020ba0b64",250,18,"BACKWARD IS VERSION B","NEW","FIX","HAND","ON","U","JOL","Study Phase2",3460,"","25"
"55885869fdf99b4020ba0b64",251,18,"BACKWARD IS VERSION B","NEW","MATH","DIVISION","ON","B","JOL","Study Phase2",3110,"","7"
"55885869fdf99b4020ba0b64",252,18,"BACKWARD IS VERSION B","NEW","ALLOW","TUCK","ON","U","JOL","Study Phase2",1860,"","50"
"55885869fdf99b4020ba0b64",253,18,"BACKWARD IS VERSION B","NEW","HONEY","BEE","ON","S","JOL","Study Phase2",1537,"","100"
"55885869fdf99b4020ba0b64",254,18,"BACKWARD IS VERSION B","NEW","BALL","RACKET","ON","B","JOL","Study Phase2",1773,"","90"
"55885869fdf99b4020ba0b64",255,18,"BACKWARD IS VERSION B","NEW","DISCOVER","FLOOR","ON","U","JOL","Study Phase2",2855,"","43"
"55885869fdf99b4020ba0b64",256,18,"BACKWARD IS VERSION B","NEW","LETTUCE","SALAD","ON","S","JOL","Study Phase2",1696,"","20"
"55885869fdf99b4020ba0b64",257,18,"BACKWARD IS VERSION B","NEW","SENTENCE","WORD","ON","B","JOL","Study Phase2",2219,"","60"
"55885869fdf99b4020ba0b64",258,18,"BACKWARD IS VERSION B","NEW","HUNGER","FAMINE","ON","B","JOL","Study Phase2",3530,"","3"
"55885869fdf99b4020ba0b64",259,18,"BACKWARD IS VERSION B","NEW","FIRE","BLAZE","ON","B","JOL","Study Phase2",1902,"","10"
"55885869fdf99b4020ba0b64",260,18,"BACKWARD IS VERSION B","NEW","BEGIN","END","ON","S","JOL","Study Phase2",3139,"","95"
"55885869fdf99b4020ba0b64",261,18,"BACKWARD IS VERSION B","NEW","BLOW","WIND","ON","S","JOL","Study Phase2",1780,"","80"
"55885869fdf99b4020ba0b64",262,18,"BACKWARD IS VERSION B","NEW","SWAN","BIRD","ON","F","JOL","Study Phase2",1637,"","2"
"55885869fdf99b4020ba0b64",263,18,"BACKWARD IS VERSION B","NEW","LIFT","WOMAN","ON","U","JOL","Study Phase2",2241,"","4"
"55885869fdf99b4020ba0b64",264,18,"BACKWARD IS VERSION B","NEW","BRIDGE","WATER","ON","F","JOL","Study Phase2",1858,"","20"
"55885869fdf99b4020ba0b64",265,18,"BACKWARD IS VERSION B","NEW","ARTERY","BRONZE","ON","U","JOL","Study Phase2",1739,"","50"
"55885869fdf99b4020ba0b64",266,18,"BACKWARD IS VERSION B","NEW","DUE","ASSIGNMENT","ON","S","JOL","Study Phase2",4403,"","10"
"55885869fdf99b4020ba0b64",267,18,"BACKWARD IS VERSION B","NEW","KING","VASE","ON","U","JOL","Study Phase2",1239,"","5"
"55885869fdf99b4020ba0b64",268,18,"BACKWARD IS VERSION B","NEW","PLANE","PILOT","ON","B","JOL","Study Phase2",3813,"","75"
"55885869fdf99b4020ba0b64",269,18,"BACKWARD IS VERSION B","NEW","DEBATE","SIGHT","ON","U","JOL","Study Phase2",3248,"","9"
"55885869fdf99b4020ba0b64",270,18,"BACKWARD IS VERSION B","NEW","REVOLUTION","WAR","ON","F","JOL","Study Phase2",1449,"","8"
"55885869fdf99b4020ba0b64",271,18,"BACKWARD IS VERSION B","NEW","WINE","CHEESE","ON","S","JOL","Study Phase2",2310,"","100"
"55885869fdf99b4020ba0b64",272,18,"BACKWARD IS VERSION B","NEW","MEANING","DEFINITION","ON","S","JOL","Study Phase2",1600,"","90"
"55885869fdf99b4020ba0b64",273,18,"BACKWARD IS VERSION B","NEW","STRONG","ACCIDENT","ON","U","JOL","Study Phase2",2687,"","5"
"55885869fdf99b4020ba0b64",274,18,"BACKWARD IS VERSION B","NEW","LOCATION","SITE","ON","S","JOL","Study Phase2",2270,"","100"
"55885869fdf99b4020ba0b64",275,18,"BACKWARD IS VERSION B","NEW","BABY","CHILD","ON","S","JOL","Study Phase2",1493,"","90"
"55885869fdf99b4020ba0b64",276,18,"BACKWARD IS VERSION B","NEW","DIETARY","SACKING","ON","U","JOL","Study Phase2",2508,"","4"
"55885869fdf99b4020ba0b64",277,18,"BACKWARD IS VERSION B","NEW","CASH","WOULD","ON","U","JOL","Study Phase2",2819,"","0"
"55885869fdf99b4020ba0b64",278,18,"BACKWARD IS VERSION B","NEW","HYGIENE","CLEAN","ON","F","JOL","Study Phase2",2422,"","100"
"55885869fdf99b4020ba0b64",279,18,"BACKWARD IS VERSION B","NEW","CLOTHES","ATTIRE","ON","B","JOL","Study Phase2",3211,"","40"
"55885869fdf99b4020ba0b64",280,18,"BACKWARD IS VERSION B","NEW","HOT","CHILI","ON","B","JOL","Study Phase2",1490,"","50"
"55885869fdf99b4020ba0b64",281,18,"BACKWARD IS VERSION B","NEW","HEIGHT","GROWTH","ON","B","JOL","Study Phase2",2510,"","80"
"55885869fdf99b4020ba0b64",282,18,"BACKWARD IS VERSION B","NEW","PUSHER","CLUTTER","ON","U","JOL","Study Phase2",1656,"","50"
"55885869fdf99b4020ba0b64",283,18,"BACKWARD IS VERSION B","NEW","PAST","FUTURE","ON","S","JOL","Study Phase2",2812,"","35"
"55885869fdf99b4020ba0b64",284,18,"BACKWARD IS VERSION B","NEW","WAY","OUT","ON","F","JOL","Study Phase2",2432,"","100"
"55885869fdf99b4020ba0b64",285,18,"BACKWARD IS VERSION B","NEW","DELINQUENT","BAD","ON","F","JOL","Study Phase2",3713,"","9"
"55885869fdf99b4020ba0b64",286,18,"BACKWARD IS VERSION B","NEW","ART","LION","ON","U","JOL","Study Phase2",2109,"","50"
"55885869fdf99b4020ba0b64",287,18,"BACKWARD IS VERSION B","NEW","DISCUSSION","TALK","ON","F","JOL","Study Phase2",2770,"","40"
"55885869fdf99b4020ba0b64",288,18,"BACKWARD IS VERSION B","NEW","EDITOR","NEWS","ON","F","JOL","Study Phase2",1619,"","90"
"55885869fdf99b4020ba0b64",289,18,"BACKWARD IS VERSION B","NEW","PARK","HUNGRY","ON","U","JOL","Study Phase2",1724,"","54"
"55885869fdf99b4020ba0b64",300,18,"BACKWARD IS VERSION B","NEW","HIDE","SICK","ON","U","Test","Recall2",9712,"Skin",NA
"55885869fdf99b4020ba0b64",301,18,"BACKWARD IS VERSION B","NEW","HORNET","STING","ON","F","Test","Recall2",1783,"Wasp",NA
"55885869fdf99b4020ba0b64",302,18,"BACKWARD IS VERSION B","NEW","CLOTHES","ATTIRE","ON","B","Test","Recall2",3335,"Hide",NA
"55885869fdf99b4020ba0b64",303,18,"BACKWARD IS VERSION B","NEW","BRIDGE","WATER","ON","F","Test","Recall2",2031,"Water",NA
"55885869fdf99b4020ba0b64",304,18,"BACKWARD IS VERSION B","NEW","CASH","WOULD","ON","U","Test","Recall2",1834,"Moneey",NA
"55885869fdf99b4020ba0b64",305,18,"BACKWARD IS VERSION B","NEW","SLEEP","DROWSY","ON","B","Test","Recall2",2131,"Nap",NA
"55885869fdf99b4020ba0b64",306,18,"BACKWARD IS VERSION B","NEW","WINE","CHEESE","ON","S","Test","Recall2",1932,"Cheese",NA
"55885869fdf99b4020ba0b64",307,18,"BACKWARD IS VERSION B","NEW","LOCATION","SITE","ON","S","Test","Recall2",3003,"Map",NA
"55885869fdf99b4020ba0b64",308,18,"BACKWARD IS VERSION B","NEW","TAKE","SEIZE","ON","B","Test","Recall2",1687,"Give",NA
"55885869fdf99b4020ba0b64",309,18,"BACKWARD IS VERSION B","NEW","HUNGER","FAMINE","ON","B","Test","Recall2",6435,"Famish",NA
"55885869fdf99b4020ba0b64",310,18,"BACKWARD IS VERSION B","NEW","PLANE","PILOT","ON","B","Test","Recall2",3163,"Aircraft",NA
"55885869fdf99b4020ba0b64",311,18,"BACKWARD IS VERSION B","NEW","KING","VASE","ON","U","Test","Recall2",2441,"Queen",NA
"55885869fdf99b4020ba0b64",312,18,"BACKWARD IS VERSION B","NEW","BABY","CHILD","ON","S","Test","Recall2",2813,"Child",NA
"55885869fdf99b4020ba0b64",313,18,"BACKWARD IS VERSION B","NEW","HOT","CHILI","ON","B","Test","Recall2",3279,"Chili",NA
"55885869fdf99b4020ba0b64",314,18,"BACKWARD IS VERSION B","NEW","GREAT","FANTASTIC","ON","B","Test","Recall2",3487,"Amazing",NA
"55885869fdf99b4020ba0b64",315,18,"BACKWARD IS VERSION B","NEW","FIRE","BLAZE","ON","B","Test","Recall2",2289,"Hot",NA
"55885869fdf99b4020ba0b64",316,18,"BACKWARD IS VERSION B","NEW","ARTERY","BRONZE","ON","U","Test","Recall2",5351,"Heart",NA
"55885869fdf99b4020ba0b64",317,18,"BACKWARD IS VERSION B","NEW","ROOT","PLANT","ON","F","Test","Recall2",2453,"Plant",NA
"55885869fdf99b4020ba0b64",318,18,"BACKWARD IS VERSION B","NEW","MACHINE","POSITION","ON","U","Test","Recall2",2897,"Position",NA
"55885869fdf99b4020ba0b64",319,18,"BACKWARD IS VERSION B","NEW","LETTUCE","SALAD","ON","S","Test","Recall2",3459,"Salad",NA
"55885869fdf99b4020ba0b64",320,18,"BACKWARD IS VERSION B","NEW","CHISEL","HAMMER","ON","F","Test","Recall2",1928,"Hammer",NA
"55885869fdf99b4020ba0b64",321,18,"BACKWARD IS VERSION B","NEW","FIX","HAND","ON","U","Test","Recall2",4006,"Stuff",NA
"55885869fdf99b4020ba0b64",322,18,"BACKWARD IS VERSION B","NEW","BITTER","COLD","ON","F","Test","Recall2",2508,"Taste",NA
"55885869fdf99b4020ba0b64",323,18,"BACKWARD IS VERSION B","NEW","FULL","ENOUGH","ON","B","Test","Recall2",4737,"Stomach",NA
"55885869fdf99b4020ba0b64",324,18,"BACKWARD IS VERSION B","NEW","SENTENCE","WORD","ON","B","Test","Recall2",2669,"Word",NA
"55885869fdf99b4020ba0b64",325,18,"BACKWARD IS VERSION B","NEW","KEY","LATCH","ON","B","Test","Recall2",7326,"Metal",NA
"55885869fdf99b4020ba0b64",326,18,"BACKWARD IS VERSION B","NEW","LAW","ATTORNEY","ON","B","Test","Recall2",12408,"Attorney ",NA
"55885869fdf99b4020ba0b64",327,18,"BACKWARD IS VERSION B","NEW","LIFT","WOMAN","ON","U","Test","Recall2",2069,"Woman",NA
"55885869fdf99b4020ba0b64",328,18,"BACKWARD IS VERSION B","NEW","BEGIN","END","ON","S","Test","Recall2",4465,"End",NA
"55885869fdf99b4020ba0b64",329,18,"BACKWARD IS VERSION B","NEW","PUSHER","CLUTTER","ON","U","Test","Recall2",8503,"Puller",NA
"55885869fdf99b4020ba0b64",330,18,"BACKWARD IS VERSION B","NEW","WAGE","MONEY","ON","F","Test","Recall2",1893,"Money",NA
"55885869fdf99b4020ba0b64",331,18,"BACKWARD IS VERSION B","NEW","DUMP","WASTE","ON","S","Test","Recall2",3236,"Waste",NA
"55885869fdf99b4020ba0b64",332,18,"BACKWARD IS VERSION B","NEW","DIGESTION","STOMACH","ON","F","Test","Recall2",2281,"Stomach",NA
"55885869fdf99b4020ba0b64",333,18,"BACKWARD IS VERSION B","NEW","KIDNEY","LIVER","ON","S","Test","Recall2",1539,"Liver",NA
"55885869fdf99b4020ba0b64",334,18,"BACKWARD IS VERSION B","NEW","DISCOVER","FLOOR","ON","U","Test","Recall2",2270,"Places",NA
"55885869fdf99b4020ba0b64",335,18,"BACKWARD IS VERSION B","NEW","ORCHID","FLOWER","ON","F","Test","Recall2",1669,"Flower",NA
"55885869fdf99b4020ba0b64",336,18,"BACKWARD IS VERSION B","NEW","VALLEY","ADD","ON","U","Test","Recall2",3392,"Field",NA
"55885869fdf99b4020ba0b64",337,18,"BACKWARD IS VERSION B","NEW","WAY","OUT","ON","F","Test","Recall2",2889,"Out",NA
"55885869fdf99b4020ba0b64",338,18,"BACKWARD IS VERSION B","NEW","DELINQUENT","BAD","ON","F","Test","Recall2",2872,"Bad",NA
"55885869fdf99b4020ba0b64",339,18,"BACKWARD IS VERSION B","NEW","CIRCLE","ROUND","ON","S","Test","Recall2",2602,"Round",NA
"55885869fdf99b4020ba0b64",340,18,"BACKWARD IS VERSION B","NEW","REVOLUTION","WAR","ON","F","Test","Recall2",4145,"War",NA
"55885869fdf99b4020ba0b64",341,18,"BACKWARD IS VERSION B","NEW","POP","SODA","ON","S","Test","Recall2",3187,"Soda",NA
"55885869fdf99b4020ba0b64",342,18,"BACKWARD IS VERSION B","NEW","HEIGHT","GROWTH","ON","B","Test","Recall2",2898,"Tall",NA
"55885869fdf99b4020ba0b64",343,18,"BACKWARD IS VERSION B","NEW","PAST","FUTURE","ON","S","Test","Recall2",3339,"Present",NA
"55885869fdf99b4020ba0b64",344,18,"BACKWARD IS VERSION B","NEW","WORK","CHORE","ON","B","Test","Recall2",2322,"Job",NA
"55885869fdf99b4020ba0b64",345,18,"BACKWARD IS VERSION B","NEW","DUE","ASSIGNMENT","ON","S","Test","Recall2",3029,"Process",NA
"55885869fdf99b4020ba0b64",346,18,"BACKWARD IS VERSION B","NEW","PARK","HUNGRY","ON","U","Test","Recall2",5927,"Children",NA
"55885869fdf99b4020ba0b64",347,18,"BACKWARD IS VERSION B","NEW","PAW","DOG","ON","F","Test","Recall2",3065,"Dog",NA
"55885869fdf99b4020ba0b64",348,18,"BACKWARD IS VERSION B","NEW","SWAN","BIRD","ON","F","Test","Recall2",4175,"Bird",NA
"55885869fdf99b4020ba0b64",349,18,"BACKWARD IS VERSION B","NEW","HYGIENE","CLEAN","ON","F","Test","Recall2",3142,"Wash",NA
"55885869fdf99b4020ba0b64",350,18,"BACKWARD IS VERSION B","NEW","BATHROOM","TOILET","ON","S","Test","Recall2",6161,"Toilet",NA
"55885869fdf99b4020ba0b64",351,18,"BACKWARD IS VERSION B","NEW","ART","LION","ON","U","Test","Recall2",2301,"Lion",NA
"55885869fdf99b4020ba0b64",352,18,"BACKWARD IS VERSION B","NEW","ALLOW","TUCK","ON","U","Test","Recall2",11740,"Ahead",NA
"55885869fdf99b4020ba0b64",353,18,"BACKWARD IS VERSION B","NEW","HAPPY","CAR","ON","U","Test","Recall2",3980,"Sad",NA
"55885869fdf99b4020ba0b64",354,18,"BACKWARD IS VERSION B","NEW","BUG","WASP","ON","B","Test","Recall2",2303,"Wasp",NA
"55885869fdf99b4020ba0b64",355,18,"BACKWARD IS VERSION B","NEW","BALL","RACKET","ON","B","Test","Recall2",4845,"Baseball",NA
"55885869fdf99b4020ba0b64",356,18,"BACKWARD IS VERSION B","NEW","HERD","COW","ON","F","Test","Recall2",3868,"Sheep",NA
"55885869fdf99b4020ba0b64",357,18,"BACKWARD IS VERSION B","NEW","DEBATE","SIGHT","ON","U","Test","Recall2",2850,"Politics",NA
"55885869fdf99b4020ba0b64",358,18,"BACKWARD IS VERSION B","NEW","HONEY","BEE","ON","S","Test","Recall2",2072,"Bee",NA
"55885869fdf99b4020ba0b64",359,18,"BACKWARD IS VERSION B","NEW","GRILL","BAR","ON","S","Test","Recall2",2519,"Cook",NA
"55885869fdf99b4020ba0b64",360,18,"BACKWARD IS VERSION B","NEW","GEOLOGY","ROCK","ON","F","Test","Recall2",1791,"Rock",NA
"55885869fdf99b4020ba0b64",361,18,"BACKWARD IS VERSION B","NEW","EDITOR","NEWS","ON","F","Test","Recall2",2698,"Write",NA
"55885869fdf99b4020ba0b64",362,18,"BACKWARD IS VERSION B","NEW","TUNA","FISH","ON","F","Test","Recall2",1987,"Fish",NA
"55885869fdf99b4020ba0b64",363,18,"BACKWARD IS VERSION B","NEW","SHOE","FOOT","ON","S","Test","Recall2",2736,"Lace",NA
"55885869fdf99b4020ba0b64",364,18,"BACKWARD IS VERSION B","NEW","MEANING","DEFINITION","ON","S","Test","Recall2",2515,"Words",NA
"55885869fdf99b4020ba0b64",365,18,"BACKWARD IS VERSION B","NEW","DIETARY","SACKING","ON","U","Test","Recall2",3578,"Food",NA
"55885869fdf99b4020ba0b64",366,18,"BACKWARD IS VERSION B","NEW","DISCUSSION","TALK","ON","F","Test","Recall2",4734,"Talking",NA
"55885869fdf99b4020ba0b64",367,18,"BACKWARD IS VERSION B","NEW","BLOW","WIND","ON","S","Test","Recall2",2239,"Air",NA
"55885869fdf99b4020ba0b64",368,18,"BACKWARD IS VERSION B","NEW","DEATH","BUSINESS","ON","U","Test","Recall2",1993,"Die",NA
"55885869fdf99b4020ba0b64",369,18,"BACKWARD IS VERSION B","NEW","DARK","CAVE","ON","B","Test","Recall2",3292,"Color",NA
"55885869fdf99b4020ba0b64",370,18,"BACKWARD IS VERSION B","NEW","ARCHITECTURE","DESIGN","ON","S","Test","Recall2",2918,"Building",NA
"55885869fdf99b4020ba0b64",371,18,"BACKWARD IS VERSION B","NEW","TRIAL","JURY","ON","S","Test","Recall2",2514,"Court",NA
"55885869fdf99b4020ba0b64",372,18,"BACKWARD IS VERSION B","NEW","MATH","DIVISION","ON","B","Test","Recall2",4336,"Division",NA
"55885869fdf99b4020ba0b64",373,18,"BACKWARD IS VERSION B","NEW","STRONG","ACCIDENT","ON","U","Test","Recall2",3323,"Willed",NA
"55885869fdf99b4020ba0b64",374,18,"BACKWARD IS VERSION B","NEW","SUGAR","RIDDLE","ON","U","Test","Recall2",2328,"Swet",NA
"55885869fdf99b4020ba0b64",375,18,"BACKWARD IS VERSION B","NEW","CREDIT","CARD","ON","F","Test","Recall2",2207,"Card",NA
"55885869fdf99b4020ba0b64",376,18,"BACKWARD IS VERSION B","NEW","NUMBER","AMOUNT","ON","S","Test","Recall2",6043,"Amount",NA
"55885869fdf99b4020ba0b64",377,18,"BACKWARD IS VERSION B","NEW","SMELL","STENCH","ON","B","Test","Recall2",2828,"Eyees",NA
"55885869fdf99b4020ba0b64",378,18,"BACKWARD IS VERSION B","NEW","SOON","BELT","ON","U","Test","Recall2",2203,"Later",NA
"55885869fdf99b4020ba0b64",379,18,"BACKWARD IS VERSION B","NEW","DRINK","SIP","ON","B","Test","Recall2",2754,"Water",NA
"58542426733c730001a5d1f4",24,20,"BACKWARD IS VERSION D","NEW","REEL","ROD","ON2","S","JOL","Study Phase",3394,"","95"
"58542426733c730001a5d1f4",25,20,"BACKWARD IS VERSION D","NEW","BANKER","MONEY","ON2","F","JOL","Study Phase",2881,"","100"
"58542426733c730001a5d1f4",26,20,"BACKWARD IS VERSION D","NEW","NOISE","LOUD","ON2","S","JOL","Study Phase",2026,"","100"
"58542426733c730001a5d1f4",27,20,"BACKWARD IS VERSION D","NEW","FAVORITE","BEST","ON2","F","JOL","Study Phase",3928,"","80"
"58542426733c730001a5d1f4",28,20,"BACKWARD IS VERSION D","NEW","ABLE","CRACKLE","ON2","U","JOL","Study Phase",3013,"","0"
"58542426733c730001a5d1f4",29,20,"BACKWARD IS VERSION D","NEW","LIE","TRUTH","ON2","S","JOL","Study Phase",4147,"","50"
"58542426733c730001a5d1f4",30,20,"BACKWARD IS VERSION D","NEW","CLOTHES","CAKE","ON2","U","JOL","Study Phase",2905,"","0"
"58542426733c730001a5d1f4",31,20,"BACKWARD IS VERSION D","NEW","HATE","NAME","ON2","U","JOL","Study Phase",2000,"","0"
"58542426733c730001a5d1f4",32,20,"BACKWARD IS VERSION D","NEW","SHAVE","RAZOR","ON2","S","JOL","Study Phase",5258,"","98"
"58542426733c730001a5d1f4",33,20,"BACKWARD IS VERSION D","NEW","LONELY","ALONE","ON2","S","JOL","Study Phase",2733,"","100"
"58542426733c730001a5d1f4",34,20,"BACKWARD IS VERSION D","NEW","VILLAIN","BAD","ON2","F","JOL","Study Phase",2848,"","80"
"58542426733c730001a5d1f4",35,20,"BACKWARD IS VERSION D","NEW","COLD","CHILL","ON2","B","JOL","Study Phase",2719,"","95"
"58542426733c730001a5d1f4",36,20,"BACKWARD IS VERSION D","NEW","CLOTH","STRETCH","ON2","U","JOL","Study Phase",3159,"","80"
"58542426733c730001a5d1f4",37,20,"BACKWARD IS VERSION D","NEW","GAME","CLUE","ON2","B","JOL","Study Phase",3380,"","40"
"58542426733c730001a5d1f4",38,20,"BACKWARD IS VERSION D","NEW","PAPER","DOCUMENT","ON2","B","JOL","Study Phase",2234,"","70"
"58542426733c730001a5d1f4",39,20,"BACKWARD IS VERSION D","NEW","SHAKE","SHELL","ON2","U","JOL","Study Phase",2189,"","0"
"58542426733c730001a5d1f4",40,20,"BACKWARD IS VERSION D","NEW","CHARM","VEHICLE","ON2","U","JOL","Study Phase",1849,"","0"
"58542426733c730001a5d1f4",41,20,"BACKWARD IS VERSION D","NEW","CHILDREN","MIRROR","ON2","U","JOL","Study Phase",2201,"","0"
"58542426733c730001a5d1f4",42,20,"BACKWARD IS VERSION D","NEW","LEAGUE","BASEBALL","ON2","F","JOL","Study Phase",3285,"","0"
"58542426733c730001a5d1f4",43,20,"BACKWARD IS VERSION D","NEW","SARDINE","FISH","ON2","F","JOL","Study Phase",4700,"","99"
"58542426733c730001a5d1f4",44,20,"BACKWARD IS VERSION D","NEW","STRAWBERRY","FRUIT","ON2","F","JOL","Study Phase",4803,"","95"
"58542426733c730001a5d1f4",45,20,"BACKWARD IS VERSION D","NEW","PLANT","CACTUS","ON2","B","JOL","Study Phase",4318,"","80"
"58542426733c730001a5d1f4",46,20,"BACKWARD IS VERSION D","NEW","AWAY","GONE","ON2","S","JOL","Study Phase",4434,"","90"
"58542426733c730001a5d1f4",47,20,"BACKWARD IS VERSION D","NEW","JOKE","KEYS","ON2","U","JOL","Study Phase",2074,"","0"
"58542426733c730001a5d1f4",48,20,"BACKWARD IS VERSION D","NEW","DONKEY","MULE","ON2","B","JOL","Study Phase",3335,"","90"
"58542426733c730001a5d1f4",49,20,"BACKWARD IS VERSION D","NEW","LOVE","AFFECTION","ON2","B","JOL","Study Phase",3298,"","70"
"58542426733c730001a5d1f4",50,20,"BACKWARD IS VERSION D","NEW","JAR","MASON","ON2","S","JOL","Study Phase",3876,"","80"
"58542426733c730001a5d1f4",51,20,"BACKWARD IS VERSION D","NEW","CLEAR","MOAT","ON2","U","JOL","Study Phase",2338,"","0"
"58542426733c730001a5d1f4",52,20,"BACKWARD IS VERSION D","NEW","SMELL","INCENSE","ON2","B","JOL","Study Phase",5205,"","60"
"58542426733c730001a5d1f4",53,20,"BACKWARD IS VERSION D","NEW","PANTHER","CAT","ON2","F","JOL","Study Phase",4513,"","50"
"58542426733c730001a5d1f4",54,20,"BACKWARD IS VERSION D","NEW","EAT","DINE","ON2","B","JOL","Study Phase",4207,"","50"
"58542426733c730001a5d1f4",55,20,"BACKWARD IS VERSION D","NEW","SCAR","MAIN","ON2","U","JOL","Study Phase",1672,"","0"
"58542426733c730001a5d1f4",56,20,"BACKWARD IS VERSION D","NEW","BRACELET","WRIST","ON2","S","JOL","Study Phase",2774,"","20"
"58542426733c730001a5d1f4",57,20,"BACKWARD IS VERSION D","NEW","MYSTERY","DETECTIVE","ON2","B","JOL","Study Phase",3939,"","50"
"58542426733c730001a5d1f4",58,20,"BACKWARD IS VERSION D","NEW","END","ADJOURN","ON2","B","JOL","Study Phase",4080,"","80"
"58542426733c730001a5d1f4",60,20,"BACKWARD IS VERSION D","NEW","FIGHT","FEUD","ON2","B","JOL","Study Phase",5558,"","80"
"58542426733c730001a5d1f4",61,20,"BACKWARD IS VERSION D","NEW","PENGUIN","BIRD","ON2","F","JOL","Study Phase",5584,"","90"
"58542426733c730001a5d1f4",62,20,"BACKWARD IS VERSION D","NEW","TIE","SHOELACE","ON2","B","JOL","Study Phase",7652,"","20"
"58542426733c730001a5d1f4",63,20,"BACKWARD IS VERSION D","NEW","OBTAIN","MEAT","ON2","U","JOL","Study Phase",1804,"","0"
"58542426733c730001a5d1f4",64,20,"BACKWARD IS VERSION D","NEW","WAX","CANDLE","ON2","S","JOL","Study Phase",4889,"","80"
"58542426733c730001a5d1f4",65,20,"BACKWARD IS VERSION D","NEW","TAN","SUN","ON2","S","JOL","Study Phase",4989,"","70"
"58542426733c730001a5d1f4",66,20,"BACKWARD IS VERSION D","NEW","DRINK","WATER","ON2","S","JOL","Study Phase",12928,"","60"
"58542426733c730001a5d1f4",67,20,"BACKWARD IS VERSION D","NEW","LONG","EXTENSION","ON2","B","JOL","Study Phase",4797,"","99"
"58542426733c730001a5d1f4",68,20,"BACKWARD IS VERSION D","NEW","TICK","FLEA","ON2","S","JOL","Study Phase",3998,"","70"
"58542426733c730001a5d1f4",69,20,"BACKWARD IS VERSION D","NEW","HAVE","OWN","ON2","S","JOL","Study Phase",3668,"","100"
"58542426733c730001a5d1f4",70,20,"BACKWARD IS VERSION D","NEW","CUT","CHOP","ON2","B","JOL","Study Phase",2751,"","95"
"58542426733c730001a5d1f4",71,20,"BACKWARD IS VERSION D","NEW","BALLOON","POP","ON2","F","JOL","Study Phase",2865,"","80"
"58542426733c730001a5d1f4",72,20,"BACKWARD IS VERSION D","NEW","TEMPER","TANTRUM","ON2","S","JOL","Study Phase",3073,"","80"
"58542426733c730001a5d1f4",73,20,"BACKWARD IS VERSION D","NEW","FICTION","LISTEN","ON2","U","JOL","Study Phase",5030,"","10"
"58542426733c730001a5d1f4",74,20,"BACKWARD IS VERSION D","NEW","COMMUNICATION","PHONE","ON2","S","JOL","Study Phase",2934,"","80"
"58542426733c730001a5d1f4",75,20,"BACKWARD IS VERSION D","NEW","EQUAL","RIGHTS","ON2","S","JOL","Study Phase",6244,"","80"
"58542426733c730001a5d1f4",76,20,"BACKWARD IS VERSION D","NEW","BRAWL","FIGHT","ON2","F","JOL","Study Phase",5014,"","100"
"58542426733c730001a5d1f4",77,20,"BACKWARD IS VERSION D","NEW","TRUTHFUL","HONEST","ON2","F","JOL","Study Phase",2919,"","100"
"58542426733c730001a5d1f4",78,20,"BACKWARD IS VERSION D","NEW","OUNCE","BOTH","ON2","U","JOL","Study Phase",1974,"","0"
"58542426733c730001a5d1f4",79,20,"BACKWARD IS VERSION D","NEW","HEAD","SCALP","ON2","B","JOL","Study Phase",3125,"","70"
"58542426733c730001a5d1f4",80,20,"BACKWARD IS VERSION D","NEW","CAR","DRIVER","ON2","B","JOL","Study Phase",3226,"","50"
"58542426733c730001a5d1f4",81,20,"BACKWARD IS VERSION D","NEW","THIMBLE","THREAD","ON2","F","JOL","Study Phase",3230,"","50"
"58542426733c730001a5d1f4",82,20,"BACKWARD IS VERSION D","NEW","NAP","SLEEP","ON2","F","JOL","Study Phase",4807,"","100"
"58542426733c730001a5d1f4",83,20,"BACKWARD IS VERSION D","NEW","MORNING","TEMPERATURE","ON2","U","JOL","Study Phase",2796,"","0"
"58542426733c730001a5d1f4",84,20,"BACKWARD IS VERSION D","NEW","ELECTION","MAZE","ON2","U","JOL","Study Phase",2285,"","0"
"58542426733c730001a5d1f4",85,20,"BACKWARD IS VERSION D","NEW","STEAK","GIVE","ON2","U","JOL","Study Phase",1903,"","0"
"58542426733c730001a5d1f4",86,20,"BACKWARD IS VERSION D","NEW","SIGN","LOAN","ON2","U","JOL","Study Phase",2628,"","10"
"58542426733c730001a5d1f4",87,20,"BACKWARD IS VERSION D","NEW","COFFIN","DEAD","ON2","F","JOL","Study Phase",2886,"","80"
"58542426733c730001a5d1f4",88,20,"BACKWARD IS VERSION D","NEW","WET","DRY","ON2","S","JOL","Study Phase",7802,"","20"
"58542426733c730001a5d1f4",89,20,"BACKWARD IS VERSION D","NEW","AIRCRAFT","PLANE","ON2","F","JOL","Study Phase",4226,"","100"
"58542426733c730001a5d1f4",90,20,"BACKWARD IS VERSION D","NEW","MAROON","JUSTICE","ON2","U","JOL","Study Phase",1798,"","0"
"58542426733c730001a5d1f4",91,20,"BACKWARD IS VERSION D","NEW","REVENGE","EVEN","ON2","F","JOL","Study Phase",3583,"","70"
"58542426733c730001a5d1f4",92,20,"BACKWARD IS VERSION D","NEW","CARBON","ELEMENT","ON2","S","JOL","Study Phase",4111,"","50"
"58542426733c730001a5d1f4",93,20,"BACKWARD IS VERSION D","NEW","WINDSHIELD","CAR","ON2","F","JOL","Study Phase",4462,"","20"
"58542426733c730001a5d1f4",94,20,"BACKWARD IS VERSION D","NEW","TOIL","LEASE","ON2","U","JOL","Study Phase",2987,"","0"
"58542426733c730001a5d1f4",95,20,"BACKWARD IS VERSION D","NEW","TRASH","LITTER","ON2","B","JOL","Study Phase",4178,"","100"
"58542426733c730001a5d1f4",96,20,"BACKWARD IS VERSION D","NEW","BREAKABLE","GLASS","ON2","F","JOL","Study Phase",2985,"","50"
"58542426733c730001a5d1f4",97,20,"BACKWARD IS VERSION D","NEW","SCISSORS","SHEARS","ON2","B","JOL","Study Phase",2672,"","80"
"58542426733c730001a5d1f4",98,20,"BACKWARD IS VERSION D","NEW","FLIP","TURN","ON2","F","JOL","Study Phase",2533,"","80"
"58542426733c730001a5d1f4",99,20,"BACKWARD IS VERSION D","NEW","ACTRESS","STAR","ON2","F","JOL","Study Phase",2936,"","70"
"58542426733c730001a5d1f4",100,20,"BACKWARD IS VERSION D","NEW","RED","CHERRY","ON2","B","JOL","Study Phase",2774,"","50"
"58542426733c730001a5d1f4",101,20,"BACKWARD IS VERSION D","NEW","BANG","FUZZY","ON2","U","JOL","Study Phase",2397,"","0"
"58542426733c730001a5d1f4",102,20,"BACKWARD IS VERSION D","NEW","DOG","FURRY","ON2","B","JOL","Study Phase",2597,"","80"
"58542426733c730001a5d1f4",103,20,"BACKWARD IS VERSION D","NEW","GROUND","EARTH","ON2","S","JOL","Study Phase",2692,"","100"
"58542426733c730001a5d1f4",104,20,"BACKWARD IS VERSION D","NEW","SEATBELT","SAFETY","ON2","S","JOL","Study Phase",2505,"","80"
"58542426733c730001a5d1f4",115,20,"BACKWARD IS VERSION D","NEW","JOKE","KEYS","ON2","U","Test","Recall1",2092,"",NA
"58542426733c730001a5d1f4",116,20,"BACKWARD IS VERSION D","NEW","LONG","EXTENSION","ON2","B","Test","Recall1",10694,"extend",NA
"58542426733c730001a5d1f4",117,20,"BACKWARD IS VERSION D","NEW","FICTION","LISTEN","ON2","U","Test","Recall1",4245,"",NA
"58542426733c730001a5d1f4",118,20,"BACKWARD IS VERSION D","NEW","FLIP","TURN","ON2","F","Test","Recall1",3217,"turn",NA
"58542426733c730001a5d1f4",119,20,"BACKWARD IS VERSION D","NEW","TRUTHFUL","HONEST","ON2","F","Test","Recall1",4442,"honest",NA
"58542426733c730001a5d1f4",120,20,"BACKWARD IS VERSION D","NEW","VILLAIN","BAD","ON2","F","Test","Recall1",2690,"bad",NA
"58542426733c730001a5d1f4",121,20,"BACKWARD IS VERSION D","NEW","AIRCRAFT","PLANE","ON2","F","Test","Recall1",3557,"plane",NA
"58542426733c730001a5d1f4",122,20,"BACKWARD IS VERSION D","NEW","SHAVE","RAZOR","ON2","S","Test","Recall1",4228,"razor",NA
"58542426733c730001a5d1f4",123,20,"BACKWARD IS VERSION D","NEW","COLD","CHILL","ON2","B","Test","Recall1",2994,"",NA
"58542426733c730001a5d1f4",124,20,"BACKWARD IS VERSION D","NEW","ABLE","CRACKLE","ON2","U","Test","Recall1",2250,"",NA
"58542426733c730001a5d1f4",125,20,"BACKWARD IS VERSION D","NEW","PAPER","DOCUMENT","ON2","B","Test","Recall1",3785,"",NA
"58542426733c730001a5d1f4",126,20,"BACKWARD IS VERSION D","NEW","GROUND","EARTH","ON2","S","Test","Recall1",2787,"earth",NA
"58542426733c730001a5d1f4",127,20,"BACKWARD IS VERSION D","NEW","CLOTH","STRETCH","ON2","U","Test","Recall1",1647,"",NA
"58542426733c730001a5d1f4",128,20,"BACKWARD IS VERSION D","NEW","CHILDREN","MIRROR","ON2","U","Test","Recall1",4061,"mirror",NA
"58542426733c730001a5d1f4",129,20,"BACKWARD IS VERSION D","NEW","MYSTERY","DETECTIVE","ON2","B","Test","Recall1",6873,"detective",NA
"58542426733c730001a5d1f4",130,20,"BACKWARD IS VERSION D","NEW","EQUAL","RIGHTS","ON2","S","Test","Recall1",2722,"rights",NA
"58542426733c730001a5d1f4",131,20,"BACKWARD IS VERSION D","NEW","BANKER","MONEY","ON2","F","Test","Recall1",4614,"money",NA
"58542426733c730001a5d1f4",132,20,"BACKWARD IS VERSION D","NEW","SARDINE","FISH","ON2","F","Test","Recall1",2570,"fish",NA
"58542426733c730001a5d1f4",133,20,"BACKWARD IS VERSION D","NEW","JAR","MASON","ON2","S","Test","Recall1",2589,"mason",NA
"58542426733c730001a5d1f4",134,20,"BACKWARD IS VERSION D","NEW","STRAWBERRY","FRUIT","ON2","F","Test","Recall1",3280,"fruit",NA
"58542426733c730001a5d1f4",135,20,"BACKWARD IS VERSION D","NEW","HAVE","OWN","ON2","S","Test","Recall1",4069,"own",NA
"58542426733c730001a5d1f4",136,20,"BACKWARD IS VERSION D","NEW","RED","CHERRY","ON2","B","Test","Recall1",3225,"cherry",NA
"58542426733c730001a5d1f4",137,20,"BACKWARD IS VERSION D","NEW","EAT","DINE","ON2","B","Test","Recall1",1800,"",NA
"58542426733c730001a5d1f4",138,20,"BACKWARD IS VERSION D","NEW","BRAWL","FIGHT","ON2","F","Test","Recall1",2765,"fight",NA
"58542426733c730001a5d1f4",139,20,"BACKWARD IS VERSION D","NEW","CAR","DRIVER","ON2","B","Test","Recall1",6956,"windscreen",NA
"58542426733c730001a5d1f4",140,20,"BACKWARD IS VERSION D","NEW","LIE","TRUTH","ON2","S","Test","Recall1",2026,"",NA
"58542426733c730001a5d1f4",141,20,"BACKWARD IS VERSION D","NEW","BANG","FUZZY","ON2","U","Test","Recall1",2114,"",NA
"58542426733c730001a5d1f4",142,20,"BACKWARD IS VERSION D","NEW","BRACELET","WRIST","ON2","S","Test","Recall1",2956,"wrist",NA
"58542426733c730001a5d1f4",143,20,"BACKWARD IS VERSION D","NEW","TEMPER","TANTRUM","ON2","S","Test","Recall1",4117,"trantrum",NA
"58542426733c730001a5d1f4",144,20,"BACKWARD IS VERSION D","NEW","DRINK","WATER","ON2","S","Test","Recall1",2486,"water",NA
"58542426733c730001a5d1f4",145,20,"BACKWARD IS VERSION D","NEW","TICK","FLEA","ON2","S","Test","Recall1",4244,"mite",NA
"58542426733c730001a5d1f4",146,20,"BACKWARD IS VERSION D","NEW","STEAK","GIVE","ON2","U","Test","Recall1",1725,"",NA
"58542426733c730001a5d1f4",147,20,"BACKWARD IS VERSION D","NEW","MAROON","JUSTICE","ON2","U","Test","Recall1",4033,"justice",NA
"58542426733c730001a5d1f4",148,20,"BACKWARD IS VERSION D","NEW","COFFIN","DEAD","ON2","F","Test","Recall1",2256,"dead",NA
"58542426733c730001a5d1f4",149,20,"BACKWARD IS VERSION D","NEW","OUNCE","BOTH","ON2","U","Test","Recall1",1420,"",NA
"58542426733c730001a5d1f4",150,20,"BACKWARD IS VERSION D","NEW","SEATBELT","SAFETY","ON2","S","Test","Recall1",2842,"safety",NA
"58542426733c730001a5d1f4",151,20,"BACKWARD IS VERSION D","NEW","FIGHT","FEUD","ON2","B","Test","Recall1",3925,"brawl",NA
"58542426733c730001a5d1f4",152,20,"BACKWARD IS VERSION D","NEW","NAP","SLEEP","ON2","F","Test","Recall1",2521,"sleep",NA
"58542426733c730001a5d1f4",153,20,"BACKWARD IS VERSION D","NEW","BALLOON","POP","ON2","F","Test","Recall1",3895,"",NA
"58542426733c730001a5d1f4",154,20,"BACKWARD IS VERSION D","NEW","REEL","ROD","ON2","S","Test","Recall1",8564,"caught",NA
"58542426733c730001a5d1f4",155,20,"BACKWARD IS VERSION D","NEW","WAX","CANDLE","ON2","S","Test","Recall1",2576,"candle",NA
"58542426733c730001a5d1f4",156,20,"BACKWARD IS VERSION D","NEW","DONKEY","MULE","ON2","B","Test","Recall1",3959,"mule",NA
"58542426733c730001a5d1f4",157,20,"BACKWARD IS VERSION D","NEW","DOG","FURRY","ON2","B","Test","Recall1",6527,"fuzzy",NA
"58542426733c730001a5d1f4",158,20,"BACKWARD IS VERSION D","NEW","HATE","NAME","ON2","U","Test","Recall1",1379,"",NA
"58542426733c730001a5d1f4",159,20,"BACKWARD IS VERSION D","NEW","TOIL","LEASE","ON2","U","Test","Recall1",1274,"",NA
"58542426733c730001a5d1f4",160,20,"BACKWARD IS VERSION D","NEW","TRASH","LITTER","ON2","B","Test","Recall1",1268,"",NA
"58542426733c730001a5d1f4",161,20,"BACKWARD IS VERSION D","NEW","CUT","CHOP","ON2","B","Test","Recall1",936,"",NA
"58542426733c730001a5d1f4",162,20,"BACKWARD IS VERSION D","NEW","GAME","CLUE","ON2","B","Test","Recall1",1277,"",NA
"58542426733c730001a5d1f4",163,20,"BACKWARD IS VERSION D","NEW","COMMUNICATION","PHONE","ON2","S","Test","Recall1",1607,"",NA
"58542426733c730001a5d1f4",164,20,"BACKWARD IS VERSION D","NEW","SHAKE","SHELL","ON2","U","Test","Recall1",1651,"",NA
"58542426733c730001a5d1f4",165,20,"BACKWARD IS VERSION D","NEW","SCISSORS","SHEARS","ON2","B","Test","Recall1",4558,"shears",NA
"58542426733c730001a5d1f4",166,20,"BACKWARD IS VERSION D","NEW","CLEAR","MOAT","ON2","U","Test","Recall1",936,"",NA
"58542426733c730001a5d1f4",167,20,"BACKWARD IS VERSION D","NEW","AWAY","GONE","ON2","S","Test","Recall1",3365,"gone",NA
"58542426733c730001a5d1f4",168,20,"BACKWARD IS VERSION D","NEW","PENGUIN","BIRD","ON2","F","Test","Recall1",4193,"bird",NA
"58542426733c730001a5d1f4",169,20,"BACKWARD IS VERSION D","NEW","SCAR","MAIN","ON2","U","Test","Recall1",1277,"",NA
"58542426733c730001a5d1f4",170,20,"BACKWARD IS VERSION D","NEW","PANTHER","CAT","ON2","F","Test","Recall1",3038,"cat",NA
"58542426733c730001a5d1f4",171,20,"BACKWARD IS VERSION D","NEW","REVENGE","EVEN","ON2","F","Test","Recall1",4874,"even",NA
"58542426733c730001a5d1f4",172,20,"BACKWARD IS VERSION D","NEW","HEAD","SCALP","ON2","B","Test","Recall1",881,"",NA
"58542426733c730001a5d1f4",173,20,"BACKWARD IS VERSION D","NEW","TAN","SUN","ON2","S","Test","Recall1",3203,"sun",NA
"58542426733c730001a5d1f4",174,20,"BACKWARD IS VERSION D","NEW","SIGN","LOAN","ON2","U","Test","Recall1",1258,"",NA
"58542426733c730001a5d1f4",175,20,"BACKWARD IS VERSION D","NEW","BREAKABLE","GLASS","ON2","F","Test","Recall1",1120,"",NA
"58542426733c730001a5d1f4",176,20,"BACKWARD IS VERSION D","NEW","END","ADJOURN","ON2","B","Test","Recall1",1131,"",NA
"58542426733c730001a5d1f4",177,20,"BACKWARD IS VERSION D","NEW","MORNING","TEMPERATURE","ON2","U","Test","Recall1",2306,"",NA
"58542426733c730001a5d1f4",178,20,"BACKWARD IS VERSION D","NEW","WET","DRY","ON2","S","Test","Recall1",2989,"dry",NA
"58542426733c730001a5d1f4",179,20,"BACKWARD IS VERSION D","NEW","LOVE","AFFECTION","ON2","B","Test","Recall1",4924,"affection",NA
"58542426733c730001a5d1f4",180,20,"BACKWARD IS VERSION D","NEW","OBTAIN","MEAT","ON2","U","Test","Recall1",4186,"have",NA
"58542426733c730001a5d1f4",181,20,"BACKWARD IS VERSION D","NEW","WINDSHIELD","CAR","ON2","F","Test","Recall1",5541,"car",NA
"58542426733c730001a5d1f4",182,20,"BACKWARD IS VERSION D","NEW","PLANT","CACTUS","ON2","B","Test","Recall1",3968,"cactus",NA
"58542426733c730001a5d1f4",183,20,"BACKWARD IS VERSION D","NEW","TIE","SHOELACE","ON2","B","Test","Recall1",7152,"lace",NA
"58542426733c730001a5d1f4",184,20,"BACKWARD IS VERSION D","NEW","SMELL","INCENSE","ON2","B","Test","Recall1",1174,"",NA
"58542426733c730001a5d1f4",185,20,"BACKWARD IS VERSION D","NEW","CHARM","VEHICLE","ON2","U","Test","Recall1",818,"",NA
"58542426733c730001a5d1f4",186,20,"BACKWARD IS VERSION D","NEW","THIMBLE","THREAD","ON2","F","Test","Recall1",6527,"thread",NA
"58542426733c730001a5d1f4",187,20,"BACKWARD IS VERSION D","NEW","ACTRESS","STAR","ON2","F","Test","Recall1",5277,"star",NA
"58542426733c730001a5d1f4",188,20,"BACKWARD IS VERSION D","NEW","CARBON","ELEMENT","ON2","S","Test","Recall1",2843,"element",NA
"58542426733c730001a5d1f4",189,20,"BACKWARD IS VERSION D","NEW","LEAGUE","BASEBALL","ON2","F","Test","Recall1",1305,"",NA
"58542426733c730001a5d1f4",190,20,"BACKWARD IS VERSION D","NEW","LONELY","ALONE","ON2","S","Test","Recall1",3307,"sad",NA
"58542426733c730001a5d1f4",191,20,"BACKWARD IS VERSION D","NEW","CLOTHES","CAKE","ON2","U","Test","Recall1",1415,"",NA
"58542426733c730001a5d1f4",192,20,"BACKWARD IS VERSION D","NEW","NOISE","LOUD","ON2","S","Test","Recall1",1290,"",NA
"58542426733c730001a5d1f4",193,20,"BACKWARD IS VERSION D","NEW","FAVORITE","BEST","ON2","F","Test","Recall1",904,"",NA
"58542426733c730001a5d1f4",194,20,"BACKWARD IS VERSION D","NEW","ELECTION","MAZE","ON2","U","Test","Recall1",1745,"",NA
"58542426733c730001a5d1f4",209,20,"BACKWARD IS VERSION D","NEW","FUTURE","PAST","ON","S","JOL","Study Phase2",3319,"","50"
"58542426733c730001a5d1f4",210,20,"BACKWARD IS VERSION D","NEW","ATTIRE","CLOTHES","ON","F","JOL","Study Phase2",3131,"","80"
"58542426733c730001a5d1f4",211,20,"BACKWARD IS VERSION D","NEW","FLOOR","DISCOVER","ON","U","JOL","Study Phase2",2290,"","0"
"58542426733c730001a5d1f4",212,20,"BACKWARD IS VERSION D","NEW","RACKET","BALL","ON","F","JOL","Study Phase2",2718,"","70"
"58542426733c730001a5d1f4",213,20,"BACKWARD IS VERSION D","NEW","DROWSY","SLEEP","ON","F","JOL","Study Phase2",2517,"","80"
"58542426733c730001a5d1f4",214,20,"BACKWARD IS VERSION D","NEW","BEE","HONEY","ON","S","JOL","Study Phase2",2642,"","100"
"58542426733c730001a5d1f4",215,20,"BACKWARD IS VERSION D","NEW","SITE","LOCATION","ON","S","JOL","Study Phase2",3365,"","80"
"58542426733c730001a5d1f4",216,20,"BACKWARD IS VERSION D","NEW","DESIGN","ARCHITECTURE","ON","S","JOL","Study Phase2",4712,"","60"
"58542426733c730001a5d1f4",217,20,"BACKWARD IS VERSION D","NEW","STENCH","SMELL","ON","F","JOL","Study Phase2",2895,"","90"
"58542426733c730001a5d1f4",218,20,"BACKWARD IS VERSION D","NEW","CLEAN","HYGIENE","ON","B","JOL","Study Phase2",2594,"","80"
"58542426733c730001a5d1f4",219,20,"BACKWARD IS VERSION D","NEW","FLOWER","ORCHID","ON","B","JOL","Study Phase2",5527,"","80"
"58542426733c730001a5d1f4",220,20,"BACKWARD IS VERSION D","NEW","SALAD","LETTUCE","ON","S","JOL","Study Phase2",2340,"","80"
"58542426733c730001a5d1f4",221,20,"BACKWARD IS VERSION D","NEW","ENOUGH","FULL","ON","F","JOL","Study Phase2",16923,"","70"
"58542426733c730001a5d1f4",222,20,"BACKWARD IS VERSION D","NEW","TUCK","ALLOW","ON","U","JOL","Study Phase2",2588,"","0"
"58542426733c730001a5d1f4",223,20,"BACKWARD IS VERSION D","NEW","WAR","REVOLUTION","ON","B","JOL","Study Phase2",3321,"","40"
"58542426733c730001a5d1f4",224,20,"BACKWARD IS VERSION D","NEW","CLUTTER","PUSHER","ON","U","JOL","Study Phase2",2310,"","0"
"58542426733c730001a5d1f4",225,20,"BACKWARD IS VERSION D","NEW","ROUND","CIRCLE","ON","S","JOL","Study Phase2",3451,"","100"
"58542426733c730001a5d1f4",226,20,"BACKWARD IS VERSION D","NEW","STOMACH","DIGESTION","ON","B","JOL","Study Phase2",2182,"","80"
"58542426733c730001a5d1f4",227,20,"BACKWARD IS VERSION D","NEW","CAVE","DARK","ON","F","JOL","Study Phase2",3559,"","70"
"58542426733c730001a5d1f4",228,20,"BACKWARD IS VERSION D","NEW","LIVER","KIDNEY","ON","S","JOL","Study Phase2",3732,"","40"
"58542426733c730001a5d1f4",229,20,"BACKWARD IS VERSION D","NEW","FAMINE","HUNGER","ON","F","JOL","Study Phase2",3231,"","80"
"58542426733c730001a5d1f4",230,20,"BACKWARD IS VERSION D","NEW","FANTASTIC","GREAT","ON","F","JOL","Study Phase2",3452,"","90"
"58542426733c730001a5d1f4",231,20,"BACKWARD IS VERSION D","NEW","WORD","SENTENCE","ON","F","JOL","Study Phase2",3102,"","90"
"58542426733c730001a5d1f4",232,20,"BACKWARD IS VERSION D","NEW","MONEY","WAGE","ON","B","JOL","Study Phase2",6109,"","90"
"58542426733c730001a5d1f4",233,20,"BACKWARD IS VERSION D","NEW","SACKING","DIETARY","ON","U","JOL","Study Phase2",2777,"","0"
"58542426733c730001a5d1f4",234,20,"BACKWARD IS VERSION D","NEW","WIND","BLOW","ON","S","JOL","Study Phase2",2849,"","80"
"58542426733c730001a5d1f4",235,20,"BACKWARD IS VERSION D","NEW","HUNGRY","PARK","ON","U","JOL","Study Phase2",2129,"","0"
"58542426733c730001a5d1f4",236,20,"BACKWARD IS VERSION D","NEW","HAMMER","CHISEL","ON","B","JOL","Study Phase2",3250,"","100"
"58542426733c730001a5d1f4",237,20,"BACKWARD IS VERSION D","NEW","BAR","GRILL","ON","S","JOL","Study Phase2",2981,"","95"
"58542426733c730001a5d1f4",238,20,"BACKWARD IS VERSION D","NEW","GROWTH","HEIGHT","ON","F","JOL","Study Phase2",2384,"","80"
"58542426733c730001a5d1f4",239,20,"BACKWARD IS VERSION D","NEW","JURY","TRIAL","ON","S","JOL","Study Phase2",2949,"","80"
"58542426733c730001a5d1f4",240,20,"BACKWARD IS VERSION D","NEW","FOOT","SHOE","ON","S","JOL","Study Phase2",1997,"","90"
"58542426733c730001a5d1f4",241,20,"BACKWARD IS VERSION D","NEW","ACCIDENT","STRONG","ON","U","JOL","Study Phase2",2601,"","10"
"58542426733c730001a5d1f4",242,20,"BACKWARD IS VERSION D","NEW","WATER","BRIDGE","ON","B","JOL","Study Phase2",3701,"","20"
"58542426733c730001a5d1f4",243,20,"BACKWARD IS VERSION D","NEW","DEFINITION","MEANING","ON","S","JOL","Study Phase2",4975,"","99"
"58542426733c730001a5d1f4",245,20,"BACKWARD IS VERSION D","NEW","AMOUNT","NUMBER","ON","S","JOL","Study Phase2",4175,"","70"
"58542426733c730001a5d1f4",246,20,"BACKWARD IS VERSION D","NEW","ATTORNEY","LAW","ON","F","JOL","Study Phase2",3587,"","80"
"58542426733c730001a5d1f4",247,20,"BACKWARD IS VERSION D","NEW","COW","HERD","ON","B","JOL","Study Phase2",3445,"","70"
"58542426733c730001a5d1f4",248,20,"BACKWARD IS VERSION D","NEW","RIDDLE","SUGAR","ON","U","JOL","Study Phase2",2951,"","0"
"58542426733c730001a5d1f4",249,20,"BACKWARD IS VERSION D","NEW","STING","HORNET","ON","B","JOL","Study Phase2",3019,"","50"
"58542426733c730001a5d1f4",250,20,"BACKWARD IS VERSION D","NEW","END","BEGIN","ON","S","JOL","Study Phase2",4980,"","50"
"58542426733c730001a5d1f4",251,20,"BACKWARD IS VERSION D","NEW","BRONZE","ARTERY","ON","U","JOL","Study Phase2",2016,"","0"
"58542426733c730001a5d1f4",252,20,"BACKWARD IS VERSION D","NEW","POSITION","MACHINE","ON","U","JOL","Study Phase2",3200,"","10"
"58542426733c730001a5d1f4",253,20,"BACKWARD IS VERSION D","NEW","WOULD","CASH","ON","U","JOL","Study Phase2",1469,"","0"
"58542426733c730001a5d1f4",254,20,"BACKWARD IS VERSION D","NEW","CHILD","BABY","ON","S","JOL","Study Phase2",3056,"","80"
"58542426733c730001a5d1f4",255,20,"BACKWARD IS VERSION D","NEW","HAND","FIX","ON","U","JOL","Study Phase2",1717,"","0"
"58542426733c730001a5d1f4",256,20,"BACKWARD IS VERSION D","NEW","SODA","POP","ON","S","JOL","Study Phase2",1925,"","20"
"58542426733c730001a5d1f4",257,20,"BACKWARD IS VERSION D","NEW","TOILET","BATHROOM","ON","S","JOL","Study Phase2",2243,"","100"
"58542426733c730001a5d1f4",258,20,"BACKWARD IS VERSION D","NEW","CAR","HAPPY","ON","U","JOL","Study Phase2",1368,"","0"
"58542426733c730001a5d1f4",259,20,"BACKWARD IS VERSION D","NEW","BIRD","SWAN","ON","B","JOL","Study Phase2",2887,"","70"
"58542426733c730001a5d1f4",260,20,"BACKWARD IS VERSION D","NEW","BAD","DELINQUENT","ON","B","JOL","Study Phase2",4583,"","50"
"58542426733c730001a5d1f4",261,20,"BACKWARD IS VERSION D","NEW","BELT","SOON","ON","U","JOL","Study Phase2",1566,"","0"
"58542426733c730001a5d1f4",262,20,"BACKWARD IS VERSION D","NEW","BLAZE","FIRE","ON","F","JOL","Study Phase2",1999,"","80"
"58542426733c730001a5d1f4",263,20,"BACKWARD IS VERSION D","NEW","DIVISION","MATH","ON","F","JOL","Study Phase2",5154,"","80"
"58542426733c730001a5d1f4",264,20,"BACKWARD IS VERSION D","NEW","OUT","WAY","ON","B","JOL","Study Phase2",2877,"","20"
"58542426733c730001a5d1f4",265,20,"BACKWARD IS VERSION D","NEW","FISH","TUNA","ON","B","JOL","Study Phase2",2679,"","100"
"58542426733c730001a5d1f4",266,20,"BACKWARD IS VERSION D","NEW","DOG","PAW","ON","B","JOL","Study Phase2",2132,"","80"
"58542426733c730001a5d1f4",267,20,"BACKWARD IS VERSION D","NEW","BUSINESS","DEATH","ON","U","JOL","Study Phase2",1449,"","0"
"58542426733c730001a5d1f4",268,20,"BACKWARD IS VERSION D","NEW","ROCK","GEOLOGY","ON","B","JOL","Study Phase2",6131,"","80"
"58542426733c730001a5d1f4",269,20,"BACKWARD IS VERSION D","NEW","SICK","HIDE","ON","U","JOL","Study Phase2",1403,"","0"
"58542426733c730001a5d1f4",270,20,"BACKWARD IS VERSION D","NEW","CARD","CREDIT","ON","B","JOL","Study Phase2",2649,"","50"
"58542426733c730001a5d1f4",271,20,"BACKWARD IS VERSION D","NEW","WASP","BUG","ON","F","JOL","Study Phase2",3194,"","70"
"58542426733c730001a5d1f4",272,20,"BACKWARD IS VERSION D","NEW","WOMAN","LIFT","ON","U","JOL","Study Phase2",1797,"","0"
"58542426733c730001a5d1f4",273,20,"BACKWARD IS VERSION D","NEW","ADD","VALLEY","ON","U","JOL","Study Phase2",2274,"","0"
"58542426733c730001a5d1f4",274,20,"BACKWARD IS VERSION D","NEW","COLD","BITTER","ON","B","JOL","Study Phase2",3863,"","50"
"58542426733c730001a5d1f4",275,20,"BACKWARD IS VERSION D","NEW","TALK","DISCUSSION","ON","B","JOL","Study Phase2",2523,"","60"
"58542426733c730001a5d1f4",276,20,"BACKWARD IS VERSION D","NEW","SIP","DRINK","ON","F","JOL","Study Phase2",2028,"","50"
"58542426733c730001a5d1f4",277,20,"BACKWARD IS VERSION D","NEW","CHEESE","WINE","ON","S","JOL","Study Phase2",8952,"","40"
"58542426733c730001a5d1f4",278,20,"BACKWARD IS VERSION D","NEW","CHORE","WORK","ON","F","JOL","Study Phase2",2359,"","70"
"58542426733c730001a5d1f4",279,20,"BACKWARD IS VERSION D","NEW","LATCH","KEY","ON","F","JOL","Study Phase2",4580,"","60"
"58542426733c730001a5d1f4",280,20,"BACKWARD IS VERSION D","NEW","LION","ART","ON","U","JOL","Study Phase2",2125,"","0"
"58542426733c730001a5d1f4",281,20,"BACKWARD IS VERSION D","NEW","CHILI","HOT","ON","F","JOL","Study Phase2",2731,"","70"
"58542426733c730001a5d1f4",282,20,"BACKWARD IS VERSION D","NEW","NEWS","EDITOR","ON","B","JOL","Study Phase2",2519,"","60"
"58542426733c730001a5d1f4",283,20,"BACKWARD IS VERSION D","NEW","SIGHT","DEBATE","ON","U","JOL","Study Phase2",2618,"","0"
"58542426733c730001a5d1f4",284,20,"BACKWARD IS VERSION D","NEW","ASSIGNMENT","DUE","ON","S","JOL","Study Phase2",2750,"","20"
"58542426733c730001a5d1f4",285,20,"BACKWARD IS VERSION D","NEW","VASE","KING","ON","U","JOL","Study Phase2",2227,"","0"
"58542426733c730001a5d1f4",286,20,"BACKWARD IS VERSION D","NEW","SEIZE","TAKE","ON","F","JOL","Study Phase2",3424,"","80"
"58542426733c730001a5d1f4",287,20,"BACKWARD IS VERSION D","NEW","PLANT","ROOT","ON","B","JOL","Study Phase2",2159,"","50"
"58542426733c730001a5d1f4",288,20,"BACKWARD IS VERSION D","NEW","PILOT","PLANE","ON","F","JOL","Study Phase2",1975,"","80"
"58542426733c730001a5d1f4",289,20,"BACKWARD IS VERSION D","NEW","WASTE","DUMP","ON","S","JOL","Study Phase2",2465,"","90"
"58542426733c730001a5d1f4",300,20,"BACKWARD IS VERSION D","NEW","SIGHT","DEBATE","ON","U","Test","Recall2",1958,"",NA
"58542426733c730001a5d1f4",301,20,"BACKWARD IS VERSION D","NEW","FISH","TUNA","ON","B","Test","Recall2",4079,"tuna",NA
"58542426733c730001a5d1f4",302,20,"BACKWARD IS VERSION D","NEW","CHORE","WORK","ON","F","Test","Recall2",4932,"work",NA
"58542426733c730001a5d1f4",303,20,"BACKWARD IS VERSION D","NEW","WORD","SENTENCE","ON","F","Test","Recall2",955,"",NA
"58542426733c730001a5d1f4",304,20,"BACKWARD IS VERSION D","NEW","BRONZE","ARTERY","ON","U","Test","Recall2",1122,"",NA
"58542426733c730001a5d1f4",305,20,"BACKWARD IS VERSION D","NEW","STOMACH","DIGESTION","ON","B","Test","Recall2",2930,"",NA
"58542426733c730001a5d1f4",306,20,"BACKWARD IS VERSION D","NEW","PILOT","PLANE","ON","F","Test","Recall2",2040,"plane",NA
"58542426733c730001a5d1f4",307,20,"BACKWARD IS VERSION D","NEW","FAMINE","HUNGER","ON","F","Test","Recall2",4401,"hunger",NA
"58542426733c730001a5d1f4",308,20,"BACKWARD IS VERSION D","NEW","BAD","DELINQUENT","ON","B","Test","Recall2",794,"",NA
"58542426733c730001a5d1f4",309,20,"BACKWARD IS VERSION D","NEW","BIRD","SWAN","ON","B","Test","Recall2",3223,"",NA
"58542426733c730001a5d1f4",310,20,"BACKWARD IS VERSION D","NEW","FLOOR","DISCOVER","ON","U","Test","Recall2",1812,"",NA
"58542426733c730001a5d1f4",311,20,"BACKWARD IS VERSION D","NEW","ADD","VALLEY","ON","U","Test","Recall2",2725,"",NA
"58542426733c730001a5d1f4",312,20,"BACKWARD IS VERSION D","NEW","WOULD","CASH","ON","U","Test","Recall2",1156,"",NA
"58542426733c730001a5d1f4",313,20,"BACKWARD IS VERSION D","NEW","COW","HERD","ON","B","Test","Recall2",3276,"herd",NA
"58542426733c730001a5d1f4",314,20,"BACKWARD IS VERSION D","NEW","SICK","HIDE","ON","U","Test","Recall2",767,"",NA
"58542426733c730001a5d1f4",315,20,"BACKWARD IS VERSION D","NEW","CHEESE","WINE","ON","S","Test","Recall2",1827,"wine",NA
"58542426733c730001a5d1f4",316,20,"BACKWARD IS VERSION D","NEW","TUCK","ALLOW","ON","U","Test","Recall2",1820,"",NA
"58542426733c730001a5d1f4",317,20,"BACKWARD IS VERSION D","NEW","CARD","CREDIT","ON","B","Test","Recall2",4656,"credit",NA
"58542426733c730001a5d1f4",318,20,"BACKWARD IS VERSION D","NEW","COLD","BITTER","ON","B","Test","Recall2",3670,"bitter",NA
"58542426733c730001a5d1f4",319,20,"BACKWARD IS VERSION D","NEW","ATTIRE","CLOTHES","ON","F","Test","Recall2",1154,"",NA
"58542426733c730001a5d1f4",320,20,"BACKWARD IS VERSION D","NEW","TOILET","BATHROOM","ON","S","Test","Recall2",4587,"bathroom",NA
"58542426733c730001a5d1f4",321,20,"BACKWARD IS VERSION D","NEW","DIVISION","MATH","ON","F","Test","Recall2",6613,"",NA
"58542426733c730001a5d1f4",322,20,"BACKWARD IS VERSION D","NEW","ACCIDENT","STRONG","ON","U","Test","Recall2",860,"",NA
"58542426733c730001a5d1f4",323,20,"BACKWARD IS VERSION D","NEW","ASSIGNMENT","DUE","ON","S","Test","Recall2",3185,"",NA
"58542426733c730001a5d1f4",324,20,"BACKWARD IS VERSION D","NEW","WAR","REVOLUTION","ON","B","Test","Recall2",1985,"",NA
"58542426733c730001a5d1f4",325,20,"BACKWARD IS VERSION D","NEW","BLAZE","FIRE","ON","F","Test","Recall2",2388,"fire",NA
"58542426733c730001a5d1f4",326,20,"BACKWARD IS VERSION D","NEW","LIVER","KIDNEY","ON","S","Test","Recall2",2509,"",NA
"58542426733c730001a5d1f4",327,20,"BACKWARD IS VERSION D","NEW","RACKET","BALL","ON","F","Test","Recall2",1816,"ball",NA
"58542426733c730001a5d1f4",328,20,"BACKWARD IS VERSION D","NEW","CAVE","DARK","ON","F","Test","Recall2",2768,"dark",NA
"58542426733c730001a5d1f4",329,20,"BACKWARD IS VERSION D","NEW","BEE","HONEY","ON","S","Test","Recall2",4816,"honey",NA
"58542426733c730001a5d1f4",330,20,"BACKWARD IS VERSION D","NEW","BAR","GRILL","ON","S","Test","Recall2",2343,"grill",NA
"58542426733c730001a5d1f4",331,20,"BACKWARD IS VERSION D","NEW","PLANT","ROOT","ON","B","Test","Recall2",1526,"",NA
"58542426733c730001a5d1f4",332,20,"BACKWARD IS VERSION D","NEW","WATER","BRIDGE","ON","B","Test","Recall2",2556,"drink",NA
"58542426733c730001a5d1f4",333,20,"BACKWARD IS VERSION D","NEW","ATTORNEY","LAW","ON","F","Test","Recall2",3929,"lawyer",NA
"58542426733c730001a5d1f4",334,20,"BACKWARD IS VERSION D","NEW","WOMAN","LIFT","ON","U","Test","Recall2",3824,"lift",NA
"58542426733c730001a5d1f4",335,20,"BACKWARD IS VERSION D","NEW","MONEY","WAGE","ON","B","Test","Recall2",2316,"",NA
"58542426733c730001a5d1f4",336,20,"BACKWARD IS VERSION D","NEW","HUNGRY","PARK","ON","U","Test","Recall2",4499,"famine",NA
"58542426733c730001a5d1f4",337,20,"BACKWARD IS VERSION D","NEW","FANTASTIC","GREAT","ON","F","Test","Recall2",1857,"",NA
"58542426733c730001a5d1f4",338,20,"BACKWARD IS VERSION D","NEW","SACKING","DIETARY","ON","U","Test","Recall2",802,"",NA
"58542426733c730001a5d1f4",339,20,"BACKWARD IS VERSION D","NEW","STING","HORNET","ON","B","Test","Recall2",3693,"hornet",NA
"58542426733c730001a5d1f4",340,20,"BACKWARD IS VERSION D","NEW","WIND","BLOW","ON","S","Test","Recall2",4334,"chime",NA
"58542426733c730001a5d1f4",341,20,"BACKWARD IS VERSION D","NEW","JURY","TRIAL","ON","S","Test","Recall2",2108,"",NA
"58542426733c730001a5d1f4",342,20,"BACKWARD IS VERSION D","NEW","END","BEGIN","ON","S","Test","Recall2",5273,"begin",NA
"58542426733c730001a5d1f4",343,20,"BACKWARD IS VERSION D","NEW","DROWSY","SLEEP","ON","F","Test","Recall2",3715,"",NA
"58542426733c730001a5d1f4",344,20,"BACKWARD IS VERSION D","NEW","LION","ART","ON","U","Test","Recall2",4080,"",NA
"58542426733c730001a5d1f4",345,20,"BACKWARD IS VERSION D","NEW","FUTURE","PAST","ON","S","Test","Recall2",2057,"past",NA
"58542426733c730001a5d1f4",346,20,"BACKWARD IS VERSION D","NEW","SIP","DRINK","ON","F","Test","Recall2",3177,"drink",NA
"58542426733c730001a5d1f4",347,20,"BACKWARD IS VERSION D","NEW","BUSINESS","DEATH","ON","U","Test","Recall2",1044,"",NA
"58542426733c730001a5d1f4",348,20,"BACKWARD IS VERSION D","NEW","STENCH","SMELL","ON","F","Test","Recall2",1975,"smell",NA
"58542426733c730001a5d1f4",349,20,"BACKWARD IS VERSION D","NEW","FOOT","SHOE","ON","S","Test","Recall2",891,"",NA
"58542426733c730001a5d1f4",350,20,"BACKWARD IS VERSION D","NEW","LATCH","KEY","ON","F","Test","Recall2",700,"",NA
"58542426733c730001a5d1f4",351,20,"BACKWARD IS VERSION D","NEW","CLUTTER","PUSHER","ON","U","Test","Recall2",1140,"",NA
"58542426733c730001a5d1f4",352,20,"BACKWARD IS VERSION D","NEW","HAND","FIX","ON","U","Test","Recall2",1224,"",NA
"58542426733c730001a5d1f4",353,20,"BACKWARD IS VERSION D","NEW","DOG","PAW","ON","B","Test","Recall2",1081,"",NA
"58542426733c730001a5d1f4",354,20,"BACKWARD IS VERSION D","NEW","GROWTH","HEIGHT","ON","F","Test","Recall2",868,"",NA
"58542426733c730001a5d1f4",355,20,"BACKWARD IS VERSION D","NEW","ROCK","GEOLOGY","ON","B","Test","Recall2",1002,"",NA
"58542426733c730001a5d1f4",356,20,"BACKWARD IS VERSION D","NEW","BELT","SOON","ON","U","Test","Recall2",1449,"",NA
"58542426733c730001a5d1f4",357,20,"BACKWARD IS VERSION D","NEW","TALK","DISCUSSION","ON","B","Test","Recall2",1088,"",NA
"58542426733c730001a5d1f4",358,20,"BACKWARD IS VERSION D","NEW","SODA","POP","ON","S","Test","Recall2",923,"",NA
"58542426733c730001a5d1f4",359,20,"BACKWARD IS VERSION D","NEW","ROUND","CIRCLE","ON","S","Test","Recall2",2303,"",NA
"58542426733c730001a5d1f4",360,20,"BACKWARD IS VERSION D","NEW","POSITION","MACHINE","ON","U","Test","Recall2",3147,"machine",NA
"58542426733c730001a5d1f4",361,20,"BACKWARD IS VERSION D","NEW","VASE","KING","ON","U","Test","Recall2",1092,"",NA
"58542426733c730001a5d1f4",362,20,"BACKWARD IS VERSION D","NEW","SEIZE","TAKE","ON","F","Test","Recall2",2560,"take",NA
"58542426733c730001a5d1f4",363,20,"BACKWARD IS VERSION D","NEW","WASTE","DUMP","ON","S","Test","Recall2",744,"",NA
"58542426733c730001a5d1f4",364,20,"BACKWARD IS VERSION D","NEW","CHILD","BABY","ON","S","Test","Recall2",5829,"",NA
"58542426733c730001a5d1f4",365,20,"BACKWARD IS VERSION D","NEW","DESIGN","ARCHITECTURE","ON","S","Test","Recall2",1097,"",NA
"58542426733c730001a5d1f4",366,20,"BACKWARD IS VERSION D","NEW","CHILI","HOT","ON","F","Test","Recall2",2162,"hot",NA
"58542426733c730001a5d1f4",367,20,"BACKWARD IS VERSION D","NEW","AMOUNT","NUMBER","ON","S","Test","Recall2",1049,"",NA
"58542426733c730001a5d1f4",368,20,"BACKWARD IS VERSION D","NEW","NEWS","EDITOR","ON","B","Test","Recall2",1051,"",NA
"58542426733c730001a5d1f4",369,20,"BACKWARD IS VERSION D","NEW","ENOUGH","FULL","ON","F","Test","Recall2",750,"",NA
"58542426733c730001a5d1f4",370,20,"BACKWARD IS VERSION D","NEW","OUT","WAY","ON","B","Test","Recall2",1466,"",NA
"58542426733c730001a5d1f4",371,20,"BACKWARD IS VERSION D","NEW","SITE","LOCATION","ON","S","Test","Recall2",907,"",NA
"58542426733c730001a5d1f4",372,20,"BACKWARD IS VERSION D","NEW","WASP","BUG","ON","F","Test","Recall2",1193,"",NA
"58542426733c730001a5d1f4",373,20,"BACKWARD IS VERSION D","NEW","FLOWER","ORCHID","ON","B","Test","Recall2",1519,"",NA
"58542426733c730001a5d1f4",374,20,"BACKWARD IS VERSION D","NEW","CAR","HAPPY","ON","U","Test","Recall2",1135,"",NA
"58542426733c730001a5d1f4",375,20,"BACKWARD IS VERSION D","NEW","SALAD","LETTUCE","ON","S","Test","Recall2",1500,"",NA
"58542426733c730001a5d1f4",376,20,"BACKWARD IS VERSION D","NEW","DEFINITION","MEANING","ON","S","Test","Recall2",1843,"",NA
"58542426733c730001a5d1f4",377,20,"BACKWARD IS VERSION D","NEW","RIDDLE","SUGAR","ON","U","Test","Recall2",1028,"",NA
"58542426733c730001a5d1f4",378,20,"BACKWARD IS VERSION D","NEW","CLEAN","HYGIENE","ON","B","Test","Recall2",1713,"",NA
"58542426733c730001a5d1f4",379,20,"BACKWARD IS VERSION D","NEW","HAMMER","CHISEL","ON","B","Test","Recall2",4565,"chisel",NA
"58ce8ad7444ade000102461d",24,21,"BACKWARD RL VERSION A","NEW","AFFECTION","LOVE","ON2","F","JOL","Study Phase",4710,"","55"
"58ce8ad7444ade000102461d",25,21,"BACKWARD RL VERSION A","NEW","SUN","TAN","ON2","S","JOL","Study Phase",4174,"","70"
"58ce8ad7444ade000102461d",26,21,"BACKWARD RL VERSION A","NEW","CAKE","CLOTHES","ON2","U","JOL","Study Phase",4939,"","35"
"58ce8ad7444ade000102461d",27,21,"BACKWARD RL VERSION A","NEW","SAFETY","SEATBELT","ON2","S","JOL","Study Phase",3824,"","70"
"58ce8ad7444ade000102461d",28,21,"BACKWARD RL VERSION A","NEW","LOAN","SIGN","ON2","U","JOL","Study Phase",4701,"","35"
"58ce8ad7444ade000102461d",29,21,"BACKWARD RL VERSION A","NEW","HONEST","TRUTHFUL","ON2","B","JOL","Study Phase",7384,"","60"
"58ce8ad7444ade000102461d",30,21,"BACKWARD RL VERSION A","NEW","ADJOURN","END","ON2","F","JOL","Study Phase",5285,"","65"
"58ce8ad7444ade000102461d",31,21,"BACKWARD RL VERSION A","NEW","FRUIT","STRAWBERRY","ON2","B","JOL","Study Phase",3950,"","60"
"58ce8ad7444ade000102461d",32,21,"BACKWARD RL VERSION A","NEW","CAT","PANTHER","ON2","B","JOL","Study Phase",8707,"","45"
"58ce8ad7444ade000102461d",33,21,"BACKWARD RL VERSION A","NEW","DETECTIVE","MYSTERY","ON2","F","JOL","Study Phase",4791,"","65"
"58ce8ad7444ade000102461d",34,21,"BACKWARD RL VERSION A","NEW","POP","BALLOON","ON2","B","JOL","Study Phase",9948,"","39"
"58ce8ad7444ade000102461d",35,21,"BACKWARD RL VERSION A","NEW","CLUE","GAME","ON2","F","JOL","Study Phase",4877,"","45"
"58ce8ad7444ade000102461d",36,21,"BACKWARD RL VERSION A","NEW","CHILL","COLD","ON2","F","JOL","Study Phase",4573,"","55"
"58ce8ad7444ade000102461d",37,21,"BACKWARD RL VERSION A","NEW","DEAD","COFFIN","ON2","B","JOL","Study Phase",4359,"","55"
"58ce8ad7444ade000102461d",38,21,"BACKWARD RL VERSION A","NEW","PLANE","AIRCRAFT","ON2","B","JOL","Study Phase",8561,"","57"
"58ce8ad7444ade000102461d",39,21,"BACKWARD RL VERSION A","NEW","FISH","SARDINE","ON2","B","JOL","Study Phase",4728,"","34"
"58ce8ad7444ade000102461d",40,21,"BACKWARD RL VERSION A","NEW","STAR","ACTRESS","ON2","B","JOL","Study Phase",6727,"","40"
"58ce8ad7444ade000102461d",41,21,"BACKWARD RL VERSION A","NEW","ROD","REEL","ON2","S","JOL","Study Phase",8924,"","45"
"58ce8ad7444ade000102461d",42,21,"BACKWARD RL VERSION A","NEW","TANTRUM","TEMPER","ON2","S","JOL","Study Phase",6548,"","65"
"58ce8ad7444ade000102461d",43,21,"BACKWARD RL VERSION A","NEW","SHEARS","SCISSORS","ON2","F","JOL","Study Phase",5608,"","55"
"58ce8ad7444ade000102461d",44,21,"BACKWARD RL VERSION A","NEW","ALONE","LONELY","ON2","S","JOL","Study Phase",6307,"","52"
"58ce8ad7444ade000102461d",45,21,"BACKWARD RL VERSION A","NEW","DRIVER","CAR","ON2","F","JOL","Study Phase",4383,"","67"
"58ce8ad7444ade000102461d",46,21,"BACKWARD RL VERSION A","NEW","JUSTICE","MAROON","ON2","U","JOL","Study Phase",7961,"","25"
"58ce8ad7444ade000102461d",47,21,"BACKWARD RL VERSION A","NEW","BOTH","OUNCE","ON2","U","JOL","Study Phase",6235,"","19"
"58ce8ad7444ade000102461d",48,21,"BACKWARD RL VERSION A","NEW","FLEA","TICK","ON2","S","JOL","Study Phase",3969,"","65"
"58ce8ad7444ade000102461d",49,21,"BACKWARD RL VERSION A","NEW","CHOP","CUT","ON2","F","JOL","Study Phase",4614,"","58"
"58ce8ad7444ade000102461d",50,21,"BACKWARD RL VERSION A","NEW","MOAT","CLEAR","ON2","U","JOL","Study Phase",5940,"","14"
"58ce8ad7444ade000102461d",51,21,"BACKWARD RL VERSION A","NEW","GLASS","BREAKABLE","ON2","B","JOL","Study Phase",12396,"","67"
"58ce8ad7444ade000102461d",52,21,"BACKWARD RL VERSION A","NEW","FURRY","DOG","ON2","F","JOL","Study Phase",7283,"","58"
"58ce8ad7444ade000102461d",53,21,"BACKWARD RL VERSION A","NEW","EVEN","REVENGE","ON2","B","JOL","Study Phase",11328,"","54"
"58ce8ad7444ade000102461d",54,21,"BACKWARD RL VERSION A","NEW","STRETCH","CLOTH","ON2","U","JOL","Study Phase",7346,"","24"
"58ce8ad7444ade000102461d",55,21,"BACKWARD RL VERSION A","NEW","MONEY","BANKER","ON2","B","JOL","Study Phase",7043,"","55"
"58ce8ad7444ade000102461d",56,21,"BACKWARD RL VERSION A","NEW","RIGHTS","EQUAL","ON2","S","JOL","Study Phase",4645,"","62"
"58ce8ad7444ade000102461d",57,21,"BACKWARD RL VERSION A","NEW","LOUD","NOISE","ON2","S","JOL","Study Phase",5793,"","72"
"58ce8ad7444ade000102461d",58,21,"BACKWARD RL VERSION A","NEW","FIGHT","BRAWL","ON2","B","JOL","Study Phase",5234,"","47"
"58ce8ad7444ade000102461d",60,21,"BACKWARD RL VERSION A","NEW","CRACKLE","ABLE","ON2","U","JOL","Study Phase",13125,"","33"
"58ce8ad7444ade000102461d",61,21,"BACKWARD RL VERSION A","NEW","BEST","FAVORITE","ON2","B","JOL","Study Phase",4902,"","44"
"58ce8ad7444ade000102461d",62,21,"BACKWARD RL VERSION A","NEW","SHELL","SHAKE","ON2","U","JOL","Study Phase",6942,"","23"
"58ce8ad7444ade000102461d",63,21,"BACKWARD RL VERSION A","NEW","INCENSE","SMELL","ON2","F","JOL","Study Phase",3910,"","57"
"58ce8ad7444ade000102461d",64,21,"BACKWARD RL VERSION A","NEW","CANDLE","WAX","ON2","S","JOL","Study Phase",7667,"","76"
"58ce8ad7444ade000102461d",65,21,"BACKWARD RL VERSION A","NEW","VEHICLE","CHARM","ON2","U","JOL","Study Phase",4740,"","13"
"58ce8ad7444ade000102461d",66,21,"BACKWARD RL VERSION A","NEW","LISTEN","FICTION","ON2","U","JOL","Study Phase",6118,"","36"
"58ce8ad7444ade000102461d",67,21,"BACKWARD RL VERSION A","NEW","RAZOR","SHAVE","ON2","S","JOL","Study Phase",6540,"","48"
"58ce8ad7444ade000102461d",68,21,"BACKWARD RL VERSION A","NEW","TRUTH","LIE","ON2","S","JOL","Study Phase",4581,"","63"
"58ce8ad7444ade000102461d",69,21,"BACKWARD RL VERSION A","NEW","MEAT","OBTAIN","ON2","U","JOL","Study Phase",4264,"","18"
"58ce8ad7444ade000102461d",70,21,"BACKWARD RL VERSION A","NEW","WATER","DRINK","ON2","S","JOL","Study Phase",7532,"","55"
"58ce8ad7444ade000102461d",71,21,"BACKWARD RL VERSION A","NEW","CAR","WINDSHIELD","ON2","B","JOL","Study Phase",14852,"","64"
"58ce8ad7444ade000102461d",72,21,"BACKWARD RL VERSION A","NEW","BASEBALL","LEAGUE","ON2","B","JOL","Study Phase",7637,"","76"
"58ce8ad7444ade000102461d",73,21,"BACKWARD RL VERSION A","NEW","PHONE","COMMUNICATION","ON2","S","JOL","Study Phase",8279,"","33"
"58ce8ad7444ade000102461d",74,21,"BACKWARD RL VERSION A","NEW","MULE","DONKEY","ON2","F","JOL","Study Phase",8334,"","66"
"58ce8ad7444ade000102461d",75,21,"BACKWARD RL VERSION A","NEW","TURN","FLIP","ON2","B","JOL","Study Phase",6112,"","38"
"58ce8ad7444ade000102461d",76,21,"BACKWARD RL VERSION A","NEW","EXTENSION","LONG","ON2","F","JOL","Study Phase",6791,"","34"
"58ce8ad7444ade000102461d",77,21,"BACKWARD RL VERSION A","NEW","MAIN","SCAR","ON2","U","JOL","Study Phase",3895,"","12"
"58ce8ad7444ade000102461d",78,21,"BACKWARD RL VERSION A","NEW","FUZZY","BANG","ON2","U","JOL","Study Phase",3990,"","16"
"58ce8ad7444ade000102461d",79,21,"BACKWARD RL VERSION A","NEW","SHOELACE","TIE","ON2","F","JOL","Study Phase",6628,"","72"
"58ce8ad7444ade000102461d",80,21,"BACKWARD RL VERSION A","NEW","NAME","HATE","ON2","U","JOL","Study Phase",4805,"","8"
"58ce8ad7444ade000102461d",81,21,"BACKWARD RL VERSION A","NEW","OWN","HAVE","ON2","S","JOL","Study Phase",6267,"","24"
"58ce8ad7444ade000102461d",82,21,"BACKWARD RL VERSION A","NEW","GONE","AWAY","ON2","S","JOL","Study Phase",7506,"","68"
"58ce8ad7444ade000102461d",83,21,"BACKWARD RL VERSION A","NEW","LITTER","TRASH","ON2","F","JOL","Study Phase",4556,"","54"
"58ce8ad7444ade000102461d",84,21,"BACKWARD RL VERSION A","NEW","ELEMENT","CARBON","ON2","S","JOL","Study Phase",6997,"","17"
"58ce8ad7444ade000102461d",85,21,"BACKWARD RL VERSION A","NEW","MIRROR","CHILDREN","ON2","U","JOL","Study Phase",5698,"","22"
"58ce8ad7444ade000102461d",86,21,"BACKWARD RL VERSION A","NEW","BIRD","PENGUIN","ON2","B","JOL","Study Phase",5567,"","35"
"58ce8ad7444ade000102461d",87,21,"BACKWARD RL VERSION A","NEW","DRY","WET","ON2","S","JOL","Study Phase",7088,"","56"
"58ce8ad7444ade000102461d",88,21,"BACKWARD RL VERSION A","NEW","THREAD","THIMBLE","ON2","B","JOL","Study Phase",5244,"","34"
"58ce8ad7444ade000102461d",89,21,"BACKWARD RL VERSION A","NEW","WRIST","BRACELET","ON2","S","JOL","Study Phase",6464,"","66"
"58ce8ad7444ade000102461d",90,21,"BACKWARD RL VERSION A","NEW","MASON","JAR","ON2","S","JOL","Study Phase",6249,"","55"
"58ce8ad7444ade000102461d",91,21,"BACKWARD RL VERSION A","NEW","FEUD","FIGHT","ON2","F","JOL","Study Phase",4419,"","44"
"58ce8ad7444ade000102461d",92,21,"BACKWARD RL VERSION A","NEW","MAZE","ELECTION","ON2","U","JOL","Study Phase",3901,"","10"
"58ce8ad7444ade000102461d",93,21,"BACKWARD RL VERSION A","NEW","BAD","VILLAIN","ON2","B","JOL","Study Phase",4948,"","52"
"58ce8ad7444ade000102461d",94,21,"BACKWARD RL VERSION A","NEW","TEMPERATURE","MORNING","ON2","U","JOL","Study Phase",5791,"","8"
"58ce8ad7444ade000102461d",95,21,"BACKWARD RL VERSION A","NEW","DINE","EAT","ON2","F","JOL","Study Phase",4253,"","66"
"58ce8ad7444ade000102461d",96,21,"BACKWARD RL VERSION A","NEW","CHERRY","RED","ON2","F","JOL","Study Phase",3622,"","65"
"58ce8ad7444ade000102461d",97,21,"BACKWARD RL VERSION A","NEW","EARTH","GROUND","ON2","S","JOL","Study Phase",4687,"","25"
"58ce8ad7444ade000102461d",98,21,"BACKWARD RL VERSION A","NEW","GIVE","STEAK","ON2","U","JOL","Study Phase",4267,"","7"
"58ce8ad7444ade000102461d",99,21,"BACKWARD RL VERSION A","NEW","SLEEP","NAP","ON2","B","JOL","Study Phase",3056,"","66"
"58ce8ad7444ade000102461d",100,21,"BACKWARD RL VERSION A","NEW","CACTUS","PLANT","ON2","F","JOL","Study Phase",4429,"","80"
"58ce8ad7444ade000102461d",101,21,"BACKWARD RL VERSION A","NEW","LEASE","TOIL","ON2","U","JOL","Study Phase",3675,"","14"
"58ce8ad7444ade000102461d",102,21,"BACKWARD RL VERSION A","NEW","DOCUMENT","PAPER","ON2","F","JOL","Study Phase",3830,"","66"
"58ce8ad7444ade000102461d",103,21,"BACKWARD RL VERSION A","NEW","KEYS","JOKE","ON2","U","JOL","Study Phase",6765,"","22"
"58ce8ad7444ade000102461d",104,21,"BACKWARD RL VERSION A","NEW","SCALP","HEAD","ON2","F","JOL","Study Phase",5906,"","63"
"58ce8ad7444ade000102461d",115,21,"BACKWARD RL VERSION A","NEW","EXTENSION","LONG","ON2","F","Test","Recall1",4084,"lead",NA
"58ce8ad7444ade000102461d",116,21,"BACKWARD RL VERSION A","NEW","MASON","JAR","ON2","S","Test","Recall1",11442,"floor",NA
"58ce8ad7444ade000102461d",117,21,"BACKWARD RL VERSION A","NEW","PHONE","COMMUNICATION","ON2","S","Test","Recall1",4920,"extension",NA
"58ce8ad7444ade000102461d",118,21,"BACKWARD RL VERSION A","NEW","BEST","FAVORITE","ON2","B","Test","Recall1",4555,"friend",NA
"58ce8ad7444ade000102461d",119,21,"BACKWARD RL VERSION A","NEW","MEAT","OBTAIN","ON2","U","Test","Recall1",4449,"hook",NA
"58ce8ad7444ade000102461d",120,21,"BACKWARD RL VERSION A","NEW","CLUE","GAME","ON2","F","Test","Recall1",12072,"crime",NA
"58ce8ad7444ade000102461d",121,21,"BACKWARD RL VERSION A","NEW","BIRD","PENGUIN","ON2","B","Test","Recall1",4359,"table",NA
"58ce8ad7444ade000102461d",122,21,"BACKWARD RL VERSION A","NEW","CHERRY","RED","ON2","F","Test","Recall1",4929,"red",NA
"58ce8ad7444ade000102461d",123,21,"BACKWARD RL VERSION A","NEW","CHOP","CUT","ON2","F","Test","Recall1",14769,"cut",NA
"58ce8ad7444ade000102461d",124,21,"BACKWARD RL VERSION A","NEW","CACTUS","PLANT","ON2","F","Test","Recall1",4590,"plant",NA
"58ce8ad7444ade000102461d",125,21,"BACKWARD RL VERSION A","NEW","JUSTICE","MAROON","ON2","U","Test","Recall1",4662,"peace",NA
"58ce8ad7444ade000102461d",126,21,"BACKWARD RL VERSION A","NEW","SLEEP","NAP","ON2","B","Test","Recall1",7762,"snooze",NA
"58ce8ad7444ade000102461d",127,21,"BACKWARD RL VERSION A","NEW","MONEY","BANKER","ON2","B","Test","Recall1",4168,"banker",NA
"58ce8ad7444ade000102461d",128,21,"BACKWARD RL VERSION A","NEW","SAFETY","SEATBELT","ON2","S","Test","Recall1",4843,"glass",NA
"58ce8ad7444ade000102461d",129,21,"BACKWARD RL VERSION A","NEW","MIRROR","CHILDREN","ON2","U","Test","Recall1",4462,"image",NA
"58ce8ad7444ade000102461d",130,21,"BACKWARD RL VERSION A","NEW","KEYS","JOKE","ON2","U","Test","Recall1",4107,"lock",NA
"58ce8ad7444ade000102461d",131,21,"BACKWARD RL VERSION A","NEW","SHELL","SHAKE","ON2","U","Test","Recall1",4478,"fish",NA
"58ce8ad7444ade000102461d",132,21,"BACKWARD RL VERSION A","NEW","SHEARS","SCISSORS","ON2","F","Test","Recall1",9475,"sisscors",NA
"58ce8ad7444ade000102461d",133,21,"BACKWARD RL VERSION A","NEW","BOTH","OUNCE","ON2","U","Test","Recall1",5116,"two",NA
"58ce8ad7444ade000102461d",134,21,"BACKWARD RL VERSION A","NEW","CRACKLE","ABLE","ON2","U","Test","Recall1",4465,"pop",NA
"58ce8ad7444ade000102461d",135,21,"BACKWARD RL VERSION A","NEW","TEMPERATURE","MORNING","ON2","U","Test","Recall1",4272,"heat",NA
"58ce8ad7444ade000102461d",136,21,"BACKWARD RL VERSION A","NEW","ROD","REEL","ON2","S","Test","Recall1",6441,"fish",NA
"58ce8ad7444ade000102461d",137,21,"BACKWARD RL VERSION A","NEW","GLASS","BREAKABLE","ON2","B","Test","Recall1",7334,"safety",NA
"58ce8ad7444ade000102461d",138,21,"BACKWARD RL VERSION A","NEW","SHOELACE","TIE","ON2","F","Test","Recall1",4965,"tie",NA
"58ce8ad7444ade000102461d",139,21,"BACKWARD RL VERSION A","NEW","ELEMENT","CARBON","ON2","S","Test","Recall1",10548,"carbon",NA
"58ce8ad7444ade000102461d",140,21,"BACKWARD RL VERSION A","NEW","DEAD","COFFIN","ON2","B","Test","Recall1",5887,"coffin",NA
"58ce8ad7444ade000102461d",141,21,"BACKWARD RL VERSION A","NEW","BAD","VILLAIN","ON2","B","Test","Recall1",7576,"good",NA
"58ce8ad7444ade000102461d",142,21,"BACKWARD RL VERSION A","NEW","OWN","HAVE","ON2","S","Test","Recall1",6456,"lose",NA
"58ce8ad7444ade000102461d",143,21,"BACKWARD RL VERSION A","NEW","RAZOR","SHAVE","ON2","S","Test","Recall1",4203,"sharp",NA
"58ce8ad7444ade000102461d",144,21,"BACKWARD RL VERSION A","NEW","TANTRUM","TEMPER","ON2","S","Test","Recall1",6352,"temper",NA
"58ce8ad7444ade000102461d",145,21,"BACKWARD RL VERSION A","NEW","MULE","DONKEY","ON2","F","Test","Recall1",9354,"donkey",NA
"58ce8ad7444ade000102461d",146,21,"BACKWARD RL VERSION A","NEW","STAR","ACTRESS","ON2","B","Test","Recall1",3732,"fish",NA
"58ce8ad7444ade000102461d",147,21,"BACKWARD RL VERSION A","NEW","LOUD","NOISE","ON2","S","Test","Recall1",4271,"noise",NA
"58ce8ad7444ade000102461d",148,21,"BACKWARD RL VERSION A","NEW","DETECTIVE","MYSTERY","ON2","F","Test","Recall1",5137,"fiction",NA
"58ce8ad7444ade000102461d",149,21,"BACKWARD RL VERSION A","NEW","PLANE","AIRCRAFT","ON2","B","Test","Recall1",13292,"landing",NA
"58ce8ad7444ade000102461d",150,21,"BACKWARD RL VERSION A","NEW","DRIVER","CAR","ON2","F","Test","Recall1",6804,"passanger",NA
"58ce8ad7444ade000102461d",151,21,"BACKWARD RL VERSION A","NEW","FEUD","FIGHT","ON2","F","Test","Recall1",4128,"peace",NA
"58ce8ad7444ade000102461d",152,21,"BACKWARD RL VERSION A","NEW","CANDLE","WAX","ON2","S","Test","Recall1",4478,"stick",NA
"58ce8ad7444ade000102461d",153,21,"BACKWARD RL VERSION A","NEW","LITTER","TRASH","ON2","F","Test","Recall1",5514,"bin",NA
"58ce8ad7444ade000102461d",154,21,"BACKWARD RL VERSION A","NEW","FIGHT","BRAWL","ON2","B","Test","Recall1",5385,"peace",NA
"58ce8ad7444ade000102461d",155,21,"BACKWARD RL VERSION A","NEW","AFFECTION","LOVE","ON2","F","Test","Recall1",3528,"love",NA
"58ce8ad7444ade000102461d",156,21,"BACKWARD RL VERSION A","NEW","TURN","FLIP","ON2","B","Test","Recall1",4419,"key",NA
"58ce8ad7444ade000102461d",157,21,"BACKWARD RL VERSION A","NEW","DRY","WET","ON2","S","Test","Recall1",4703,"wet",NA
"58ce8ad7444ade000102461d",158,21,"BACKWARD RL VERSION A","NEW","POP","BALLOON","ON2","B","Test","Recall1",7745,"weasel",NA
"58ce8ad7444ade000102461d",159,21,"BACKWARD RL VERSION A","NEW","CAKE","CLOTHES","ON2","U","Test","Recall1",7650,"candle",NA
"58ce8ad7444ade000102461d",160,21,"BACKWARD RL VERSION A","NEW","DOCUMENT","PAPER","ON2","F","Test","Recall1",4246,"paper",NA
"58ce8ad7444ade000102461d",161,21,"BACKWARD RL VERSION A","NEW","GONE","AWAY","ON2","S","Test","Recall1",5282,"away",NA
"58ce8ad7444ade000102461d",162,21,"BACKWARD RL VERSION A","NEW","EARTH","GROUND","ON2","S","Test","Recall1",5696,"tremor",NA
"58ce8ad7444ade000102461d",163,21,"BACKWARD RL VERSION A","NEW","DINE","EAT","ON2","F","Test","Recall1",4925,"cook",NA
"58ce8ad7444ade000102461d",164,21,"BACKWARD RL VERSION A","NEW","FURRY","DOG","ON2","F","Test","Recall1",4243,"dog",NA
"58ce8ad7444ade000102461d",165,21,"BACKWARD RL VERSION A","NEW","INCENSE","SMELL","ON2","F","Test","Recall1",4409,"candle",NA
"58ce8ad7444ade000102461d",166,21,"BACKWARD RL VERSION A","NEW","LOAN","SIGN","ON2","U","Test","Recall1",6530,"money",NA
"58ce8ad7444ade000102461d",167,21,"BACKWARD RL VERSION A","NEW","LISTEN","FICTION","ON2","U","Test","Recall1",5938,"hear",NA
"58ce8ad7444ade000102461d",168,21,"BACKWARD RL VERSION A","NEW","MOAT","CLEAR","ON2","U","Test","Recall1",5667,"castle",NA
"58ce8ad7444ade000102461d",169,21,"BACKWARD RL VERSION A","NEW","MAIN","SCAR","ON2","U","Test","Recall1",4078,"stay",NA
"58ce8ad7444ade000102461d",170,21,"BACKWARD RL VERSION A","NEW","ADJOURN","END","ON2","F","Test","Recall1",7114,"court",NA
"58ce8ad7444ade000102461d",171,21,"BACKWARD RL VERSION A","NEW","HONEST","TRUTHFUL","ON2","B","Test","Recall1",38819,"deceitful",NA
"58ce8ad7444ade000102461d",172,21,"BACKWARD RL VERSION A","NEW","EVEN","REVENGE","ON2","B","Test","Recall1",5303,"money",NA
"58ce8ad7444ade000102461d",173,21,"BACKWARD RL VERSION A","NEW","CHILL","COLD","ON2","F","Test","Recall1",6485,"food",NA
"58ce8ad7444ade000102461d",174,21,"BACKWARD RL VERSION A","NEW","TRUTH","LIE","ON2","S","Test","Recall1",6410,"lie",NA
"58ce8ad7444ade000102461d",175,21,"BACKWARD RL VERSION A","NEW","FUZZY","BANG","ON2","U","Test","Recall1",9739,"smooth",NA
"58ce8ad7444ade000102461d",176,21,"BACKWARD RL VERSION A","NEW","CAR","WINDSHIELD","ON2","B","Test","Recall1",5382,"driver",NA
"58ce8ad7444ade000102461d",177,21,"BACKWARD RL VERSION A","NEW","GIVE","STEAK","ON2","U","Test","Recall1",4336,"take",NA
"58ce8ad7444ade000102461d",178,21,"BACKWARD RL VERSION A","NEW","WATER","DRINK","ON2","S","Test","Recall1",3898,"food",NA
"58ce8ad7444ade000102461d",179,21,"BACKWARD RL VERSION A","NEW","NAME","HATE","ON2","U","Test","Recall1",6730,"calling",NA
"58ce8ad7444ade000102461d",180,21,"BACKWARD RL VERSION A","NEW","FLEA","TICK","ON2","S","Test","Recall1",3955,"tick",NA
"58ce8ad7444ade000102461d",181,21,"BACKWARD RL VERSION A","NEW","RIGHTS","EQUAL","ON2","S","Test","Recall1",8193,"issues",NA
"58ce8ad7444ade000102461d",182,21,"BACKWARD RL VERSION A","NEW","MAZE","ELECTION","ON2","U","Test","Recall1",11268,"hedge",NA
"58ce8ad7444ade000102461d",183,21,"BACKWARD RL VERSION A","NEW","THREAD","THIMBLE","ON2","B","Test","Recall1",6617,"needle",NA
"58ce8ad7444ade000102461d",184,21,"BACKWARD RL VERSION A","NEW","LEASE","TOIL","ON2","U","Test","Recall1",4091,"hold",NA
"58ce8ad7444ade000102461d",185,21,"BACKWARD RL VERSION A","NEW","FISH","SARDINE","ON2","B","Test","Recall1",5809,"shrimp",NA
"58ce8ad7444ade000102461d",186,21,"BACKWARD RL VERSION A","NEW","WRIST","BRACELET","ON2","S","Test","Recall1",6157,"braclet",NA
"58ce8ad7444ade000102461d",187,21,"BACKWARD RL VERSION A","NEW","VEHICLE","CHARM","ON2","U","Test","Recall1",4081,"car",NA
"58ce8ad7444ade000102461d",188,21,"BACKWARD RL VERSION A","NEW","ALONE","LONELY","ON2","S","Test","Recall1",8942,"lonely",NA
"58ce8ad7444ade000102461d",189,21,"BACKWARD RL VERSION A","NEW","SUN","TAN","ON2","S","Test","Recall1",5742,"tan",NA
"58ce8ad7444ade000102461d",190,21,"BACKWARD RL VERSION A","NEW","CAT","PANTHER","ON2","B","Test","Recall1",4568,"dog",NA
"58ce8ad7444ade000102461d",191,21,"BACKWARD RL VERSION A","NEW","STRETCH","CLOTH","ON2","U","Test","Recall1",6425,"limo",NA
"58ce8ad7444ade000102461d",192,21,"BACKWARD RL VERSION A","NEW","BASEBALL","LEAGUE","ON2","B","Test","Recall1",3992,"cap",NA
"58ce8ad7444ade000102461d",193,21,"BACKWARD RL VERSION A","NEW","FRUIT","STRAWBERRY","ON2","B","Test","Recall1",23020,"lemon",NA
"58ce8ad7444ade000102461d",194,21,"BACKWARD RL VERSION A","NEW","SCALP","HEAD","ON2","F","Test","Recall1",4364,"hair",NA
"58ce8ad7444ade000102461d",209,21,"BACKWARD RL VERSION A","NEW","POP","SODA","ON","S","JOL","Study Phase2",7659,"","55"
"58ce8ad7444ade000102461d",210,21,"BACKWARD RL VERSION A","NEW","GRILL","BAR","ON","S","JOL","Study Phase2",8671,"","54"
"58ce8ad7444ade000102461d",211,21,"BACKWARD RL VERSION A","NEW","DUE","ASSIGNMENT","ON","S","JOL","Study Phase2",6926,"","56"
"58ce8ad7444ade000102461d",212,21,"BACKWARD RL VERSION A","NEW","MATH","DIVISION","ON","B","JOL","Study Phase2",6028,"","58"
"58ce8ad7444ade000102461d",213,21,"BACKWARD RL VERSION A","NEW","BUG","WASP","ON","B","JOL","Study Phase2",6169,"","48"
"58ce8ad7444ade000102461d",214,21,"BACKWARD RL VERSION A","NEW","HERD","COW","ON","F","JOL","Study Phase2",6241,"","52"
"58ce8ad7444ade000102461d",215,21,"BACKWARD RL VERSION A","NEW","ORCHID","FLOWER","ON","F","JOL","Study Phase2",5464,"","65"
"58ce8ad7444ade000102461d",216,21,"BACKWARD RL VERSION A","NEW","CREDIT","CARD","ON","F","JOL","Study Phase2",3330,"","80"
"58ce8ad7444ade000102461d",217,21,"BACKWARD RL VERSION A","NEW","BEGIN","END","ON","S","JOL","Study Phase2",5346,"","71"
"58ce8ad7444ade000102461d",218,21,"BACKWARD RL VERSION A","NEW","ART","LION","ON","U","JOL","Study Phase2",4880,"","15"
"58ce8ad7444ade000102461d",219,21,"BACKWARD RL VERSION A","NEW","BATHROOM","TOILET","ON","S","JOL","Study Phase2",4506,"","66"
"58ce8ad7444ade000102461d",220,21,"BACKWARD RL VERSION A","NEW","CLOTHES","ATTIRE","ON","B","JOL","Study Phase2",31220,"","44"
"58ce8ad7444ade000102461d",221,21,"BACKWARD RL VERSION A","NEW","HONEY","BEE","ON","S","JOL","Study Phase2",4632,"","65"
"58ce8ad7444ade000102461d",222,21,"BACKWARD RL VERSION A","NEW","LAW","ATTORNEY","ON","B","JOL","Study Phase2",6120,"","44"
