Username,ID,ExperimentName,Session,Trial,Date,TimeDif,"Condition Number","Stimuli File","Order File","Condition Description","Condition Notes",Stimuli*Cue,Stimuli*Answer,Stimuli*Shuffle,"Stimuli*Stimuli Notes",Stimuli*Value,Procedure*Item,"Procedure*Trial Type","Procedure*Max Time","Procedure*Min Time",Procedure*Text,"Procedure*Procedure Notes",Procedure*Shuffle,Response*RT,Response*Response,Response*Accuracy,Response*RTfirst,Response*RTlast,Response*strictAcc,Response*lenientAcc,Response*focus,Response*JOL,Response*Focus
w999716_lnk,lu98cz3p4c,Emily_Honors_Thesis_Part_2,1,1,2020-05-02T13:15:34-07:00,19.161729097366,10,versionA_stim.csv,RL_JOLVersionB.csv,"RELATIONAL Version B",OLD,,,,,,0,Instruct,-,10,"In this section, you will be presented with a series of word pairs. As you study, you will be asked to rate your ability to remember the second item in the pair if you were only shown the first at test. You will make these ratings using a 0 to 100 Scale.",,Instruct13,18600,,,-1,-1,,,,,1
w999716_lnk,lu98cz3p4c,Emily_Honors_Thesis_Part_2,1,2,2020-05-02T13:15:46-07:00,12.593453884125,10,versionA_stim.csv,RL_JOLVersionB.csv,"RELATIONAL Version B",OLD,,,,,,0,Instruct,-,10,"For example, if you are given the pair CAT - DOG, a rating of 0 indicates that you would not remember DOG at test, while a rating of 100 indicates full certainty that you would remember the word DOG at test.",,Instruct14,11915,,,-1,-1,,,,,1
w999716_lnk,lu98cz3p4c,Emily_Honors_Thesis_Part_2,1,3,2020-05-02T13:15:59-07:00,12.370546102524,10,versionA_stim.csv,RL_JOLVersionB.csv,"RELATIONAL Version B",OLD,,,,,,0,Instruct,-,10,"When making these ratings, it is criticial that you use the full range of the scale. You will be disqualified for only giving ratings of 0 or 100! After making your rating, press Enter to advance to the next pair.",,Instruct15,11756,,,-1,-1,,,,,1
w999716_lnk,lu98cz3p4c,Emily_Honors_Thesis_Part_2,1,4,2020-05-02T13:16:15-07:00,16.421224117279,10,versionA_stim.csv,RL_JOLVersionB.csv,"RELATIONAL Version B",OLD,,,,,,0,Instruct,-,15,"As you study and make your ratings, please think about how the two concepts are RELATED to each other. For example, if you see the pair TURTLE-CAT, think about how both are alive, they are both animals, and both can be kept as pets.",,Instruct19,15803,,,-1,-1,,,,,1
w999716_lnk,lu98cz3p4c,Emily_Honors_Thesis_Part_2,1,5,2020-05-02T13:17:01-07:00,45.919676780701,10,versionA_stim.csv,RL_JOLVersionB.csv,"RELATIONAL Version B",OLD,,,,,,0,FreeRecall,-,10,"What you should think about as you study each item pair? Type your response in the box below.",,CHECK1,45194,"How both of the words are related in some type of way.",0,4254,22140,0,0,,,0.841
w999716_lnk,lu98cz3p4c,Emily_Honors_Thesis_Part_2,1,6,2020-05-02T13:17:15-07:00,14.025862216949,10,versionA_stim.csv,RL_JOLVersionB.csv,"RELATIONAL Version B",OLD,,,,,,0,Instruct,-,5,"You will now complete a practice session. Please study the following items and rate your ability to remember them. Remember to think about how the two items are similiar!",,Instruct17,13354,,,-1,-1,,,,,1
w999716_lnk,lu98cz3p4c,Emily_Honors_Thesis_Part_2,1,7,2020-05-02T13:17:21-07:00,6.1072268486023,10,versionA_stim.csv,RL_JOLVersionB.csv,"RELATIONAL Version B",OLD,HINGE,SWING,PRACTICE,PRACTICE,185,188,JOL,User,-,"How likely are you to correctly recall the second item in the pair?|Type your response on a scale from 0-100 and then press Enter.",Study/JOL,PRACTICE,5389,,,4626,5039,,,,100,1
w999716_lnk,lu98cz3p4c,Emily_Honors_Thesis_Part_2,1,8,2020-05-02T13:17:25-07:00,3.8625481128693,10,versionA_stim.csv,RL_JOLVersionB.csv,"RELATIONAL Version B",OLD,FASHION,MODEL,PRACTICE,PRACTICE,190,183,JOL,User,-,"How likely are you to correctly recall the second item in the pair?|Type your response on a scale from 0-100 and then press Enter.",Study/JOL,PRACTICE,3203,,,2092,2684,,,,100,1
w999716_lnk,lu98cz3p4c,Emily_Honors_Thesis_Part_2,1,9,2020-05-02T13:17:28-07:00,2.8487620353699,10,versionA_stim.csv,RL_JOLVersionB.csv,"RELATIONAL Version B",OLD,CHOCOLATE,BAR,PRACTICE,PRACTICE,187,182,JOL,User,-,"How likely are you to correctly recall the second item in the pair?|Type your response on a scale from 0-100 and then press Enter.",Study/JOL,PRACTICE,2152,,,1466,1883,,,,100,1
w999716_lnk,lu98cz3p4c,Emily_Honors_Thesis_Part_2,1,10,2020-05-02T13:17:32-07:00,3.6550478935242,10,versionA_stim.csv,RL_JOLVersionB.csv,"RELATIONAL Version B",OLD,CHIME,MUSIC,PRACTICE,PRACTICE,188,185,JOL,User,-,"How likely are you to correctly recall the second item in the pair?|Type your response on a scale from 0-100 and then press Enter.",Study/JOL,PRACTICE,2937,,,2098,2694,,,,100,1
w999716_lnk,lu98cz3p4c,Emily_Honors_Thesis_Part_2,1,11,2020-05-02T13:17:36-07:00,4.2679998874664,10,versionA_stim.csv,RL_JOLVersionB.csv,"RELATIONAL Version B",OLD,HAM,BONE,PRACTICE,PRACTICE,183,187,JOL,User,-,"How likely are you to correctly recall the second item in the pair?|Type your response on a scale from 0-100 and then press Enter.",Study/JOL,PRACTICE,3643,,,3150,3408,,,,80,1
w999716_lnk,lu98cz3p4c,Emily_Honors_Thesis_Part_2,1,12,2020-05-02T13:17:41-07:00,5.3386490345001,10,versionA_stim.csv,RL_JOLVersionB.csv,"RELATIONAL Version B",OLD,AARDVARK,ZOO,PRACTICE,PRACTICE,181,186,JOL,User,-,"How likely are you to correctly recall the second item in the pair?|Type your response on a scale from 0-100 and then press Enter.",Study/JOL,PRACTICE,4681,,,4185,4426,,,,75,1
w999716_lnk,lu98cz3p4c,Emily_Honors_Thesis_Part_2,1,13,2020-05-02T13:17:44-07:00,3.1814460754395,10,versionA_stim.csv,RL_JOLVersionB.csv,"RELATIONAL Version B",OLD,PADDLE,ROW,PRACTICE,PRACTICE,184,189,JOL,User,-,"How likely are you to correctly recall the second item in the pair?|Type your response on a scale from 0-100 and then press Enter.",Study/JOL,PRACTICE,2502,,,1927,2301,,,,100,1
w999716_lnk,lu98cz3p4c,Emily_Honors_Thesis_Part_2,1,14,2020-05-02T13:17:48-07:00,3.651839017868,10,versionA_stim.csv,RL_JOLVersionB.csv,"RELATIONAL Version B",OLD,DISBELIEVE,SKEPTIC,PRACTICE,PRACTICE,186,190,JOL,User,-,"How likely are you to correctly recall the second item in the pair?|Type your response on a scale from 0-100 and then press Enter.",Study/JOL,PRACTICE,2974,,,2455,2823,,,,100,1
w999716_lnk,lu98cz3p4c,Emily_Honors_Thesis_Part_2,1,15,2020-05-02T13:17:55-07:00,7.4459900856018,10,versionA_stim.csv,RL_JOLVersionB.csv,"RELATIONAL Version B",OLD,DEAF,MUTE,PRACTICE,PRACTICE,182,184,JOL,User,-,"How likely are you to correctly recall the second item in the pair?|Type your response on a scale from 0-100 and then press Enter.",Study/JOL,PRACTICE,6813,,,1662,2084,,,,100,1
w999716_lnk,lu98cz3p4c,Emily_Honors_Thesis_Part_2,1,16,2020-05-02T13:18:01-07:00,5.0705947875977,10,versionA_stim.csv,RL_JOLVersionB.csv,"RELATIONAL Version B",OLD,BEHAVIOR,SOCIAL,PRACTICE,PRACTICE,189,191,JOL,User,-,"How likely are you to correctly recall the second item in the pair?|Type your response on a scale from 0-100 and then press Enter.",Study/JOL,PRACTICE,4386,,,3825,4109,,,,80,1
w999716_lnk,lu98cz3p4c,Emily_Honors_Thesis_Part_2,1,17,2020-05-02T13:18:03-07:00,2.3975141048431,10,versionA_stim.csv,RL_JOLVersionB.csv,"RELATIONAL Version B",OLD,,,,,,0,Instruct,User,-,"You have completed this section. Please press Enter to continue.",,Instruct18,1709,,,-1,-1,,,,,1
w999716_lnk,lu98cz3p4c,Emily_Honors_Thesis_Part_2,1,18,2020-05-02T13:18:35-07:00,32.23224902153,10,versionA_stim.csv,RL_JOLVersionB.csv,"RELATIONAL Version B",OLD,,,,,,0,Instruct,User,-,"You will now begin the study. Press Enter when you are ready to begin.",,Instruct16,31509,,,-1,-1,,,,,1
w999716_lnk,lu98cz3p4c,Emily_Honors_Thesis_Part_2,1,19,2020-05-02T13:18:40-07:00,4.5534448623657,10,versionA_stim.csv,RL_JOLVersionB.csv,"RELATIONAL Version B",OLD,SPRING,MARCH,Buffer3,Buffer,179,96,JOL,User,-,"How likely are you to correctly recall the second item in the pair?|Type your response on a scale from 0-100 and then press Enter.",Study/JOL,BUFFER,3908,,,3135,3509,,,,100,1
w999716_lnk,lu98cz3p4c,Emily_Honors_Thesis_Part_2,1,20,2020-05-02T13:18:45-07:00,4.8168032169342,10,versionA_stim.csv,RL_JOLVersionB.csv,"RELATIONAL Version B",OLD,CARROT,POTATO,Buffer3,Buffer,91,93,JOL,User,-,"How likely are you to correctly recall the second item in the pair?|Type your response on a scale from 0-100 and then press Enter.",Study/JOL,BUFFER,4159,,,2096,3934,,,,50,1
w999716_lnk,lu98cz3p4c,Emily_Honors_Thesis_Part_2,1,21,2020-05-02T13:18:47-07:00,2.5200319290161,10,versionA_stim.csv,RL_JOLVersionB.csv,"RELATIONAL Version B",OLD,ICE,FROZEN,Buffer3,Buffer,94,92,JOL,User,-,"How likely are you to correctly recall the second item in the pair?|Type your response on a scale from 0-100 and then press Enter.",Study/JOL,BUFFER,1858,,,1317,1682,,,,100,1
w999716_lnk,lu98cz3p4c,Emily_Honors_Thesis_Part_2,1,22,2020-05-02T13:18:50-07:00,2.9942278862,10,versionA_stim.csv,RL_JOLVersionB.csv,"RELATIONAL Version B",OLD,OCTOBER,SPOOKY,Buffer3,Buffer,180,94,JOL,User,-,"How likely are you to correctly recall the second item in the pair?|Type your response on a scale from 0-100 and then press Enter.",Study/JOL,BUFFER,2354,,,1838,2218,,,,100,1
w999716_lnk,lu98cz3p4c,Emily_Honors_Thesis_Part_2,1,23,2020-05-02T13:18:53-07:00,3.3359980583191,10,versionA_stim.csv,RL_JOLVersionB.csv,"RELATIONAL Version B",OLD,CAMP,ADVENTURE,Buffer3,Buffer,95,95,JOL,User,-,"How likely are you to correctly recall the second item in the pair?|Type your response on a scale from 0-100 and then press Enter.",Study/JOL,BUFFER,2680,,,2297,2507,,,,90,1
w999716_lnk,lu98cz3p4c,Emily_Honors_Thesis_Part_2,1,24,2020-05-02T13:18:57-07:00,3.5911359786987,10,versionA_stim.csv,RL_JOLVersionB.csv,"RELATIONAL Version B",OLD,LEASE,TOIL,ON2,U,170,171,JOL,User,-,"How likely are you to correctly recall the second item in the pair?|Type your response on a scale from 0-100 and then press Enter.",Study/JOL,"Study Phase",2924,,,2585,2739,,,,20,1
w999716_lnk,lu98cz3p4c,Emily_Honors_Thesis_Part_2,1,25,2020-05-02T13:19:00-07:00,2.768993139267,10,versionA_stim.csv,RL_JOLVersionB.csv,"RELATIONAL Version B",OLD,LITTER,TRASH,ON2,F,103,132,JOL,User,-,"How likely are you to correctly recall the second item in the pair?|Type your response on a scale from 0-100 and then press Enter.",Study/JOL,"Study Phase",2104,,,1325,1675,,,,100,1
w999716_lnk,lu98cz3p4c,Emily_Honors_Thesis_Part_2,1,26,2020-05-02T13:19:03-07:00,3.3797409534454,10,versionA_stim.csv,RL_JOLVersionB.csv,"RELATIONAL Version B",OLD,CANDLE,WAX,ON2,S,139,102,JOL,User,-,"How likely are you to correctly recall the second item in the pair?|Type your response on a scale from 0-100 and then press Enter.",Study/JOL,"Study Phase",2727,,,1349,1752,,,,100,1
w999716_lnk,lu98cz3p4c,Emily_Honors_Thesis_Part_2,1,27,2020-05-02T13:19:09-07:00,5.4055049419403,10,versionA_stim.csv,RL_JOLVersionB.csv,"RELATIONAL Version B",OLD,MOAT,CLEAR,ON2,U,169,144,JOL,User,-,"How likely are you to correctly recall the second item in the pair?|Type your response on a scale from 0-100 and then press Enter.",Study/JOL,"Study Phase",4722,,,4355,4522,,,,10,1
w999716_lnk,lu98cz3p4c,Emily_Honors_Thesis_Part_2,1,28,2020-05-02T13:19:12-07:00,3.2871799468994,10,versionA_stim.csv,RL_JOLVersionB.csv,"RELATIONAL Version B",OLD,FLEA,TICK,ON2,S,151,115,JOL,User,-,"How likely are you to correctly recall the second item in the pair?|Type your response on a scale from 0-100 and then press Enter.",Study/JOL,"Study Phase",2648,,,1799,2141,,,,100,1
w999716_lnk,lu98cz3p4c,Emily_Honors_Thesis_Part_2,1,29,2020-05-02T13:19:15-07:00,3.3617610931396,10,versionA_stim.csv,RL_JOLVersionB.csv,"RELATIONAL Version B",OLD,KEYS,JOKE,ON2,U,165,121,JOL,User,-,"How likely are you to correctly recall the second item in the pair?|Type your response on a scale from 0-100 and then press Enter.",Study/JOL,"Study Phase",2713,,,2301,2301,,,,0,1
w999716_lnk,lu98cz3p4c,Emily_Honors_Thesis_Part_2,1,30,2020-05-02T13:19:18-07:00,2.9999480247498,10,versionA_stim.csv,RL_JOLVersionB.csv,"RELATIONAL Version B",OLD,BIRD,PENGUIN,ON2,B,119,153,JOL,User,-,"How likely are you to correctly recall the second item in the pair?|Type your response on a scale from 0-100 and then press Enter.",Study/JOL,"Study Phase",2321,,,1901,2117,,,,50,1
w999716_lnk,lu98cz3p4c,Emily_Honors_Thesis_Part_2,1,31,2020-05-02T13:19:21-07:00,2.7029569149017,10,versionA_stim.csv,RL_JOLVersionB.csv,"RELATIONAL Version B",OLD,HONEST,TRUTHFUL,ON2,B,133,165,JOL,User,-,"How likely are you to correctly recall the second item in the pair?|Type your response on a scale from 0-100 and then press Enter.",Study/JOL,"Study Phase",2085,,,1560,1924,,,,100,1
w999716_lnk,lu98cz3p4c,Emily_Honors_Thesis_Part_2,1,32,2020-05-02T13:19:27-07:00,6.5434839725494,10,versionA_stim.csv,RL_JOLVersionB.csv,"RELATIONAL Version B",OLD,CLUE,GAME,ON2,F,97,134,JOL,User,-,"How likely are you to correctly recall the second item in the pair?|Type your response on a scale from 0-100 and then press Enter.",Study/JOL,"Study Phase",5883,,,3243,5681,,,,85,1
w999716_lnk,lu98cz3p4c,Emily_Honors_Thesis_Part_2,1,33,2020-05-02T13:19:48-07:00,20.254995107651,10,versionA_stim.csv,RL_JOLVersionB.csv,"RELATIONAL Version B",OLD,SCALP,HEAD,ON2,F,105,163,JOL,User,-,"How likely are you to correctly recall the second item in the pair?|Type your response on a scale from 0-100 and then press Enter.",Study/JOL,"Study Phase",19568,,,1597,1957,,,,100,1
w999716_lnk,lu98cz3p4c,Emily_Honors_Thesis_Part_2,1,34,2020-05-02T13:19:51-07:00,3.7702879905701,10,versionA_stim.csv,RL_JOLVersionB.csv,"RELATIONAL Version B",OLD,EVEN,REVENGE,ON2,B,122,101,JOL,User,-,"How likely are you to correctly recall the second item in the pair?|Type your response on a scale from 0-100 and then press Enter.",Study/JOL,"Study Phase",3124,,,2923,2923,,,,0,1
w999716_lnk,lu98cz3p4c,Emily_Honors_Thesis_Part_2,1,35,2020-05-02T13:19:56-07:00,4.0768830776215,10,versionA_stim.csv,RL_JOLVersionB.csv,"RELATIONAL Version B",OLD,SHELL,SHAKE,ON2,U,163,130,JOL,User,-,"How likely are you to correctly recall the second item in the pair?|Type your response on a scale from 0-100 and then press Enter.",Study/JOL,"Study Phase",3419,,,3173,3173,,,,0,1
w999716_lnk,lu98cz3p4c,Emily_Honors_Thesis_Part_2,1,36,2020-05-02T13:20:14-07:00,18.742151975632,10,versionA_stim.csv,RL_JOLVersionB.csv,"RELATIONAL Version B",OLD,TURN,FLIP,ON2,B,116,137,JOL,User,-,"How likely are you to correctly recall the second item in the pair?|Type your response on a scale from 0-100 and then press Enter.",Study/JOL,"Study Phase",18046,,,17300,17774,,,,100,1
w999716_lnk,lu98cz3p4c,Emily_Honors_Thesis_Part_2,1,37,2020-05-02T13:20:23-07:00,8.7821989059448,10,versionA_stim.csv,RL_JOLVersionB.csv,"RELATIONAL Version B",OLD,DETECTIVE,MYSTERY,ON2,F,100,122,JOL,User,-,"How likely are you to correctly recall the second item in the pair?|Type your response on a scale from 0-100 and then press Enter.",Study/JOL,"Study Phase",8100,,,7395,7622,,,,99,0.659
w999716_lnk,lu98cz3p4c,Emily_Honors_Thesis_Part_2,1,38,2020-05-02T13:20:26-07:00,2.6718978881836,10,versionA_stim.csv,RL_JOLVersionB.csv,"RELATIONAL Version B",OLD,JUSTICE,MAROON,ON2,U,156,127,JOL,User,-,"How likely are you to correctly recall the second item in the pair?|Type your response on a scale from 0-100 and then press Enter.",Study/JOL,"Study Phase",1982,,,1820,1820,,,,0,1
w999716_lnk,lu98cz3p4c,Emily_Honors_Thesis_Part_2,1,39,2020-05-02T13:20:31-07:00,4.9009630680084,10,versionA_stim.csv,RL_JOLVersionB.csv,"RELATIONAL Version B",OLD,STRETCH,CLOTH,ON2,U,157,150,JOL,User,-,"How likely are you to correctly recall the second item in the pair?|Type your response on a scale from 0-100 and then press Enter.",Study/JOL,"Study Phase",4215,,,3876,4034,,,,20,1
w999716_lnk,lu98cz3p4c,Emily_Honors_Thesis_Part_2,1,40,2020-05-02T13:20:34-07:00,2.9414360523224,10,versionA_stim.csv,RL_JOLVersionB.csv,"RELATIONAL Version B",OLD,BEST,FAVORITE,ON2,B,125,100,JOL,User,-,"How likely are you to correctly recall the second item in the pair?|Type your response on a scale from 0-100 and then press Enter.",Study/JOL,"Study Phase",2284,,,1819,2155,,,,100,1
w999716_lnk,lu98cz3p4c,Emily_Honors_Thesis_Part_2,1,41,2020-05-02T13:20:37-07:00,3.2279720306396,10,versionA_stim.csv,RL_JOLVersionB.csv,"RELATIONAL Version B",OLD,CRACKLE,ABLE,ON2,U,162,152,JOL,User,-,"How likely are you to correctly recall the second item in the pair?|Type your response on a scale from 0-100 and then press Enter.",Study/JOL,"Study Phase",2532,,,2203,2370,,,,10,1
w999716_lnk,lu98cz3p4c,Emily_Honors_Thesis_Part_2,1,42,2020-05-02T13:20:40-07:00,2.9592850208282,10,versionA_stim.csv,RL_JOLVersionB.csv,"RELATIONAL Version B",OLD,RAZOR,SHAVE,ON2,S,136,168,JOL,User,-,"How likely are you to correctly recall the second item in the pair?|Type your response on a scale from 0-100 and then press Enter.",Study/JOL,"Study Phase",2243,,,1727,2079,,,,100,1
w999716_lnk,lu98cz3p4c,Emily_Honors_Thesis_Part_2,1,43,2020-05-02T13:20:42-07:00,2.5380198955536,10,versionA_stim.csv,RL_JOLVersionB.csv,"RELATIONAL Version B",OLD,FRUIT,STRAWBERRY,ON2,B,124,176,JOL,User,-,"How likely are you to correctly recall the second item in the pair?|Type your response on a scale from 0-100 and then press Enter.",Study/JOL,"Study Phase",1894,,,1349,1720,,,,100,1
w999716_lnk,lu98cz3p4c,Emily_Honors_Thesis_Part_2,1,44,2020-05-02T13:20:45-07:00,2.4812870025635,10,versionA_stim.csv,RL_JOLVersionB.csv,"RELATIONAL Version B",OLD,TRUTH,LIE,ON2,S,148,148,JOL,User,-,"How likely are you to correctly recall the second item in the pair?|Type your response on a scale from 0-100 and then press Enter.",Study/JOL,"Study Phase",1796,,,1211,1591,,,,100,1
w999716_lnk,lu98cz3p4c,Emily_Honors_Thesis_Part_2,1,45,2020-05-02T13:20:47-07:00,2.3778359889984,10,versionA_stim.csv,RL_JOLVersionB.csv,"RELATIONAL Version B",OLD,PHONE,COMMUNICATION,ON2,S,149,170,JOL,User,-,"How likely are you to correctly recall the second item in the pair?|Type your response on a scale from 0-100 and then press Enter.",Study/JOL,"Study Phase",1758,,,1208,1568,,,,100,1
w999716_lnk,lu98cz3p4c,Emily_Honors_Thesis_Part_2,1,46,2020-05-02T13:20:49-07:00,2.2241129875183,10,versionA_stim.csv,RL_JOLVersionB.csv,"RELATIONAL Version B",OLD,MULE,DONKEY,ON2,F,108,110,JOL,User,-,"How likely are you to correctly recall the second item in the pair?|Type your response on a scale from 0-100 and then press Enter.",Study/JOL,"Study Phase",1575,,,1086,1435,,,,100,1
w999716_lnk,lu98cz3p4c,Emily_Honors_Thesis_Part_2,1,47,2020-05-02T13:20:53-07:00,3.8706710338593,10,versionA_stim.csv,RL_JOLVersionB.csv,"RELATIONAL Version B",OLD,LISTEN,FICTION,ON2,U,164,161,JOL,User,-,"How likely are you to correctly recall the second item in the pair?|Type your response on a scale from 0-100 and then press Enter.",Study/JOL,"Study Phase",3227,,,2819,3058,,,,40,1
w999716_lnk,lu98cz3p4c,Emily_Honors_Thesis_Part_2,1,48,2020-05-02T13:20:56-07:00,3.2054030895233,10,versionA_stim.csv,RL_JOLVersionB.csv,"RELATIONAL Version B",OLD,NAME,HATE,ON2,U,167,104,JOL,User,-,"How likely are you to correctly recall the second item in the pair?|Type your response on a scale from 0-100 and then press Enter.",Study/JOL,"Study Phase",2572,,,2386,2386,,,,0,1
w999716_lnk,lu98cz3p4c,Emily_Honors_Thesis_Part_2,1,49,2020-05-02T13:20:59-07:00,2.8704538345337,10,versionA_stim.csv,RL_JOLVersionB.csv,"RELATIONAL Version B",OLD,GONE,AWAY,ON2,S,142,106,JOL,User,-,"How likely are you to correctly recall the second item in the pair?|Type your response on a scale from 0-100 and then press Enter.",Study/JOL,"Study Phase",2216,,,1634,1987,,,,100,1
w999716_lnk,lu98cz3p4c,Emily_Honors_Thesis_Part_2,1,50,2020-05-02T13:21:02-07:00,2.8227632045746,10,versionA_stim.csv,RL_JOLVersionB.csv,"RELATIONAL Version B",OLD,GLASS,BREAKABLE,ON2,B,127,173,JOL,User,-,"How likely are you to correctly recall the second item in the pair?|Type your response on a scale from 0-100 and then press Enter.",Study/JOL,"Study Phase",2183,,,1512,1981,,,,100,1
w999716_lnk,lu98cz3p4c,Emily_Honors_Thesis_Part_2,1,51,2020-05-02T13:21:05-07:00,2.6233539581299,10,versionA_stim.csv,RL_JOLVersionB.csv,"RELATIONAL Version B",OLD,RIGHTS,EQUAL,ON2,S,137,156,JOL,User,-,"How likely are you to correctly recall the second item in the pair?|Type your response on a scale from 0-100 and then press Enter.",Study/JOL,"Study Phase",1953,,,871,1289,,,,100,1
w999716_lnk,lu98cz3p4c,Emily_Honors_Thesis_Part_2,1,52,2020-05-02T13:21:08-07:00,3.7286188602448,10,versionA_stim.csv,RL_JOLVersionB.csv,"RELATIONAL Version B",OLD,GIVE,STEAK,ON2,U,158,157,JOL,User,-,"How likely are you to correctly recall the second item in the pair?|Type your response on a scale from 0-100 and then press Enter.",Study/JOL,"Study Phase",3077,,,2917,2917,,,,0,1
w999716_lnk,lu98cz3p4c,Emily_Honors_Thesis_Part_2,1,53,2020-05-02T13:21:11-07:00,3.0008311271667,10,versionA_stim.csv,RL_JOLVersionB.csv,"RELATIONAL Version B",OLD,FURRY,DOG,ON2,F,102,103,JOL,User,-,"How likely are you to correctly recall the second item in the pair?|Type your response on a scale from 0-100 and then press Enter.",Study/JOL,"Study Phase",2302,,,1929,2129,,,,20,1
w999716_lnk,lu98cz3p4c,Emily_Honors_Thesis_Part_2,1,54,2020-05-02T13:21:32-07:00,21.021565914154,10,versionA_stim.csv,RL_JOLVersionB.csv,"RELATIONAL Version B",OLD,MAIN,SCAR,ON2,U,175,136,JOL,User,-,"How likely are you to correctly recall the second item in the pair?|Type your response on a scale from 0-100 and then press Enter.",Study/JOL,"Study Phase",20367,,,20155,20155,,,,0,1
w999716_lnk,lu98cz3p4c,Emily_Honors_Thesis_Part_2,1,55,2020-05-02T13:21:37-07:00,4.1509580612183,10,versionA_stim.csv,RL_JOLVersionB.csv,"RELATIONAL Version B",OLD,CACTUS,PLANT,ON2,F,98,135,JOL,User,-,"How likely are you to correctly recall the second item in the pair?|Type your response on a scale from 0-100 and then press Enter.",Study/JOL,"Study Phase",3504,,,3025,3288,,,,80,1
w999716_lnk,lu98cz3p4c,Emily_Honors_Thesis_Part_2,1,56,2020-05-02T13:21:40-07:00,3.6262519359589,10,versionA_stim.csv,RL_JOLVersionB.csv,"RELATIONAL Version B",OLD,POP,BALLOON,ON2,B,123,131,JOL,User,-,"How likely are you to correctly recall the second item in the pair?|Type your response on a scale from 0-100 and then press Enter.",Study/JOL,"Study Phase",2994,,,2339,2786,,,,100,1
w999716_lnk,lu98cz3p4c,Emily_Honors_Thesis_Part_2,1,57,2020-05-02T13:22:14-07:00,34.152384996414,10,versionA_stim.csv,RL_JOLVersionB.csv,"RELATIONAL Version B",OLD,TANTRUM,TEMPER,ON2,S,154,175,JOL,User,-,"How likely are you to correctly recall the second item in the pair?|Type your response on a scale from 0-100 and then press Enter.",Study/JOL,"Study Phase",33453,,,32964,33314,,,,100,1
w999716_lnk,lu98cz3p4c,Emily_Honors_Thesis_Part_2,1,58,2020-05-02T13:22:21-07:00,6.9102971553802,10,versionA_stim.csv,RL_JOLVersionB.csv,"RELATIONAL Version B",OLD,CAR,WINDSHIELD,ON2,B,117,105,JOL,User,-,"How likely are you to correctly recall the second item in the pair?|Type your response on a scale from 0-100 and then press Enter.",Study/JOL,"Study Phase",6217,,,5618,6017,,,,100,1
w999716_lnk,lu98cz3p4c,Emily_Honors_Thesis_Part_2,1,59,2020-05-02T13:24:33-07:00,131.25791692734,10,versionA_stim.csv,RL_JOLVersionB.csv,"RELATIONAL Version B",OLD,,,,,,0,Instruct,-,3,"Remember to focus on how the two items are similiar while you study and make your ratings!",,CHECK2,130570,,,-1,-1,,,,,0.046
w999716_lnk,lu98cz3p4c,Emily_Honors_Thesis_Part_2,1,60,2020-05-02T13:24:35-07:00,2.2798428535461,10,versionA_stim.csv,RL_JOLVersionB.csv,"RELATIONAL Version B",OLD,DRY,WET,ON2,S,146,118,JOL,User,-,"How likely are you to correctly recall the second item in the pair?|Type your response on a scale from 0-100 and then press Enter.",Study/JOL,"Study Phase",1645,,,1253,1577,,,,100,1
w999716_lnk,lu98cz3p4c,Emily_Honors_Thesis_Part_2,1,61,2020-05-02T13:24:39-07:00,4.3243660926819,10,versionA_stim.csv,RL_JOLVersionB.csv,"RELATIONAL Version B",OLD,ALONE,LONELY,ON2,S,145,166,JOL,User,-,"How likely are you to correctly recall the second item in the pair?|Type your response on a scale from 0-100 and then press Enter.",Study/JOL,"Study Phase",3666,,,3183,3519,,,,100,0.579
w999716_lnk,lu98cz3p4c,Emily_Honors_Thesis_Part_2,1,62,2020-05-02T13:24:43-07:00,3.8684420585632,10,versionA_stim.csv,RL_JOLVersionB.csv,"RELATIONAL Version B",OLD,WATER,DRINK,ON2,S,143,126,JOL,User,-,"How likely are you to correctly recall the second item in the pair?|Type your response on a scale from 0-100 and then press Enter.",Study/JOL,"Study Phase",2323,,,1524,1902,,,,100,1
w999716_lnk,lu98cz3p4c,Emily_Honors_Thesis_Part_2,1,63,2020-05-02T13:24:47-07:00,3.5755550861359,10,versionA_stim.csv,RL_JOLVersionB.csv,"RELATIONAL Version B",OLD,CHILL,COLD,ON2,F,114,159,JOL,User,-,"How likely are you to correctly recall the second item in the pair?|Type your response on a scale from 0-100 and then press Enter.",Study/JOL,"Study Phase",2051,,,1252,1648,,,,100,1
w999716_lnk,lu98cz3p4c,Emily_Honors_Thesis_Part_2,1,64,2020-05-02T13:24:51-07:00,3.9438619613647,10,versionA_stim.csv,RL_JOLVersionB.csv,"RELATIONAL Version B",OLD,ROD,REEL,ON2,S,150,117,JOL,User,-,"How likely are you to correctly recall the second item in the pair?|Type your response on a scale from 0-100 and then press Enter.",Study/JOL,"Study Phase",3286,,,2747,3041,,,,50,1
w999716_lnk,lu98cz3p4c,Emily_Honors_Thesis_Part_2,1,65,2020-05-02T13:24:54-07:00,3.4197988510132,10,versionA_stim.csv,RL_JOLVersionB.csv,"RELATIONAL Version B",OLD,BAD,VILLAIN,ON2,B,118,142,JOL,User,-,"How likely are you to correctly recall the second item in the pair?|Type your response on a scale from 0-100 and then press Enter.",Study/JOL,"Study Phase",2760,,,2013,2519,,,,100,1
w999716_lnk,lu98cz3p4c,Emily_Honors_Thesis_Part_2,1,66,2020-05-02T13:24:59-07:00,5.1983480453491,10,versionA_stim.csv,RL_JOLVersionB.csv,"RELATIONAL Version B",OLD,ELEMENT,CARBON,ON2,S,141,125,JOL,User,-,"How likely are you to correctly recall the second item in the pair?|Type your response on a scale from 0-100 and then press Enter.",Study/JOL,"Study Phase",2215,,,2028,2028,,,,0,1
w999716_lnk,lu98cz3p4c,Emily_Honors_Thesis_Part_2,1,67,2020-05-02T13:25:06-07:00,6.4347150325775,10,versionA_stim.csv,RL_JOLVersionB.csv,"RELATIONAL Version B",OLD,THREAD,THIMBLE,ON2,B,121,154,JOL,User,-,"How likely are you to correctly recall the second item in the pair?|Type your response on a scale from 0-100 and then press Enter.",Study/JOL,"Study Phase",5725,,,3968,3969,,,,0,1
w999716_lnk,lu98cz3p4c,Emily_Honors_Thesis_Part_2,1,68,2020-05-02T13:25:10-07:00,3.9336979389191,10,versionA_stim.csv,RL_JOLVersionB.csv,"RELATIONAL Version B",OLD,CAKE,CLOTHES,ON2,U,166,169,JOL,User,-,"How likely are you to correctly recall the second item in the pair?|Type your response on a scale from 0-100 and then press Enter.",Study/JOL,"Study Phase",3249,,,2257,2257,,,,0,1
w999716_lnk,lu98cz3p4c,Emily_Honors_Thesis_Part_2,1,69,2020-05-02T13:25:12-07:00,2.8875601291656,10,versionA_stim.csv,RL_JOLVersionB.csv,"RELATIONAL Version B",OLD,CAT,PANTHER,ON2,B,126,120,JOL,User,-,"How likely are you to correctly recall the second item in the pair?|Type your response on a scale from 0-100 and then press Enter.",Study/JOL,"Study Phase",2247,,,1622,2079,,,,100,1
w999716_lnk,lu98cz3p4c,Emily_Honors_Thesis_Part_2,1,70,2020-05-02T13:25:15-07:00,2.3213019371033,10,versionA_stim.csv,RL_JOLVersionB.csv,"RELATIONAL Version B",OLD,CHERRY,RED,ON2,F,104,139,JOL,User,-,"How likely are you to correctly recall the second item in the pair?|Type your response on a scale from 0-100 and then press Enter.",Study/JOL,"Study Phase",1582,,,992,1407,,,,100,1
w999716_lnk,lu98cz3p4c,Emily_Honors_Thesis_Part_2,1,71,2020-05-02T13:25:19-07:00,3.8664970397949,10,versionA_stim.csv,RL_JOLVersionB.csv,"RELATIONAL Version B",OLD,TEMPERATURE,MORNING,ON2,U,173,123,JOL,User,-,"How likely are you to correctly recall the second item in the pair?|Type your response on a scale from 0-100 and then press Enter.",Study/JOL,"Study Phase",3226,,,868,3051,,,,50,1
w999716_lnk,lu98cz3p4c,Emily_Honors_Thesis_Part_2,1,72,2020-05-02T13:25:23-07:00,4.2874748706818,10,versionA_stim.csv,RL_JOLVersionB.csv,"RELATIONAL Version B",OLD,SHOELACE,TIE,ON2,F,99,145,JOL,User,-,"How likely are you to correctly recall the second item in the pair?|Type your response on a scale from 0-100 and then press Enter.",Study/JOL,"Study Phase",3597,,,2982,3385,,,,100,1
w999716_lnk,lu98cz3p4c,Emily_Honors_Thesis_Part_2,1,73,2020-05-02T13:25:25-07:00,2.3466000556946,10,versionA_stim.csv,RL_JOLVersionB.csv,"RELATIONAL Version B",OLD,STAR,ACTRESS,ON2,B,120,172,JOL,User,-,"How likely are you to correctly recall the second item in the pair?|Type your response on a scale from 0-100 and then press Enter.",Study/JOL,"Study Phase",1703,,,1103,1545,,,,100,1
w999716_lnk,lu98cz3p4c,Emily_Honors_Thesis_Part_2,1,74,2020-05-02T13:25:27-07:00,2.1056821346283,10,versionA_stim.csv,RL_JOLVersionB.csv,"RELATIONAL Version B",OLD,LOUD,NOISE,ON2,S,152,114,JOL,User,-,"How likely are you to correctly recall the second item in the pair?|Type your response on a scale from 0-100 and then press Enter.",Study/JOL,"Study Phase",1408,,,846,1257,,,,100,1
w999716_lnk,lu98cz3p4c,Emily_Honors_Thesis_Part_2,1,75,2020-05-02T13:25:30-07:00,2.2196009159088,10,versionA_stim.csv,RL_JOLVersionB.csv,"RELATIONAL Version B",OLD,EXTENSION,LONG,ON2,F,96,111,JOL,User,-,"How likely are you to correctly recall the second item in the pair?|Type your response on a scale from 0-100 and then press Enter.",Study/JOL,"Study Phase",1549,,,933,1378,,,,100,1
w999716_lnk,lu98cz3p4c,Emily_Honors_Thesis_Part_2,1,76,2020-05-02T13:25:34-07:00,3.9388709068298,10,versionA_stim.csv,RL_JOLVersionB.csv,"RELATIONAL Version B",OLD,MEAT,OBTAIN,ON2,U,161,158,JOL,User,-,"How likely are you to correctly recall the second item in the pair?|Type your response on a scale from 0-100 and then press Enter.",Study/JOL,"Study Phase",3191,,,2425,2652,,,,20,1
w999716_lnk,lu98cz3p4c,Emily_Honors_Thesis_Part_2,1,77,2020-05-02T13:25:38-07:00,4.4280290603638,10,versionA_stim.csv,RL_JOLVersionB.csv,"RELATIONAL Version B",OLD,BOTH,OUNCE,ON2,U,172,119,JOL,User,-,"How likely are you to correctly recall the second item in the pair?|Type your response on a scale from 0-100 and then press Enter.",Study/JOL,"Study Phase",3427,,,3267,3267,,,,0,1
w999716_lnk,lu98cz3p4c,Emily_Honors_Thesis_Part_2,1,78,2020-05-02T13:25:41-07:00,2.7964870929718,10,versionA_stim.csv,RL_JOLVersionB.csv,"RELATIONAL Version B",OLD,CHOP,CUT,ON2,F,107,107,JOL,User,-,"How likely are you to correctly recall the second item in the pair?|Type your response on a scale from 0-100 and then press Enter.",Study/JOL,"Study Phase",1877,,,1356,1722,,,,100,1
w999716_lnk,lu98cz3p4c,Emily_Honors_Thesis_Part_2,1,79,2020-05-02T13:25:45-07:00,4.013032913208,10,versionA_stim.csv,RL_JOLVersionB.csv,"RELATIONAL Version B",OLD,DEAD,COFFIN,ON2,B,128,97,JOL,User,-,"How likely are you to correctly recall the second item in the pair?|Type your response on a scale from 0-100 and then press Enter.",Study/JOL,"Study Phase",3164,,,2652,2959,,,,90,1
w999716_lnk,lu98cz3p4c,Emily_Honors_Thesis_Part_2,1,80,2020-05-02T13:25:49-07:00,3.991317987442,10,versionA_stim.csv,RL_JOLVersionB.csv,"RELATIONAL Version B",OLD,INCENSE,SMELL,ON2,F,110,138,JOL,User,-,"How likely are you to correctly recall the second item in the pair?|Type your response on a scale from 0-100 and then press Enter.",Study/JOL,"Study Phase",3335,,,2497,3084,,,,85,1
w999716_lnk,lu98cz3p4c,Emily_Honors_Thesis_Part_2,1,81,2020-05-02T13:25:51-07:00,2.4483649730682,10,versionA_stim.csv,RL_JOLVersionB.csv,"RELATIONAL Version B",OLD,FUZZY,BANG,ON2,U,168,116,JOL,User,-,"How likely are you to correctly recall the second item in the pair?|Type your response on a scale from 0-100 and then press Enter.",Study/JOL,"Study Phase",1801,,,1629,1629,,,,0,1
w999716_lnk,lu98cz3p4c,Emily_Honors_Thesis_Part_2,1,82,2020-05-02T13:25:54-07:00,2.6246211528778,10,versionA_stim.csv,RL_JOLVersionB.csv,"RELATIONAL Version B",OLD,FIGHT,BRAWL,ON2,B,135,160,JOL,User,-,"How likely are you to correctly recall the second item in the pair?|Type your response on a scale from 0-100 and then press Enter.",Study/JOL,"Study Phase",1950,,,1410,1785,,,,100,1
w999716_lnk,lu98cz3p4c,Emily_Honors_Thesis_Part_2,1,83,2020-05-02T13:25:56-07:00,2.4496748447418,10,versionA_stim.csv,RL_JOLVersionB.csv,"RELATIONAL Version B",OLD,DRIVER,CAR,ON2,F,106,151,JOL,User,-,"How likely are you to correctly recall the second item in the pair?|Type your response on a scale from 0-100 and then press Enter.",Study/JOL,"Study Phase",1805,,,1264,1642,,,,100,1
w999716_lnk,lu98cz3p4c,Emily_Honors_Thesis_Part_2,1,84,2020-05-02T13:26:02-07:00,5.3577470779419,10,versionA_stim.csv,RL_JOLVersionB.csv,"RELATIONAL Version B",OLD,EARTH,GROUND,ON2,S,144,162,JOL,User,-,"How likely are you to correctly recall the second item in the pair?|Type your response on a scale from 0-100 and then press Enter.",Study/JOL,"Study Phase",4660,,,1129,4467,,,,75,1
w999716_lnk,lu98cz3p4c,Emily_Honors_Thesis_Part_2,1,85,2020-05-02T13:26:07-07:00,4.8903348445892,10,versionA_stim.csv,RL_JOLVersionB.csv,"RELATIONAL Version B",OLD,FISH,SARDINE,ON2,B,130,164,JOL,User,-,"How likely are you to correctly recall the second item in the pair?|Type your response on a scale from 0-100 and then press Enter.",Study/JOL,"Study Phase",4048,,,2963,3800,,,,100,1
w999716_lnk,lu98cz3p4c,Emily_Honors_Thesis_Part_2,1,86,2020-05-02T13:26:10-07:00,3.5303781032562,10,versionA_stim.csv,RL_JOLVersionB.csv,"RELATIONAL Version B",OLD,MASON,JAR,ON2,S,138,133,JOL,User,-,"How likely are you to correctly recall the second item in the pair?|Type your response on a scale from 0-100 and then press Enter.",Study/JOL,"Study Phase",2813,,,2585,2585,,,,0,1
w999716_lnk,lu98cz3p4c,Emily_Honors_Thesis_Part_2,1,87,2020-05-02T13:26:15-07:00,5.0847809314728,10,versionA_stim.csv,RL_JOLVersionB.csv,"RELATIONAL Version B",OLD,MONEY,BANKER,ON2,B,132,167,JOL,User,-,"How likely are you to correctly recall the second item in the pair?|Type your response on a scale from 0-100 and then press Enter.",Study/JOL,"Study Phase",4427,,,3906,4181,,,,50,1
w999716_lnk,lu98cz3p4c,Emily_Honors_Thesis_Part_2,1,88,2020-05-02T13:26:18-07:00,2.5864951610565,10,versionA_stim.csv,RL_JOLVersionB.csv,"RELATIONAL Version B",OLD,SUN,TAN,ON2,S,155,140,JOL,User,-,"How likely are you to correctly recall the second item in the pair?|Type your response on a scale from 0-100 and then press Enter.",Study/JOL,"Study Phase",1886,,,1241,1633,,,,100,1
w999716_lnk,lu98cz3p4c,Emily_Honors_Thesis_Part_2,1,89,2020-05-02T13:26:21-07:00,3.4450340270996,10,versionA_stim.csv,RL_JOLVersionB.csv,"RELATIONAL Version B",OLD,MIRROR,CHILDREN,ON2,U,174,141,JOL,User,-,"How likely are you to correctly recall the second item in the pair?|Type your response on a scale from 0-100 and then press Enter.",Study/JOL,"Study Phase",2800,,,2445,2445,,,,0,1
w999716_lnk,lu98cz3p4c,Emily_Honors_Thesis_Part_2,1,90,2020-05-02T13:26:24-07:00,2.5403537750244,10,versionA_stim.csv,RL_JOLVersionB.csv,"RELATIONAL Version B",OLD,SLEEP,NAP,ON2,B,134,128,JOL,User,-,"How likely are you to correctly recall the second item in the pair?|Type your response on a scale from 0-100 and then press Enter.",Study/JOL,"Study Phase",1859,,,1278,1682,,,,100,1
w999716_lnk,lu98cz3p4c,Emily_Honors_Thesis_Part_2,1,91,2020-05-02T13:26:31-07:00,7.2605571746826,10,versionA_stim.csv,RL_JOLVersionB.csv,"RELATIONAL Version B",OLD,MAZE,ELECTION,ON2,U,159,108,JOL,User,-,"How likely are you to correctly recall the second item in the pair?|Type your response on a scale from 0-100 and then press Enter.",Study/JOL,"Study Phase",6622,,,3432,6418,,,,0,1
w999716_lnk,lu98cz3p4c,Emily_Honors_Thesis_Part_2,1,92,2020-05-02T13:26:51-07:00,19.922472953796,10,versionA_stim.csv,RL_JOLVersionB.csv,"RELATIONAL Version B",OLD,FEUD,FIGHT,ON2,F,113,155,JOL,User,-,"How likely are you to correctly recall the second item in the pair?|Type your response on a scale from 0-100 and then press Enter.",Study/JOL,"Study Phase",19159,,,18639,19031,,,,100,0.208
w999716_lnk,lu98cz3p4c,Emily_Honors_Thesis_Part_2,1,93,2020-05-02T13:26:56-07:00,4.6330449581146,10,versionA_stim.csv,RL_JOLVersionB.csv,"RELATIONAL Version B",OLD,PLANE,AIRCRAFT,ON2,B,129,129,JOL,User,-,"How likely are you to correctly recall the second item in the pair?|Type your response on a scale from 0-100 and then press Enter.",Study/JOL,"Study Phase",3953,,,3538,3765,,,,80,0.45
w999716_lnk,lu98cz3p4c,Emily_Honors_Thesis_Part_2,1,94,2020-05-02T13:27:01-07:00,5.7722380161285,10,versionA_stim.csv,RL_JOLVersionB.csv,"RELATIONAL Version B",OLD,SHEARS,SCISSORS,ON2,F,112,147,JOL,User,-,"How likely are you to correctly recall the second item in the pair?|Type your response on a scale from 0-100 and then press Enter.",Study/JOL,"Study Phase",5138,,,4790,4983,,,,50,0.423
w999716_lnk,lu98cz3p4c,Emily_Honors_Thesis_Part_2,1,95,2020-05-02T13:27:05-07:00,3.6179630756378,10,versionA_stim.csv,RL_JOLVersionB.csv,"RELATIONAL Version B",OLD,DINE,EAT,ON2,F,111,174,JOL,User,-,"How likely are you to correctly recall the second item in the pair?|Type your response on a scale from 0-100 and then press Enter.",Study/JOL,"Study Phase",2963,,,2431,2802,,,,100,1
w999716_lnk,lu98cz3p4c,Emily_Honors_Thesis_Part_2,1,96,2020-05-02T13:27:08-07:00,2.6899478435516,10,versionA_stim.csv,RL_JOLVersionB.csv,"RELATIONAL Version B",OLD,DOCUMENT,PAPER,ON2,F,109,98,JOL,User,-,"How likely are you to correctly recall the second item in the pair?|Type your response on a scale from 0-100 and then press Enter.",Study/JOL,"Study Phase",2031,,,1478,1847,,,,100,1
w999716_lnk,lu98cz3p4c,Emily_Honors_Thesis_Part_2,1,97,2020-05-02T13:27:31-07:00,23.239541053772,10,versionA_stim.csv,RL_JOLVersionB.csv,"RELATIONAL Version B",OLD,ADJOURN,END,ON2,F,101,109,JOL,User,-,"How likely are you to correctly recall the second item in the pair?|Type your response on a scale from 0-100 and then press Enter.",Study/JOL,"Study Phase",22611,,,22444,22444,,,,0,0.088
w999716_lnk,lu98cz3p4c,Emily_Honors_Thesis_Part_2,1,98,2020-05-02T13:27:42-07:00,10.972171068192,10,versionA_stim.csv,RL_JOLVersionB.csv,"RELATIONAL Version B",OLD,LOAN,SIGN,ON2,U,171,124,JOL,User,-,"How likely are you to correctly recall the second item in the pair?|Type your response on a scale from 0-100 and then press Enter.",Study/JOL,"Study Phase",10277,,,9785,10133,,,,100,0.192
w999716_lnk,lu98cz3p4c,Emily_Honors_Thesis_Part_2,1,99,2020-05-02T13:28:01-07:00,19.507771015167,10,versionA_stim.csv,RL_JOLVersionB.csv,"RELATIONAL Version B",OLD,VEHICLE,CHARM,ON2,U,160,149,JOL,User,-,"How likely are you to correctly recall the second item in the pair?|Type your response on a scale from 0-100 and then press Enter.",Study/JOL,"Study Phase",18851,,,18672,18672,,,,0,0.663
w999716_lnk,lu98cz3p4c,Emily_Honors_Thesis_Part_2,1,100,2020-05-02T13:28:04-07:00,2.5862979888916,10,versionA_stim.csv,RL_JOLVersionB.csv,"RELATIONAL Version B",OLD,BASEBALL,LEAGUE,ON2,B,131,112,JOL,User,-,"How likely are you to correctly recall the second item in the pair?|Type your response on a scale from 0-100 and then press Enter.",Study/JOL,"Study Phase",1874,,,1382,1721,,,,100,1
w999716_lnk,lu98cz3p4c,Emily_Honors_Thesis_Part_2,1,101,2020-05-02T13:28:07-07:00,2.6469428539276,10,versionA_stim.csv,RL_JOLVersionB.csv,"RELATIONAL Version B",OLD,WRIST,BRACELET,ON2,S,140,143,JOL,User,-,"How likely are you to correctly recall the second item in the pair?|Type your response on a scale from 0-100 and then press Enter.",Study/JOL,"Study Phase",2028,,,1462,1840,,,,100,1
w999716_lnk,lu98cz3p4c,Emily_Honors_Thesis_Part_2,1,102,2020-05-02T13:28:16-07:00,9.0504732131958,10,versionA_stim.csv,RL_JOLVersionB.csv,"RELATIONAL Version B",OLD,AFFECTION,LOVE,ON2,F,115,113,JOL,User,-,"How likely are you to correctly recall the second item in the pair?|Type your response on a scale from 0-100 and then press Enter.",Study/JOL,"Study Phase",8398,,,7884,8249,,,,100,1
w999716_lnk,lu98cz3p4c,Emily_Honors_Thesis_Part_2,1,103,2020-05-02T13:28:18-07:00,2.6880049705505,10,versionA_stim.csv,RL_JOLVersionB.csv,"RELATIONAL Version B",OLD,OWN,HAVE,ON2,S,153,99,JOL,User,-,"How likely are you to correctly recall the second item in the pair?|Type your response on a scale from 0-100 and then press Enter.",Study/JOL,"Study Phase",1885,,,1374,1740,,,,100,1
w999716_lnk,lu98cz3p4c,Emily_Honors_Thesis_Part_2,1,104,2020-05-02T13:28:21-07:00,2.9988808631897,10,versionA_stim.csv,RL_JOLVersionB.csv,"RELATIONAL Version B",OLD,SAFETY,SEATBELT,ON2,S,147,146,JOL,User,-,"How likely are you to correctly recall the second item in the pair?|Type your response on a scale from 0-100 and then press Enter.",Study/JOL,"Study Phase",2348,,,1826,2172,,,,100,1
w999716_lnk,lu98cz3p4c,Emily_Honors_Thesis_Part_2,1,105,2020-05-02T13:28:24-07:00,3.0377480983734,10,versionA_stim.csv,RL_JOLVersionB.csv,"RELATIONAL Version B",OLD,SHRIMP,FISH,Buffer3,Buffer,93,177,JOL,User,-,"How likely are you to correctly recall the second item in the pair?|Type your response on a scale from 0-100 and then press Enter.",Study/JOL,BUFFER2,2377,,,1418,1824,,,,100,1
w999716_lnk,lu98cz3p4c,Emily_Honors_Thesis_Part_2,1,106,2020-05-02T13:28:41-07:00,17.133451938629,10,versionA_stim.csv,RL_JOLVersionB.csv,"RELATIONAL Version B",OLD,DAYS,WEAKS,Buffer3,Buffer,176,178,JOL,User,-,"How likely are you to correctly recall the second item in the pair?|Type your response on a scale from 0-100 and then press Enter.",Study/JOL,BUFFER2,16468,,,15644,15644,,,,0,1
w999716_lnk,lu98cz3p4c,Emily_Honors_Thesis_Part_2,1,107,2020-05-02T13:29:01-07:00,19.47434091568,10,versionA_stim.csv,RL_JOLVersionB.csv,"RELATIONAL Version B",OLD,TOOL,SHED,Buffer3,Buffer,178,179,JOL,User,-,"How likely are you to correctly recall the second item in the pair?|Type your response on a scale from 0-100 and then press Enter.",Study/JOL,BUFFER2,18811,,,17905,18321,,,,100,1
w999716_lnk,lu98cz3p4c,Emily_Honors_Thesis_Part_2,1,108,2020-05-02T13:29:05-07:00,4.3277652263641,10,versionA_stim.csv,RL_JOLVersionB.csv,"RELATIONAL Version B",OLD,NOODLE,STRING,Buffer3,Buffer,92,181,JOL,User,-,"How likely are you to correctly recall the second item in the pair?|Type your response on a scale from 0-100 and then press Enter.",Study/JOL,BUFFER2,3689,,,3142,3440,,,,80,1
w999716_lnk,lu98cz3p4c,Emily_Honors_Thesis_Part_2,1,109,2020-05-02T13:29:11-07:00,5.5857269763947,10,versionA_stim.csv,RL_JOLVersionB.csv,"RELATIONAL Version B",OLD,MONTH,YEAR,Buffer3,Buffer,177,180,JOL,User,-,"How likely are you to correctly recall the second item in the pair?|Type your response on a scale from 0-100 and then press Enter.",Study/JOL,BUFFER2,4892,,,4237,4609,,,,100,0.44
w999716_lnk,lu98cz3p4c,Emily_Honors_Thesis_Part_2,1,110,2020-05-02T13:29:14-07:00,2.7361528873444,10,versionA_stim.csv,RL_JOLVersionB.csv,"RELATIONAL Version B",OLD,,,,,,0,Instruct,User,-,"You have completed this section. Please press Enter.",Filler_Instruction,Instruct5,2071,,,-1,-1,,,,,1
w999716_lnk,lu98cz3p4c,Emily_Honors_Thesis_Part_2,1,111,2020-05-02T13:29:40-07:00,26.540517091751,10,versionA_stim.csv,RL_JOLVersionB.csv,"RELATIONAL Version B",OLD,,,,,,0,FreeRecall,-,10,"What were you supposed to focus on while you studied each pair? (Hint: Think back to the instructions). Type your answer in the space below.",,CHECK3,25893,"I was supposed to focus on how the two words compared to one another.",0,2760,24514,0,0,,,1
w999716_lnk,lu98cz3p4c,Emily_Honors_Thesis_Part_2,1,112,2020-05-02T13:29:43-07:00,2.4572508335114,10,versionA_stim.csv,RL_JOLVersionB.csv,"RELATIONAL Version B",OLD,,,,,,0,Instruct,User,-,"You have completed this section. Please press Enter.",Filler_Instruction,Instruct2,1746,,,-1,-1,,,,,1
w999716_lnk,lu98cz3p4c,Emily_Honors_Thesis_Part_2,1,113,2020-05-02T13:31:43-07:00,120.87876319885,10,versionA_stim.csv,RL_JOLVersionB.csv,"RELATIONAL Version B",OLD,,,,,,0,FreeRecall,120,120,"Please list the 50 US states in alphabetical order. The task will automatically advance to the next screen after two minutes.",,Filler1,120005,"Alabama Alaska Arizona Arkansas California Colorado Connecticut Delaware Florida ",0,17224,113259,0,0,,,0.73
w999716_lnk,lu98cz3p4c,Emily_Honors_Thesis_Part_2,1,114,2020-05-02T13:31:59-07:00,15.345114946365,10,versionA_stim.csv,RL_JOLVersionB.csv,"RELATIONAL Version B",OLD,,,,,,0,Instruct,-,10,"You will now be presented with the first word from each of the previously studied item pairs. Please type the missing word. If you do not know the word, you may guess or press Enter to skip forward to the next pair.",,Instruct3,14605,,,-1,-1,,,,,1
w999716_lnk,lu98cz3p4c,Emily_Honors_Thesis_Part_2,1,115,2020-05-02T13:32:05-07:00,5.8552629947662,10,versionA_stim.csv,RL_JOLVersionB.csv,"RELATIONAL Version B",OLD,MEAT,OBTAIN,ON2,U,161,158,Test,User,-,,Recall,Recall1,5153,Cut,22.222222222222,4007,4494,0,0,,,1
w999716_lnk,lu98cz3p4c,Emily_Honors_Thesis_Part_2,1,116,2020-05-02T13:32:09-07:00,4.4196929931641,10,versionA_stim.csv,RL_JOLVersionB.csv,"RELATIONAL Version B",OLD,CRACKLE,ABLE,ON2,U,162,152,Test,User,-,,Recall,Recall1,3763,Pop,0,2627,3401,0,0,,,1
w999716_lnk,lu98cz3p4c,Emily_Honors_Thesis_Part_2,1,117,2020-05-02T13:32:13-07:00,3.4390609264374,10,versionA_stim.csv,RL_JOLVersionB.csv,"RELATIONAL Version B",OLD,STAR,ACTRESS,ON2,B,120,172,Test,User,-,,Recall,Recall1,2756,SKY,20,2086,2477,0,0,,,1
w999716_lnk,lu98cz3p4c,Emily_Honors_Thesis_Part_2,1,118,2020-05-02T13:32:16-07:00,3.457221031189,10,versionA_stim.csv,RL_JOLVersionB.csv,"RELATIONAL Version B",OLD,CANDLE,WAX,ON2,S,139,102,Test,User,-,,Recall,Recall1,2799,LIGHT,0,1921,2521,0,0,,,1
w999716_lnk,lu98cz3p4c,Emily_Honors_Thesis_Part_2,1,119,2020-05-02T13:32:22-07:00,6.173938035965,10,versionA_stim.csv,RL_JOLVersionB.csv,"RELATIONAL Version B",OLD,DETECTIVE,MYSTERY,ON2,F,100,122,Test,User,-,,Recall,Recall1,5508,INVESTIGATOR,31.578947368421,2277,4883,0,0,,,1
w999716_lnk,lu98cz3p4c,Emily_Honors_Thesis_Part_2,1,120,2020-05-02T13:32:26-07:00,3.866446018219,10,versionA_stim.csv,RL_JOLVersionB.csv,"RELATIONAL Version B",OLD,POP,BALLOON,ON2,B,123,131,Test,User,-,,Recall,Recall1,3193,CRACK,16.666666666667,2033,2944,0,0,,,1
w999716_lnk,lu98cz3p4c,Emily_Honors_Thesis_Part_2,1,121,2020-05-02T13:32:30-07:00,4.0851788520813,10,versionA_stim.csv,RL_JOLVersionB.csv,"RELATIONAL Version B",OLD,FRUIT,STRAWBERRY,ON2,B,124,176,Test,User,-,,Recall,Recall1,3428,GRAPE,40,2190,2932,0,0,,,1
w999716_lnk,lu98cz3p4c,Emily_Honors_Thesis_Part_2,1,122,2020-05-02T13:32:33-07:00,2.6659111976624,10,versionA_stim.csv,RL_JOLVersionB.csv,"RELATIONAL Version B",OLD,MOAT,CLEAR,ON2,U,169,144,Test,User,-,,Recall,Recall1,2000,,0,-1,-1,0,0,,,1
w999716_lnk,lu98cz3p4c,Emily_Honors_Thesis_Part_2,1,123,2020-05-02T13:32:39-07:00,6.0936880111694,10,versionA_stim.csv,RL_JOLVersionB.csv,"RELATIONAL Version B",OLD,VEHICLE,CHARM,ON2,U,160,149,Test,User,-,,Recall,Recall1,5427,DRIVER,18.181818181818,4316,5261,0,0,,,1
w999716_lnk,lu98cz3p4c,Emily_Honors_Thesis_Part_2,1,124,2020-05-02T13:32:43-07:00,4.3854939937592,10,versionA_stim.csv,RL_JOLVersionB.csv,"RELATIONAL Version B",OLD,LOUD,NOISE,ON2,S,152,114,Test,User,-,,Recall,Recall1,3713,NOISE,100,2859,3572,1,1,,,1
w999716_lnk,lu98cz3p4c,Emily_Honors_Thesis_Part_2,1,125,2020-05-02T13:32:48-07:00,4.8936748504639,10,versionA_stim.csv,RL_JOLVersionB.csv,"RELATIONAL Version B",OLD,WATER,DRINK,ON2,S,143,126,Test,User,-,,Recall,Recall1,4203,DROP,44.444444444444,3468,3947,0,0,,,1
w999716_lnk,lu98cz3p4c,Emily_Honors_Thesis_Part_2,1,126,2020-05-02T13:32:55-07:00,6.4816081523895,10,versionA_stim.csv,RL_JOLVersionB.csv,"RELATIONAL Version B",OLD,CHOP,CUT,ON2,F,107,107,Test,User,-,,Recall,Recall1,5829,,0,-1,-1,0,0,,,1
w999716_lnk,lu98cz3p4c,Emily_Honors_Thesis_Part_2,1,127,2020-05-02T13:32:58-07:00,2.9308409690857,10,versionA_stim.csv,RL_JOLVersionB.csv,"RELATIONAL Version B",OLD,ELEMENT,CARBON,ON2,S,141,125,Test,User,-,,Recall,Recall1,2248,,0,-1,-1,0,0,,,1
w999716_lnk,lu98cz3p4c,Emily_Honors_Thesis_Part_2,1,128,2020-05-02T13:33:01-07:00,3.3201448917389,10,versionA_stim.csv,RL_JOLVersionB.csv,"RELATIONAL Version B",OLD,LISTEN,FICTION,ON2,U,164,161,Test,User,-,,Recall,Recall1,2650,HEAR,0,1945,2482,0,0,,,1
w999716_lnk,lu98cz3p4c,Emily_Honors_Thesis_Part_2,1,129,2020-05-02T13:33:08-07:00,7.3700070381165,10,versionA_stim.csv,RL_JOLVersionB.csv,"RELATIONAL Version B",OLD,TRUTH,LIE,ON2,S,148,148,Test,User,-,,Recall,Recall1,6709,"BELIEVABLE ",46.153846153846,3829,6292,0,0,,,1
w999716_lnk,lu98cz3p4c,Emily_Honors_Thesis_Part_2,1,130,2020-05-02T13:33:14-07:00,6.027843952179,10,versionA_stim.csv,RL_JOLVersionB.csv,"RELATIONAL Version B",OLD,EARTH,GROUND,ON2,S,144,162,Test,User,-,,Recall,Recall1,5347,GROUND,100,4494,5229,1,1,,,1
w999716_lnk,lu98cz3p4c,Emily_Honors_Thesis_Part_2,1,131,2020-05-02T13:33:19-07:00,4.2016961574554,10,versionA_stim.csv,RL_JOLVersionB.csv,"RELATIONAL Version B",OLD,CAR,WINDSHIELD,ON2,B,117,105,Test,User,-,,Recall,Recall1,3544,DRIVER,37.5,2559,3422,0,0,,,1
w999716_lnk,lu98cz3p4c,Emily_Honors_Thesis_Part_2,1,132,2020-05-02T13:33:23-07:00,4.0982329845428,10,versionA_stim.csv,RL_JOLVersionB.csv,"RELATIONAL Version B",OLD,BASEBALL,LEAGUE,ON2,B,131,112,Test,User,-,,Recall,Recall1,3408,LEAGUE,100,1971,3001,1,1,,,1
w999716_lnk,lu98cz3p4c,Emily_Honors_Thesis_Part_2,1,133,2020-05-02T13:33:31-07:00,7.9484269618988,10,versionA_stim.csv,RL_JOLVersionB.csv,"RELATIONAL Version B",OLD,EXTENSION,LONG,ON2,F,96,111,Test,User,-,,Recall,Recall1,7292,LONGER,80,4954,6761,0,1,,,1
w999716_lnk,lu98cz3p4c,Emily_Honors_Thesis_Part_2,1,134,2020-05-02T13:33:44-07:00,13.915416002274,10,versionA_stim.csv,RL_JOLVersionB.csv,"RELATIONAL Version B",OLD,EVEN,REVENGE,ON2,B,122,101,Test,User,-,,Recall,Recall1,13263,PAYBACK,0,11706,13031,0,0,,,1
w999716_lnk,lu98cz3p4c,Emily_Honors_Thesis_Part_2,1,135,2020-05-02T13:33:50-07:00,5.0363178253174,10,versionA_stim.csv,RL_JOLVersionB.csv,"RELATIONAL Version B",OLD,CAT,PANTHER,ON2,B,126,120,Test,User,-,,Recall,Recall1,4367,DOG,0,3879,4222,0,0,,,1
w999716_lnk,lu98cz3p4c,Emily_Honors_Thesis_Part_2,1,136,2020-05-02T13:33:57-07:00,7.078556060791,10,versionA_stim.csv,RL_JOLVersionB.csv,"RELATIONAL Version B",OLD,SHOELACE,TIE,ON2,F,99,145,Test,User,-,,Recall,Recall1,6373,TIE,100,5287,5650,1,1,,,1
w999716_lnk,lu98cz3p4c,Emily_Honors_Thesis_Part_2,1,137,2020-05-02T13:34:16-07:00,19.789211988449,10,versionA_stim.csv,RL_JOLVersionB.csv,"RELATIONAL Version B",OLD,FLEA,TICK,ON2,S,151,115,Test,User,-,,Recall,Recall1,19104,TICK,100,17468,18905,1,1,,,0.229
w999716_lnk,lu98cz3p4c,Emily_Honors_Thesis_Part_2,1,138,2020-05-02T13:34:21-07:00,5.0582699775696,10,versionA_stim.csv,RL_JOLVersionB.csv,"RELATIONAL Version B",OLD,OWN,HAVE,ON2,S,153,99,Test,User,-,,Recall,Recall1,4396,RENT,25,3113,3487,0,0,,,1
w999716_lnk,lu98cz3p4c,Emily_Honors_Thesis_Part_2,1,139,2020-05-02T13:34:26-07:00,4.2408301830292,10,versionA_stim.csv,RL_JOLVersionB.csv,"RELATIONAL Version B",OLD,SUN,TAN,ON2,S,155,140,Test,User,-,,Recall,Recall1,3568,LIGHT,25,1728,3379,0,0,,,1
w999716_lnk,lu98cz3p4c,Emily_Honors_Thesis_Part_2,1,140,2020-05-02T13:34:30-07:00,4.5012848377228,10,versionA_stim.csv,RL_JOLVersionB.csv,"RELATIONAL Version B",OLD,WRIST,BRACELET,ON2,S,140,143,Test,User,-,,Recall,Recall1,3808,ARM,18.181818181818,3212,3559,0,0,,,1
w999716_lnk,lu98cz3p4c,Emily_Honors_Thesis_Part_2,1,141,2020-05-02T13:35:05-07:00,34.545842170715,10,versionA_stim.csv,RL_JOLVersionB.csv,"RELATIONAL Version B",OLD,TANTRUM,TEMPER,ON2,S,154,175,Test,User,-,,Recall,Recall1,33839,MAD,22.222222222222,33317,33659,0,0,,,1
w999716_lnk,lu98cz3p4c,Emily_Honors_Thesis_Part_2,1,142,2020-05-02T13:35:08-07:00,2.9966249465942,10,versionA_stim.csv,RL_JOLVersionB.csv,"RELATIONAL Version B",OLD,SCALP,HEAD,ON2,F,105,163,Test,User,-,,Recall,Recall1,2340,HEAD,100,1661,2150,1,1,,,1
w999716_lnk,lu98cz3p4c,Emily_Honors_Thesis_Part_2,1,143,2020-05-02T13:35:12-07:00,4.0557670593262,10,versionA_stim.csv,RL_JOLVersionB.csv,"RELATIONAL Version B",OLD,SLEEP,NAP,ON2,B,134,128,Test,User,-,,Recall,Recall1,3409,TIRED,0,2607,3270,0,0,,,1
w999716_lnk,lu98cz3p4c,Emily_Honors_Thesis_Part_2,1,144,2020-05-02T13:35:15-07:00,3.6992568969727,10,versionA_stim.csv,RL_JOLVersionB.csv,"RELATIONAL Version B",OLD,TURN,FLIP,ON2,B,116,137,Test,User,-,,Recall,Recall1,3022,AROUND,0,2085,2896,0,0,,,1
w999716_lnk,lu98cz3p4c,Emily_Honors_Thesis_Part_2,1,145,2020-05-02T13:35:19-07:00,3.3706820011139,10,versionA_stim.csv,RL_JOLVersionB.csv,"RELATIONAL Version B",OLD,MIRROR,CHILDREN,ON2,U,174,141,Test,User,-,,Recall,Recall1,2648,CHILDREN,100,1359,2492,1,1,,,1
w999716_lnk,lu98cz3p4c,Emily_Honors_Thesis_Part_2,1,146,2020-05-02T13:35:23-07:00,4.0002629756927,10,versionA_stim.csv,RL_JOLVersionB.csv,"RELATIONAL Version B",OLD,CHILL,COLD,ON2,F,114,159,Test,User,-,,Recall,Recall1,3358,COLD,100,2708,3223,1,1,,,1
w999716_lnk,lu98cz3p4c,Emily_Honors_Thesis_Part_2,1,147,2020-05-02T13:35:26-07:00,3.518294095993,10,versionA_stim.csv,RL_JOLVersionB.csv,"RELATIONAL Version B",OLD,BEST,FAVORITE,ON2,B,125,100,Test,User,-,,Recall,Recall1,2865,,0,-1,-1,0,0,,,1
w999716_lnk,lu98cz3p4c,Emily_Honors_Thesis_Part_2,1,148,2020-05-02T13:35:32-07:00,6.1199359893799,10,versionA_stim.csv,RL_JOLVersionB.csv,"RELATIONAL Version B",OLD,ROD,REEL,ON2,S,150,117,Test,User,-,,Recall,Recall1,5464,RAIL,50,2739,5181,0,0,,,1
w999716_lnk,lu98cz3p4c,Emily_Honors_Thesis_Part_2,1,149,2020-05-02T13:35:40-07:00,7.3024878501892,10,versionA_stim.csv,RL_JOLVersionB.csv,"RELATIONAL Version B",OLD,STRETCH,CLOTH,ON2,U,157,150,Test,User,-,,Recall,Recall1,6592,OUT,50,6029,6408,0,0,,,1
w999716_lnk,lu98cz3p4c,Emily_Honors_Thesis_Part_2,1,150,2020-05-02T13:35:45-07:00,4.8154311180115,10,versionA_stim.csv,RL_JOLVersionB.csv,"RELATIONAL Version B",OLD,BOTH,OUNCE,ON2,U,172,119,Test,User,-,,Recall,Recall1,4167,TWO,25,2110,3811,0,0,,,1
w999716_lnk,lu98cz3p4c,Emily_Honors_Thesis_Part_2,1,151,2020-05-02T13:35:47-07:00,2.8547768592834,10,versionA_stim.csv,RL_JOLVersionB.csv,"RELATIONAL Version B",OLD,NAME,HATE,ON2,U,167,104,Test,User,-,,Recall,Recall1,2194,,0,-1,-1,0,0,,,1
w999716_lnk,lu98cz3p4c,Emily_Honors_Thesis_Part_2,1,152,2020-05-02T13:35:53-07:00,5.8974161148071,10,versionA_stim.csv,RL_JOLVersionB.csv,"RELATIONAL Version B",OLD,DINE,EAT,ON2,F,111,174,Test,User,-,,Recall,Recall1,5273,EAT,100,2061,5124,1,1,,,1
w999716_lnk,lu98cz3p4c,Emily_Honors_Thesis_Part_2,1,153,2020-05-02T13:35:59-07:00,5.7000880241394,10,versionA_stim.csv,RL_JOLVersionB.csv,"RELATIONAL Version B",OLD,ALONE,LONELY,ON2,S,145,166,Test,User,-,,Recall,Recall1,5057,,0,-1,-1,0,0,,,1
w999716_lnk,lu98cz3p4c,Emily_Honors_Thesis_Part_2,1,154,2020-05-02T13:36:03-07:00,4.3925349712372,10,versionA_stim.csv,RL_JOLVersionB.csv,"RELATIONAL Version B",OLD,DEAD,COFFIN,ON2,B,128,97,Test,User,-,,Recall,Recall1,3734,CASKET,16.666666666667,2127,3436,0,0,,,1
w999716_lnk,lu98cz3p4c,Emily_Honors_Thesis_Part_2,1,155,2020-05-02T13:36:08-07:00,4.4232020378113,10,versionA_stim.csv,RL_JOLVersionB.csv,"RELATIONAL Version B",OLD,SHEARS,SCISSORS,ON2,F,112,147,Test,User,-,,Recall,Recall1,3757,,0,-1,-1,0,0,,,1
w999716_lnk,lu98cz3p4c,Emily_Honors_Thesis_Part_2,1,156,2020-05-02T13:36:11-07:00,3.5388920307159,10,versionA_stim.csv,RL_JOLVersionB.csv,"RELATIONAL Version B",OLD,MONEY,BANKER,ON2,B,132,167,Test,User,-,,Recall,Recall1,2849,GREEN,18.181818181818,1990,2637,0,0,,,1
w999716_lnk,lu98cz3p4c,Emily_Honors_Thesis_Part_2,1,157,2020-05-02T13:36:19-07:00,7.6141350269318,10,versionA_stim.csv,RL_JOLVersionB.csv,"RELATIONAL Version B",OLD,DRIVER,CAR,ON2,F,106,151,Test,User,-,,Recall,Recall1,6763,WHEEL,0,3669,5622,0,0,,,1
w999716_lnk,lu98cz3p4c,Emily_Honors_Thesis_Part_2,1,158,2020-05-02T13:36:22-07:00,3.2414479255676,10,versionA_stim.csv,RL_JOLVersionB.csv,"RELATIONAL Version B",OLD,PLANE,AIRCRAFT,ON2,B,129,129,Test,User,-,,Recall,Recall1,2586,AIR,54.545454545455,2209,2500,0,0,,,1
w999716_lnk,lu98cz3p4c,Emily_Honors_Thesis_Part_2,1,159,2020-05-02T13:36:25-07:00,3.2179379463196,10,versionA_stim.csv,RL_JOLVersionB.csv,"RELATIONAL Version B",OLD,CLUE,GAME,ON2,F,97,134,Test,User,-,,Recall,Recall1,2532,GUESS,44.444444444444,1801,2444,0,0,,,1
w999716_lnk,lu98cz3p4c,Emily_Honors_Thesis_Part_2,1,160,2020-05-02T13:36:32-07:00,6.4629220962524,10,versionA_stim.csv,RL_JOLVersionB.csv,"RELATIONAL Version B",OLD,GONE,AWAY,ON2,S,142,106,Test,User,-,,Recall,Recall1,5815,BYE,28.571428571429,2642,5595,0,0,,,1
w999716_lnk,lu98cz3p4c,Emily_Honors_Thesis_Part_2,1,161,2020-05-02T13:37:29-07:00,57.111053943634,10,versionA_stim.csv,RL_JOLVersionB.csv,"RELATIONAL Version B",OLD,FURRY,DOG,ON2,F,102,103,Test,User,-,,Recall,Recall1,56261,FEAR,0,55482,55897,0,0,,,1
w999716_lnk,lu98cz3p4c,Emily_Honors_Thesis_Part_2,1,162,2020-05-02T13:38:38-07:00,68.601406097412,10,versionA_stim.csv,RL_JOLVersionB.csv,"RELATIONAL Version B",OLD,MULE,DONKEY,ON2,F,108,110,Test,User,-,,Recall,Recall1,67903,,0,-1,-1,0,0,,,1
w999716_lnk,lu98cz3p4c,Emily_Honors_Thesis_Part_2,1,163,2020-05-02T13:38:43-07:00,5.8312168121338,10,versionA_stim.csv,RL_JOLVersionB.csv,"RELATIONAL Version B",OLD,GIVE,STEAK,ON2,U,158,157,Test,User,-,,Recall,Recall1,5145,TAKE,66.666666666667,3805,4850,0,0,,,1
w999716_lnk,lu98cz3p4c,Emily_Honors_Thesis_Part_2,1,164,2020-05-02T13:39:16-07:00,32.144070148468,10,versionA_stim.csv,RL_JOLVersionB.csv,"RELATIONAL Version B",OLD,FUZZY,BANG,ON2,U,168,116,Test,User,-,,Recall,Recall1,31423,FEAR,25,29905,30574,0,0,,,1
w999716_lnk,lu98cz3p4c,Emily_Honors_Thesis_Part_2,1,165,2020-05-02T13:39:51-07:00,34.899688005447,10,versionA_stim.csv,RL_JOLVersionB.csv,"RELATIONAL Version B",OLD,DRY,WET,ON2,S,146,118,Test,User,-,,Recall,Recall1,34158,TOWEL,50,31569,33919,0,0,,,0.129
w999716_lnk,lu98cz3p4c,Emily_Honors_Thesis_Part_2,1,166,2020-05-02T13:39:58-07:00,7.88720703125,10,versionA_stim.csv,RL_JOLVersionB.csv,"RELATIONAL Version B",OLD,RIGHTS,EQUAL,ON2,S,137,156,Test,User,-,,Recall,Recall1,7231,COORECT,16.666666666667,5620,6918,0,0,,,0.784
w999716_lnk,lu98cz3p4c,Emily_Honors_Thesis_Part_2,1,167,2020-05-02T13:40:03-07:00,4.3490238189697,10,versionA_stim.csv,RL_JOLVersionB.csv,"RELATIONAL Version B",OLD,MAZE,ELECTION,ON2,U,159,108,Test,User,-,,Recall,Recall1,3599,RUNNER,14.285714285714,1570,2810,0,0,,,1
w999716_lnk,lu98cz3p4c,Emily_Honors_Thesis_Part_2,1,168,2020-05-02T13:40:14-07:00,11.57809305191,10,versionA_stim.csv,RL_JOLVersionB.csv,"RELATIONAL Version B",OLD,FIGHT,BRAWL,ON2,B,135,160,Test,User,-,,Recall,Recall1,10896,FIST,0,10206,10608,0,0,,,0.364
w999716_lnk,lu98cz3p4c,Emily_Honors_Thesis_Part_2,1,169,2020-05-02T13:40:22-07:00,7.3893439769745,10,versionA_stim.csv,RL_JOLVersionB.csv,"RELATIONAL Version B",OLD,HONEST,TRUTHFUL,ON2,B,133,165,Test,User,-,,Recall,Recall1,6687,OPINION,0,4705,6050,0,0,,,1
w999716_lnk,lu98cz3p4c,Emily_Honors_Thesis_Part_2,1,170,2020-05-02T13:40:24-07:00,2.6636919975281,10,versionA_stim.csv,RL_JOLVersionB.csv,"RELATIONAL Version B",OLD,KEYS,JOKE,ON2,U,165,121,Test,User,-,,Recall,Recall1,1965,CAR,0,1385,1795,0,0,,,1
w999716_lnk,lu98cz3p4c,Emily_Honors_Thesis_Part_2,1,171,2020-05-02T13:40:27-07:00,2.9196009635925,10,versionA_stim.csv,RL_JOLVersionB.csv,"RELATIONAL Version B",OLD,CACTUS,PLANT,ON2,F,98,135,Test,User,-,,Recall,Recall1,2270,,0,-1,-1,0,0,,,1
w999716_lnk,lu98cz3p4c,Emily_Honors_Thesis_Part_2,1,172,2020-05-02T13:40:32-07:00,4.2719750404358,10,versionA_stim.csv,RL_JOLVersionB.csv,"RELATIONAL Version B",OLD,LEASE,TOIL,ON2,U,170,171,Test,User,-,,Recall,Recall1,3656,TERM,25,3046,3501,0,0,,,1
w999716_lnk,lu98cz3p4c,Emily_Honors_Thesis_Part_2,1,173,2020-05-02T13:40:35-07:00,3.1948621273041,10,versionA_stim.csv,RL_JOLVersionB.csv,"RELATIONAL Version B",OLD,MAIN,SCAR,ON2,U,175,136,Test,User,-,,Recall,Recall1,2559,,0,-1,-1,0,0,,,1
w999716_lnk,lu98cz3p4c,Emily_Honors_Thesis_Part_2,1,174,2020-05-02T13:41:05-07:00,30.191861867905,10,versionA_stim.csv,RL_JOLVersionB.csv,"RELATIONAL Version B",OLD,DOCUMENT,PAPER,ON2,F,109,98,Test,User,-,,Recall,Recall1,29534,PAPER,100,27325,29414,1,1,,,1
w999716_lnk,lu98cz3p4c,Emily_Honors_Thesis_Part_2,1,175,2020-05-02T13:41:18-07:00,12.854812145233,10,versionA_stim.csv,RL_JOLVersionB.csv,"RELATIONAL Version B",OLD,MASON,JAR,ON2,S,138,133,Test,User,-,,Recall,Recall1,12213,,0,-1,-1,0,0,,,0.656
w999716_lnk,lu98cz3p4c,Emily_Honors_Thesis_Part_2,1,176,2020-05-02T13:41:21-07:00,3.292338848114,10,versionA_stim.csv,RL_JOLVersionB.csv,"RELATIONAL Version B",OLD,TEMPERATURE,MORNING,ON2,U,173,123,Test,User,-,,Recall,Recall1,2627,WARM,18.181818181818,1631,2423,0,0,,,1
w999716_lnk,lu98cz3p4c,Emily_Honors_Thesis_Part_2,1,177,2020-05-02T13:41:26-07:00,5.2350010871887,10,versionA_stim.csv,RL_JOLVersionB.csv,"RELATIONAL Version B",OLD,CAKE,CLOTHES,ON2,U,166,169,Test,User,-,,Recall,Recall1,4587,,0,-1,-1,0,0,,,1
w999716_lnk,lu98cz3p4c,Emily_Honors_Thesis_Part_2,1,178,2020-05-02T13:41:29-07:00,3.0848460197449,10,versionA_stim.csv,RL_JOLVersionB.csv,"RELATIONAL Version B",OLD,JUSTICE,MAROON,ON2,U,156,127,Test,User,-,,Recall,Recall1,2448,,0,-1,-1,0,0,,,1
w999716_lnk,lu98cz3p4c,Emily_Honors_Thesis_Part_2,1,179,2020-05-02T13:41:33-07:00,3.6439700126648,10,versionA_stim.csv,RL_JOLVersionB.csv,"RELATIONAL Version B",OLD,LOAN,SIGN,ON2,U,171,124,Test,User,-,,Recall,Recall1,2922,AMOUNT,20,2030,2811,0,0,,,1
w999716_lnk,lu98cz3p4c,Emily_Honors_Thesis_Part_2,1,180,2020-05-02T13:41:36-07:00,3.2763628959656,10,versionA_stim.csv,RL_JOLVersionB.csv,"RELATIONAL Version B",OLD,RAZOR,SHAVE,ON2,S,136,168,Test,User,-,,Recall,Recall1,2563,SHARP,60,1704,2348,0,0,,,1
w999716_lnk,lu98cz3p4c,Emily_Honors_Thesis_Part_2,1,181,2020-05-02T13:41:41-07:00,5.0473470687866,10,versionA_stim.csv,RL_JOLVersionB.csv,"RELATIONAL Version B",OLD,SAFETY,SEATBELT,ON2,S,147,146,Test,User,-,,Recall,Recall1,4400,,0,-1,-1,0,0,,,1
w999716_lnk,lu98cz3p4c,Emily_Honors_Thesis_Part_2,1,182,2020-05-02T13:41:43-07:00,1.6581039428711,10,versionA_stim.csv,RL_JOLVersionB.csv,"RELATIONAL Version B",OLD,ADJOURN,END,ON2,F,101,109,Test,User,-,,Recall,Recall1,971,,0,-1,-1,0,0,,,1
w999716_lnk,lu98cz3p4c,Emily_Honors_Thesis_Part_2,1,183,2020-05-02T13:41:45-07:00,2.3381130695343,10,versionA_stim.csv,RL_JOLVersionB.csv,"RELATIONAL Version B",OLD,SHELL,SHAKE,ON2,U,163,130,Test,User,-,,Recall,Recall1,1710,,0,-1,-1,0,0,,,1
w999716_lnk,lu98cz3p4c,Emily_Honors_Thesis_Part_2,1,184,2020-05-02T13:41:49-07:00,4.0185618400574,10,versionA_stim.csv,RL_JOLVersionB.csv,"RELATIONAL Version B",OLD,GLASS,BREAKABLE,ON2,B,127,173,Test,User,-,,Recall,Recall1,3375,BREAK,71.428571428571,2486,3180,0,0,,,1
w999716_lnk,lu98cz3p4c,Emily_Honors_Thesis_Part_2,1,185,2020-05-02T13:41:53-07:00,3.8081240653992,10,versionA_stim.csv,RL_JOLVersionB.csv,"RELATIONAL Version B",OLD,AFFECTION,LOVE,ON2,F,115,113,Test,User,-,,Recall,Recall1,3146,LOVE,100,2442,3013,1,1,,,1
w999716_lnk,lu98cz3p4c,Emily_Honors_Thesis_Part_2,1,186,2020-05-02T13:42:01-07:00,7.7188169956207,10,versionA_stim.csv,RL_JOLVersionB.csv,"RELATIONAL Version B",OLD,BIRD,PENGUIN,ON2,B,119,153,Test,User,-,,Recall,Recall1,7054,CHIRP,16.666666666667,6043,6662,0,0,,,1
w999716_lnk,lu98cz3p4c,Emily_Honors_Thesis_Part_2,1,187,2020-05-02T13:42:17-07:00,15.618623971939,10,versionA_stim.csv,RL_JOLVersionB.csv,"RELATIONAL Version B",OLD,PHONE,COMMUNICATION,ON2,S,149,170,Test,User,-,,Recall,Recall1,14953,RING,23.529411764706,14458,14794,0,0,,,1
w999716_lnk,lu98cz3p4c,Emily_Honors_Thesis_Part_2,1,188,2020-05-02T13:43:01-07:00,44.288375139236,10,versionA_stim.csv,RL_JOLVersionB.csv,"RELATIONAL Version B",OLD,INCENSE,SMELL,ON2,F,110,138,Test,User,-,,Recall,Recall1,43595,SMELL,100,40163,43417,1,1,,,0.202
w999716_lnk,lu98cz3p4c,Emily_Honors_Thesis_Part_2,1,189,2020-05-02T13:43:04-07:00,2.748584985733,10,versionA_stim.csv,RL_JOLVersionB.csv,"RELATIONAL Version B",OLD,BAD,VILLAIN,ON2,B,118,142,Test,User,-,,Recall,Recall1,2112,,0,-1,-1,0,0,,,1
w999716_lnk,lu98cz3p4c,Emily_Honors_Thesis_Part_2,1,190,2020-05-02T13:43:06-07:00,2.7920298576355,10,versionA_stim.csv,RL_JOLVersionB.csv,"RELATIONAL Version B",OLD,CHERRY,RED,ON2,F,104,139,Test,User,-,,Recall,Recall1,2113,RED,100,1571,1963,1,1,,,1
w999716_lnk,lu98cz3p4c,Emily_Honors_Thesis_Part_2,1,191,2020-05-02T13:43:11-07:00,4.3844861984253,10,versionA_stim.csv,RL_JOLVersionB.csv,"RELATIONAL Version B",OLD,LITTER,TRASH,ON2,F,103,132,Test,User,-,,Recall,Recall1,3724,TRASH,100,2896,3540,1,1,,,1
w999716_lnk,lu98cz3p4c,Emily_Honors_Thesis_Part_2,1,192,2020-05-02T13:43:14-07:00,3.6838579177856,10,versionA_stim.csv,RL_JOLVersionB.csv,"RELATIONAL Version B",OLD,FEUD,FIGHT,ON2,F,113,155,Test,User,-,,Recall,Recall1,2988,FIRE,44.444444444444,2382,2835,0,0,,,1
w999716_lnk,lu98cz3p4c,Emily_Honors_Thesis_Part_2,1,193,2020-05-02T13:43:31-07:00,16.662854909897,10,versionA_stim.csv,RL_JOLVersionB.csv,"RELATIONAL Version B",OLD,FISH,SARDINE,ON2,B,130,164,Test,User,-,,Recall,Recall1,15987,SMELL,33.333333333333,15107,15814,0,0,,,1
w999716_lnk,lu98cz3p4c,Emily_Honors_Thesis_Part_2,1,194,2020-05-02T13:43:35-07:00,4.0909171104431,10,versionA_stim.csv,RL_JOLVersionB.csv,"RELATIONAL Version B",OLD,THREAD,THIMBLE,ON2,B,121,154,Test,User,-,,Recall,Recall1,3433,,0,-1,-1,0,0,,,1
w999716_lnk,lu98cz3p4c,Emily_Honors_Thesis_Part_2,1,195,2020-05-02T13:43:52-07:00,16.711380004883,10,versionA_stim.csv,RL_JOLVersionB.csv,"RELATIONAL Version B",OLD,,,,,,0,Instruct,-,10,"You will now be presented with a new set of word pairs. Please study each pair. Remember that your memory will be tested! When finished, press Enter to move to the next pair.",Initial_Instruct,Instruct4,16052,,,-1,-1,,,,,1
w999716_lnk,lu98cz3p4c,Emily_Honors_Thesis_Part_2,1,196,2020-05-02T13:44:05-07:00,13.026119947433,10,versionA_stim.csv,RL_JOLVersionB.csv,"RELATIONAL Version B",OLD,,,,,,0,Instruct,,10,"You will again be asked to rate your ability to remember these items using a 0 to 100 scale. Remember to use the full range of the scale!",,Instruct10,12344,,,-1,-1,,,,,0.806
w999716_lnk,lu98cz3p4c,Emily_Honors_Thesis_Part_2,1,197,2020-05-02T13:44:25-07:00,20.341345071793,10,versionA_stim.csv,RL_JOLVersionB.csv,"RELATIONAL Version B",OLD,,,,,,0,Instruct,-,15,"As you study and make your ratings, please think about how the two concepts are RELATED to each other. For example, if you see the pair TURTLE-CAT, think about how both are alive, they are both animals, and both can be kept as pets.",,Instruct20,19630,,,-1,-1,,,,,1
w999716_lnk,lu98cz3p4c,Emily_Honors_Thesis_Part_2,1,198,2020-05-02T13:44:38-07:00,12.319082975388,10,versionA_stim.csv,RL_JOLVersionB.csv,"RELATIONAL Version B",OLD,,,,,,0,FreeRecall,-,10,"What you should think about as you study each item pair? Type your response in the box below.",,CHECK4,11642,"About how the two are related.",0,2789,10491,0,0,,,1
w999716_lnk,lu98cz3p4c,Emily_Honors_Thesis_Part_2,1,199,2020-05-02T13:44:41-07:00,3.2322709560394,10,versionA_stim.csv,RL_JOLVersionB.csv,"RELATIONAL Version B",OLD,,,,,,0,Instruct,User,-,"Press Enter when you are readty to begin",,Instruct11,2588,,,-1,-1,,,,,1
w999716_lnk,lu98cz3p4c,Emily_Honors_Thesis_Part_2,1,200,2020-05-02T13:44:45-07:00,3.7442619800568,10,versionA_stim.csv,RL_JOLVersionB.csv,"RELATIONAL Version B",OLD,SCARE,HIDE,Buffer,Buffer,4,3,JOL,User,-,"How likely are you to correctly recall the second item in the pair?|Type your response on a scale from 0-100 and then press Enter.",Study/JOL,BUFFER3,3048,,,2635,2937,,,,100,1
w999716_lnk,lu98cz3p4c,Emily_Honors_Thesis_Part_2,1,201,2020-05-02T13:44:46-07:00,1.8423929214478,10,versionA_stim.csv,RL_JOLVersionB.csv,"RELATIONAL Version B",OLD,PEANUT,BUTTER,Buffer,Buffer,3,5,JOL,User,-,"How likely are you to correctly recall the second item in the pair?|Type your response on a scale from 0-100 and then press Enter.",Study/JOL,BUFFER3,1189,,,741,1083,,,,100,1
w999716_lnk,lu98cz3p4c,Emily_Honors_Thesis_Part_2,1,202,2020-05-02T13:44:48-07:00,1.9005661010742,10,versionA_stim.csv,RL_JOLVersionB.csv,"RELATIONAL Version B",OLD,TREES,GREEN,Buffer,Buffer,1,2,JOL,User,-,"How likely are you to correctly recall the second item in the pair?|Type your response on a scale from 0-100 and then press Enter.",Study/JOL,BUFFER3,1220,,,736,1073,,,,100,1
w999716_lnk,lu98cz3p4c,Emily_Honors_Thesis_Part_2,1,203,2020-05-02T13:44:50-07:00,1.8631191253662,10,versionA_stim.csv,RL_JOLVersionB.csv,"RELATIONAL Version B",OLD,SPACE,JAM,Buffer,Buffer,5,6,JOL,User,-,"How likely are you to correctly recall the second item in the pair?|Type your response on a scale from 0-100 and then press Enter.",Study/JOL,BUFFER3,1173,,,670,1023,,,,100,1
w999716_lnk,lu98cz3p4c,Emily_Honors_Thesis_Part_2,1,204,2020-05-02T13:44:52-07:00,1.9496519565582,10,versionA_stim.csv,RL_JOLVersionB.csv,"RELATIONAL Version B",OLD,BASEBALL,CATCHER,Buffer,Buffer,2,4,JOL,User,-,"How likely are you to correctly recall the second item in the pair?|Type your response on a scale from 0-100 and then press Enter.",Study/JOL,BUFFER3,1273,,,802,1148,,,,100,1
w999716_lnk,lu98cz3p4c,Emily_Honors_Thesis_Part_2,1,205,2020-05-02T13:44:56-07:00,3.5300748348236,10,versionA_stim.csv,RL_JOLVersionB.csv,"RELATIONAL Version B",OLD,GEOLOGY,ROCK,ON,F,19,16,JOL,User,-,"How likely are you to correctly recall the second item in the pair?|Type your response on a scale from 0-100 and then press Enter.",Study/JOL,"Study Phase2",2860,,,2481,2676,,,,80,1
w999716_lnk,lu98cz3p4c,Emily_Honors_Thesis_Part_2,1,206,2020-05-02T13:44:58-07:00,2.3790800571442,10,versionA_stim.csv,RL_JOLVersionB.csv,"RELATIONAL Version B",OLD,LAW,ATTORNEY,ON,B,34,67,JOL,User,-,"How likely are you to correctly recall the second item in the pair?|Type your response on a scale from 0-100 and then press Enter.",Study/JOL,"Study Phase2",1627,,,1047,1418,,,,100,1
w999716_lnk,lu98cz3p4c,Emily_Honors_Thesis_Part_2,1,207,2020-05-02T13:45:01-07:00,3.1909580230713,10,versionA_stim.csv,RL_JOLVersionB.csv,"RELATIONAL Version B",OLD,SLEEP,DROWSY,ON,B,41,35,JOL,User,-,"How likely are you to correctly recall the second item in the pair?|Type your response on a scale from 0-100 and then press Enter.",Study/JOL,"Study Phase2",2478,,,2110,2302,,,,90,1
w999716_lnk,lu98cz3p4c,Emily_Honors_Thesis_Part_2,1,208,2020-05-02T13:45:05-07:00,3.6917181015015,10,versionA_stim.csv,RL_JOLVersionB.csv,"RELATIONAL Version B",OLD,HAPPY,CAR,ON,U,77,8,JOL,User,-,"How likely are you to correctly recall the second item in the pair?|Type your response on a scale from 0-100 and then press Enter.",Study/JOL,"Study Phase2",2850,,,2489,2670,,,,50,1
w999716_lnk,lu98cz3p4c,Emily_Honors_Thesis_Part_2,1,209,2020-05-02T13:45:08-07:00,3.4746069908142,10,versionA_stim.csv,RL_JOLVersionB.csv,"RELATIONAL Version B",OLD,WAGE,MONEY,ON,F,8,56,JOL,User,-,"How likely are you to correctly recall the second item in the pair?|Type your response on a scale from 0-100 and then press Enter.",Study/JOL,"Study Phase2",2707,,,2319,2518,,,,99,1
w999716_lnk,lu98cz3p4c,Emily_Honors_Thesis_Part_2,1,210,2020-05-02T13:45:11-07:00,2.750725030899,10,versionA_stim.csv,RL_JOLVersionB.csv,"RELATIONAL Version B",OLD,WORK,CHORE,ON,B,39,11,JOL,User,-,"How likely are you to correctly recall the second item in the pair?|Type your response on a scale from 0-100 and then press Enter.",Study/JOL,"Study Phase2",2072,,,1471,1834,,,,100,1
w999716_lnk,lu98cz3p4c,Emily_Honors_Thesis_Part_2,1,211,2020-05-02T13:45:14-07:00,2.6122097969055,10,versionA_stim.csv,RL_JOLVersionB.csv,"RELATIONAL Version B",OLD,GRILL,BAR,ON,S,52,52,JOL,User,-,"How likely are you to correctly recall the second item in the pair?|Type your response on a scale from 0-100 and then press Enter.",Study/JOL,"Study Phase2",1900,,,1127,1710,,,,100,1
w999716_lnk,lu98cz3p4c,Emily_Honors_Thesis_Part_2,1,212,2020-05-02T13:45:18-07:00,4.3024480342865,10,versionA_stim.csv,RL_JOLVersionB.csv,"RELATIONAL Version B",OLD,BEGIN,END,ON,S,54,47,JOL,User,-,"How likely are you to correctly recall the second item in the pair?|Type your response on a scale from 0-100 and then press Enter.",Study/JOL,"Study Phase2",3635,,,3165,3439,,,,80,1
w999716_lnk,lu98cz3p4c,Emily_Honors_Thesis_Part_2,1,213,2020-05-02T13:45:20-07:00,2.356143951416,10,versionA_stim.csv,RL_JOLVersionB.csv,"RELATIONAL Version B",OLD,HONEY,BEE,ON,S,63,29,JOL,User,-,"How likely are you to correctly recall the second item in the pair?|Type your response on a scale from 0-100 and then press Enter.",Study/JOL,"Study Phase2",1601,,,1026,1374,,,,100,1
w999716_lnk,lu98cz3p4c,Emily_Honors_Thesis_Part_2,1,214,2020-05-02T13:45:23-07:00,2.5221350193024,10,versionA_stim.csv,RL_JOLVersionB.csv,"RELATIONAL Version B",OLD,DEBATE,SIGHT,ON,U,73,31,JOL,User,-,"How likely are you to correctly recall the second item in the pair?|Type your response on a scale from 0-100 and then press Enter.",Study/JOL,"Study Phase2",1875,,,1295,1687,,,,100,1
w999716_lnk,lu98cz3p4c,Emily_Honors_Thesis_Part_2,1,215,2020-05-02T13:45:28-07:00,4.7942750453949,10,versionA_stim.csv,RL_JOLVersionB.csv,"RELATIONAL Version B",OLD,MACHINE,POSITION,ON,U,76,19,JOL,User,-,"How likely are you to correctly recall the second item in the pair?|Type your response on a scale from 0-100 and then press Enter.",Study/JOL,"Study Phase2",4139,,,3961,3961,,,,0,1
w999716_lnk,lu98cz3p4c,Emily_Honors_Thesis_Part_2,1,216,2020-05-02T13:45:30-07:00,2.3494379520416,10,versionA_stim.csv,RL_JOLVersionB.csv,"RELATIONAL Version B",OLD,BATHROOM,TOILET,ON,S,58,42,JOL,User,-,"How likely are you to correctly recall the second item in the pair?|Type your response on a scale from 0-100 and then press Enter.",Study/JOL,"Study Phase2",1672,,,1116,1511,,,,100,1
w999716_lnk,lu98cz3p4c,Emily_Honors_Thesis_Part_2,1,217,2020-05-02T13:45:34-07:00,3.4069261550903,10,versionA_stim.csv,RL_JOLVersionB.csv,"RELATIONAL Version B",OLD,BLOW,WIND,ON,S,55,75,JOL,User,-,"How likely are you to correctly recall the second item in the pair?|Type your response on a scale from 0-100 and then press Enter.",Study/JOL,"Study Phase2",2736,,,2170,2586,,,,100,1
w999716_lnk,lu98cz3p4c,Emily_Honors_Thesis_Part_2,1,218,2020-05-02T13:45:42-07:00,8.5747578144073,10,versionA_stim.csv,RL_JOLVersionB.csv,"RELATIONAL Version B",OLD,PAW,DOG,ON,F,15,68,JOL,User,-,"How likely are you to correctly recall the second item in the pair?|Type your response on a scale from 0-100 and then press Enter.",Study/JOL,"Study Phase2",7910,,,7422,7764,,,,100,0.375
w999716_lnk,lu98cz3p4c,Emily_Honors_Thesis_Part_2,1,219,2020-05-02T13:45:48-07:00,6.0330610275269,10,versionA_stim.csv,RL_JOLVersionB.csv,"RELATIONAL Version B",OLD,ORCHID,FLOWER,ON,F,24,30,JOL,User,-,"How likely are you to correctly recall the second item in the pair?|Type your response on a scale from 0-100 and then press Enter.",Study/JOL,"Study Phase2",5362,,,4985,5184,,,,50,0.333
w999716_lnk,lu98cz3p4c,Emily_Honors_Thesis_Part_2,1,220,2020-05-02T13:45:56-07:00,7.8004050254822,10,versionA_stim.csv,RL_JOLVersionB.csv,"RELATIONAL Version B",OLD,CASH,WOULD,ON,U,83,65,JOL,User,-,"How likely are you to correctly recall the second item in the pair?|Type your response on a scale from 0-100 and then press Enter.",Study/JOL,"Study Phase2",7147,,,6960,6960,,,,0,0.722
w999716_lnk,lu98cz3p4c,Emily_Honors_Thesis_Part_2,1,221,2020-05-02T13:46:06-07:00,10.579718112946,10,versionA_stim.csv,RL_JOLVersionB.csv,"RELATIONAL Version B",OLD,GREAT,FANTASTIC,ON,B,35,64,JOL,User,-,"How likely are you to correctly recall the second item in the pair?|Type your response on a scale from 0-100 and then press Enter.",Study/JOL,"Study Phase2",9900,,,8005,8438,,,,100,1
w999716_lnk,lu98cz3p4c,Emily_Honors_Thesis_Part_2,1,222,2020-05-02T13:46:12-07:00,5.9525890350342,10,versionA_stim.csv,RL_JOLVersionB.csv,"RELATIONAL Version B",OLD,HIDE,SICK,ON,U,84,63,JOL,User,-,"How likely are you to correctly recall the second item in the pair?|Type your response on a scale from 0-100 and then press Enter.",Study/JOL,"Study Phase2",5108,,,4607,4607,,,,0,1
w999716_lnk,lu98cz3p4c,Emily_Honors_Thesis_Part_2,1,223,2020-05-02T13:46:21-07:00,8.623733997345,10,versionA_stim.csv,RL_JOLVersionB.csv,"RELATIONAL Version B",OLD,BUG,WASP,ON,B,32,32,JOL,User,-,"How likely are you to correctly recall the second item in the pair?|Type your response on a scale from 0-100 and then press Enter.",Study/JOL,"Study Phase2",7974,,,7594,7761,,,,99,1
w999716_lnk,lu98cz3p4c,Emily_Honors_Thesis_Part_2,1,224,2020-05-02T13:46:50-07:00,28.488067865372,10,versionA_stim.csv,RL_JOLVersionB.csv,"RELATIONAL Version B",OLD,SHOE,FOOT,ON,S,60,73,JOL,User,-,"How likely are you to correctly recall the second item in the pair?|Type your response on a scale from 0-100 and then press Enter.",Study/JOL,"Study Phase2",27853,,,27372,27691,,,,100,0.107
w999716_lnk,lu98cz3p4c,Emily_Honors_Thesis_Part_2,1,225,2020-05-02T13:47:08-07:00,18.083418130875,10,versionA_stim.csv,RL_JOLVersionB.csv,"RELATIONAL Version B",OLD,DRINK,SIP,ON,B,27,12,JOL,User,-,"How likely are you to correctly recall the second item in the pair?|Type your response on a scale from 0-100 and then press Enter.",Study/JOL,"Study Phase2",17406,,,3514,3813,,,,90,1
w999716_lnk,lu98cz3p4c,Emily_Honors_Thesis_Part_2,1,226,2020-05-02T13:47:11-07:00,3.085352897644,10,versionA_stim.csv,RL_JOLVersionB.csv,"RELATIONAL Version B",OLD,SUGAR,RIDDLE,ON,U,81,22,JOL,User,-,"How likely are you to correctly recall the second item in the pair?|Type your response on a scale from 0-100 and then press Enter.",Study/JOL,"Study Phase2",2430,,,1840,1840,,,,0,1
w999716_lnk,lu98cz3p4c,Emily_Honors_Thesis_Part_2,1,227,2020-05-02T13:47:15-07:00,4.264876127243,10,versionA_stim.csv,RL_JOLVersionB.csv,"RELATIONAL Version B",OLD,HERD,COW,ON,F,22,28,JOL,User,-,"How likely are you to correctly recall the second item in the pair?|Type your response on a scale from 0-100 and then press Enter.",Study/JOL,"Study Phase2",3417,,,3015,3262,,,,80,1
w999716_lnk,lu98cz3p4c,Emily_Honors_Thesis_Part_2,1,228,2020-05-02T13:47:19-07:00,4.1420869827271,10,versionA_stim.csv,RL_JOLVersionB.csv,"RELATIONAL Version B",OLD,LIFT,WOMAN,ON,U,69,59,JOL,User,-,"How likely are you to correctly recall the second item in the pair?|Type your response on a scale from 0-100 and then press Enter.",Study/JOL,"Study Phase2",3492,,,2827,3300,,,,20,1
w999716_lnk,lu98cz3p4c,Emily_Honors_Thesis_Part_2,1,229,2020-05-02T13:47:22-07:00,3.2874748706818,10,versionA_stim.csv,RL_JOLVersionB.csv,"RELATIONAL Version B",OLD,DEATH,BUSINESS,ON,U,72,83,JOL,User,-,"How likely are you to correctly recall the second item in the pair?|Type your response on a scale from 0-100 and then press Enter.",Study/JOL,"Study Phase2",2638,,,2454,2454,,,,0,1
w999716_lnk,lu98cz3p4c,Emily_Honors_Thesis_Part_2,1,230,2020-05-02T13:47:47-07:00,24.502730131149,10,versionA_stim.csv,RL_JOLVersionB.csv,"RELATIONAL Version B",OLD,DISCOVER,FLOOR,ON,U,71,46,JOL,User,-,"How likely are you to correctly recall the second item in the pair?|Type your response on a scale from 0-100 and then press Enter.",Study/JOL,"Study Phase2",23841,,,23357,23601,,,,20,1
w999716_lnk,lu98cz3p4c,Emily_Honors_Thesis_Part_2,1,231,2020-05-02T13:47:50-07:00,3.0107328891754,10,versionA_stim.csv,RL_JOLVersionB.csv,"RELATIONAL Version B",OLD,KIDNEY,LIVER,ON,S,53,9,JOL,User,-,"How likely are you to correctly recall the second item in the pair?|Type your response on a scale from 0-100 and then press Enter.",Study/JOL,"Study Phase2",2010,,,1483,1846,,,,100,1
w999716_lnk,lu98cz3p4c,Emily_Honors_Thesis_Part_2,1,232,2020-05-02T13:47:53-07:00,3.1754519939423,10,versionA_stim.csv,RL_JOLVersionB.csv,"RELATIONAL Version B",OLD,SWAN,BIRD,ON,F,14,70,JOL,User,-,"How likely are you to correctly recall the second item in the pair?|Type your response on a scale from 0-100 and then press Enter.",Study/JOL,"Study Phase2",2242,,,1720,2082,,,,100,1
w999716_lnk,lu98cz3p4c,Emily_Honors_Thesis_Part_2,1,233,2020-05-02T13:48:12-07:00,19.347332000732,10,versionA_stim.csv,RL_JOLVersionB.csv,"RELATIONAL Version B",OLD,PAST,FUTURE,ON,S,61,33,JOL,User,-,"How likely are you to correctly recall the second item in the pair?|Type your response on a scale from 0-100 and then press Enter.",Study/JOL,"Study Phase2",18641,,,18269,18485,,,,50,0.57
w999716_lnk,lu98cz3p4c,Emily_Honors_Thesis_Part_2,1,234,2020-05-02T13:48:24-07:00,11.68488407135,10,versionA_stim.csv,RL_JOLVersionB.csv,"RELATIONAL Version B",OLD,HORNET,STING,ON,F,11,24,JOL,User,-,"How likely are you to correctly recall the second item in the pair?|Type your response on a scale from 0-100 and then press Enter.",Study/JOL,"Study Phase2",10967,,,7275,10800,,,,90,1
w999716_lnk,lu98cz3p4c,Emily_Honors_Thesis_Part_2,1,235,2020-05-02T13:48:28-07:00,3.5036640167236,10,versionA_stim.csv,RL_JOLVersionB.csv,"RELATIONAL Version B",OLD,ROOT,PLANT,ON,F,13,58,JOL,User,-,"How likely are you to correctly recall the second item in the pair?|Type your response on a scale from 0-100 and then press Enter.",Study/JOL,"Study Phase2",2729,,,2380,2600,,,,90,1
w999716_lnk,lu98cz3p4c,Emily_Honors_Thesis_Part_2,1,236,2020-05-02T13:48:30-07:00,2.4281990528107,10,versionA_stim.csv,RL_JOLVersionB.csv,"RELATIONAL Version B",OLD,DISCUSSION,TALK,ON,F,21,60,JOL,User,-,"How likely are you to correctly recall the second item in the pair?|Type your response on a scale from 0-100 and then press Enter.",Study/JOL,"Study Phase2",1671,,,1267,1505,,,,90,1
w999716_lnk,lu98cz3p4c,Emily_Honors_Thesis_Part_2,1,237,2020-05-02T13:48:35-07:00,4.7222487926483,10,versionA_stim.csv,RL_JOLVersionB.csv,"RELATIONAL Version B",OLD,BABY,CHILD,ON,S,64,10,JOL,User,-,"How likely are you to correctly recall the second item in the pair?|Type your response on a scale from 0-100 and then press Enter.",Study/JOL,"Study Phase2",2584,,,2117,2503,,,,100,1
w999716_lnk,lu98cz3p4c,Emily_Honors_Thesis_Part_2,1,238,2020-05-02T13:48:40-07:00,5.243360042572,10,versionA_stim.csv,RL_JOLVersionB.csv,"RELATIONAL Version B",OLD,DUMP,WASTE,ON,S,49,76,JOL,User,-,"How likely are you to correctly recall the second item in the pair?|Type your response on a scale from 0-100 and then press Enter.",Study/JOL,"Study Phase2",2566,,,2065,2424,,,,100,1
w999716_lnk,lu98cz3p4c,Emily_Honors_Thesis_Part_2,1,239,2020-05-02T13:49:41-07:00,61.078679084778,10,versionA_stim.csv,RL_JOLVersionB.csv,"RELATIONAL Version B",OLD,MEANING,DEFINITION,ON,S,62,72,JOL,User,-,"How likely are you to correctly recall the second item in the pair?|Type your response on a scale from 0-100 and then press Enter.",Study/JOL,"Study Phase2",60355,,,59798,60203,,,,100,0.52
w999716_lnk,lu98cz3p4c,Emily_Honors_Thesis_Part_2,1,240,2020-05-02T13:49:47-07:00,6.0176820755005,10,versionA_stim.csv,RL_JOLVersionB.csv,"RELATIONAL Version B",OLD,,,,,,0,Instruct,-,3,"Remember to focus on how the two items are similiar while you study and make your ratings!",,CHECK5,5272,,,-1,-1,,,,,1
w999716_lnk,lu98cz3p4c,Emily_Honors_Thesis_Part_2,1,241,2020-05-02T13:49:50-07:00,2.7743787765503,10,versionA_stim.csv,RL_JOLVersionB.csv,"RELATIONAL Version B",OLD,PUSHER,CLUTTER,ON,U,66,51,JOL,User,-,"How likely are you to correctly recall the second item in the pair?|Type your response on a scale from 0-100 and then press Enter.",Study/JOL,"Study Phase2",2071,,,1912,1913,,,,0,1
w999716_lnk,lu98cz3p4c,Emily_Honors_Thesis_Part_2,1,242,2020-05-02T13:49:54-07:00,4.022961139679,10,versionA_stim.csv,RL_JOLVersionB.csv,"RELATIONAL Version B",OLD,MATH,DIVISION,ON,B,33,7,JOL,User,-,"How likely are you to correctly recall the second item in the pair?|Type your response on a scale from 0-100 and then press Enter.",Study/JOL,"Study Phase2",3297,,,2879,3245,,,,100,0.647
w999716_lnk,lu98cz3p4c,Emily_Honors_Thesis_Part_2,1,243,2020-05-02T13:49:59-07:00,5.1686549186707,10,versionA_stim.csv,RL_JOLVersionB.csv,"RELATIONAL Version B",OLD,TAKE,SEIZE,ON,B,29,13,JOL,User,-,"How likely are you to correctly recall the second item in the pair?|Type your response on a scale from 0-100 and then press Enter.",Study/JOL,"Study Phase2",4471,,,3699,3903,,,,50,0.783
w999716_lnk,lu98cz3p4c,Emily_Honors_Thesis_Part_2,1,244,2020-05-02T13:50:02-07:00,2.687096118927,10,versionA_stim.csv,RL_JOLVersionB.csv,"RELATIONAL Version B",OLD,ARCHITECTURE,DESIGN,ON,S,51,39,JOL,User,-,"How likely are you to correctly recall the second item in the pair?|Type your response on a scale from 0-100 and then press Enter.",Study/JOL,"Study Phase2",1991,,,1332,1738,,,,100,1
w999716_lnk,lu98cz3p4c,Emily_Honors_Thesis_Part_2,1,245,2020-05-02T13:50:05-07:00,3.1626160144806,10,versionA_stim.csv,RL_JOLVersionB.csv,"RELATIONAL Version B",OLD,DARK,CAVE,ON,B,28,25,JOL,User,-,"How likely are you to correctly recall the second item in the pair?|Type your response on a scale from 0-100 and then press Enter.",Study/JOL,"Study Phase2",2467,,,1667,2062,,,,100,1
w999716_lnk,lu98cz3p4c,Emily_Honors_Thesis_Part_2,1,246,2020-05-02T13:50:11-07:00,5.9869680404663,10,versionA_stim.csv,RL_JOLVersionB.csv,"RELATIONAL Version B",OLD,SOON,BELT,ON,U,70,61,JOL,User,-,"How likely are you to correctly recall the second item in the pair?|Type your response on a scale from 0-100 and then press Enter.",Study/JOL,"Study Phase2",5218,,,4990,4990,,,,0,1
w999716_lnk,lu98cz3p4c,Emily_Honors_Thesis_Part_2,1,247,2020-05-02T13:50:24-07:00,13.045476913452,10,versionA_stim.csv,RL_JOLVersionB.csv,"RELATIONAL Version B",OLD,FULL,ENOUGH,ON,B,26,15,JOL,User,-,"How likely are you to correctly recall the second item in the pair?|Type your response on a scale from 0-100 and then press Enter.",Study/JOL,"Study Phase2",12297,,,11696,12107,,,,100,1
w999716_lnk,lu98cz3p4c,Emily_Honors_Thesis_Part_2,1,248,2020-05-02T13:50:28-07:00,4.2131509780884,10,versionA_stim.csv,RL_JOLVersionB.csv,"RELATIONAL Version B",OLD,LOCATION,SITE,ON,S,48,41,JOL,User,-,"How likely are you to correctly recall the second item in the pair?|Type your response on a scale from 0-100 and then press Enter.",Study/JOL,"Study Phase2",3427,,,2782,3177,,,,100,1
w999716_lnk,lu98cz3p4c,Emily_Honors_Thesis_Part_2,1,249,2020-05-02T13:50:32-07:00,3.7560279369354,10,versionA_stim.csv,RL_JOLVersionB.csv,"RELATIONAL Version B",OLD,WINE,CHEESE,ON,S,57,44,JOL,User,-,"How likely are you to correctly recall the second item in the pair?|Type your response on a scale from 0-100 and then press Enter.",Study/JOL,"Study Phase2",3032,,,2633,2848,,,,90,1
w999716_lnk,lu98cz3p4c,Emily_Honors_Thesis_Part_2,1,250,2020-05-02T13:50:34-07:00,2.3612589836121,10,versionA_stim.csv,RL_JOLVersionB.csv,"RELATIONAL Version B",OLD,POP,SODA,ON,S,56,26,JOL,User,-,"How likely are you to correctly recall the second item in the pair?|Type your response on a scale from 0-100 and then press Enter.",Study/JOL,"Study Phase2",1584,,,1024,1409,,,,100,1
w999716_lnk,lu98cz3p4c,Emily_Honors_Thesis_Part_2,1,251,2020-05-02T13:50:37-07:00,3.0143551826477,10,versionA_stim.csv,RL_JOLVersionB.csv,"RELATIONAL Version B",OLD,BALL,RACKET,ON,B,38,48,JOL,User,-,"How likely are you to correctly recall the second item in the pair?|Type your response on a scale from 0-100 and then press Enter.",Study/JOL,"Study Phase2",2295,,,1780,2132,,,,100,1
w999716_lnk,lu98cz3p4c,Emily_Honors_Thesis_Part_2,1,252,2020-05-02T13:50:40-07:00,2.7373898029327,10,versionA_stim.csv,RL_JOLVersionB.csv,"RELATIONAL Version B",OLD,WAY,OUT,ON,F,16,79,JOL,User,-,"How likely are you to correctly recall the second item in the pair?|Type your response on a scale from 0-100 and then press Enter.",Study/JOL,"Study Phase2",2047,,,1512,1879,,,,100,1
w999716_lnk,lu98cz3p4c,Emily_Honors_Thesis_Part_2,1,253,2020-05-02T13:50:50-07:00,10.43096613884,10,versionA_stim.csv,RL_JOLVersionB.csv,"RELATIONAL Version B",OLD,LETTUCE,SALAD,ON,S,59,45,JOL,User,-,"How likely are you to correctly recall the second item in the pair?|Type your response on a scale from 0-100 and then press Enter.",Study/JOL,"Study Phase2",9766,,,9165,9528,,,,100,0.449
w999716_lnk,lu98cz3p4c,Emily_Honors_Thesis_Part_2,1,254,2020-05-02T13:51:02-07:00,11.314899921417,10,versionA_stim.csv,RL_JOLVersionB.csv,"RELATIONAL Version B",OLD,HUNGER,FAMINE,ON,B,40,23,JOL,User,-,"How likely are you to correctly recall the second item in the pair?|Type your response on a scale from 0-100 and then press Enter.",Study/JOL,"Study Phase2",10628,,,10481,10481,,,,0,1
w999716_lnk,lu98cz3p4c,Emily_Honors_Thesis_Part_2,1,255,2020-05-02T13:51:09-07:00,6.837620973587,10,versionA_stim.csv,RL_JOLVersionB.csv,"RELATIONAL Version B",OLD,FIX,HAND,ON,U,75,57,JOL,User,-,"How likely are you to correctly recall the second item in the pair?|Type your response on a scale from 0-100 and then press Enter.",Study/JOL,"Study Phase2",6129,,,5917,5917,,,,0,1
w999716_lnk,lu98cz3p4c,Emily_Honors_Thesis_Part_2,1,256,2020-05-02T13:51:11-07:00,2.2891311645508,10,versionA_stim.csv,RL_JOLVersionB.csv,"RELATIONAL Version B",OLD,NUMBER,AMOUNT,ON,S,47,20,JOL,User,-,"How likely are you to correctly recall the second item in the pair?|Type your response on a scale from 0-100 and then press Enter.",Study/JOL,"Study Phase2",1608,,,1048,1448,,,,100,1
w999716_lnk,lu98cz3p4c,Emily_Honors_Thesis_Part_2,1,257,2020-05-02T13:51:16-07:00,5.083438873291,10,versionA_stim.csv,RL_JOLVersionB.csv,"RELATIONAL Version B",OLD,STRONG,ACCIDENT,ON,U,80,82,JOL,User,-,"How likely are you to correctly recall the second item in the pair?|Type your response on a scale from 0-100 and then press Enter.",Study/JOL,"Study Phase2",4392,,,4020,4206,,,,10,1
w999716_lnk,lu98cz3p4c,Emily_Honors_Thesis_Part_2,1,258,2020-05-02T13:51:19-07:00,3.3542470932007,10,versionA_stim.csv,RL_JOLVersionB.csv,"RELATIONAL Version B",OLD,SMELL,STENCH,ON,B,42,14,JOL,User,-,"How likely are you to correctly recall the second item in the pair?|Type your response on a scale from 0-100 and then press Enter.",Study/JOL,"Study Phase2",2657,,,2016,2419,,,,100,1
w999716_lnk,lu98cz3p4c,Emily_Honors_Thesis_Part_2,1,259,2020-05-02T13:51:22-07:00,3.0065748691559,10,versionA_stim.csv,RL_JOLVersionB.csv,"RELATIONAL Version B",OLD,KEY,LATCH,ON,B,36,17,JOL,User,-,"How likely are you to correctly recall the second item in the pair?|Type your response on a scale from 0-100 and then press Enter.",Study/JOL,"Study Phase2",2290,,,1702,2067,,,,100,1
w999716_lnk,lu98cz3p4c,Emily_Honors_Thesis_Part_2,1,260,2020-05-02T13:51:26-07:00,3.1882541179657,10,versionA_stim.csv,RL_JOLVersionB.csv,"RELATIONAL Version B",OLD,HEIGHT,GROWTH,ON,B,30,71,JOL,User,-,"How likely are you to correctly recall the second item in the pair?|Type your response on a scale from 0-100 and then press Enter.",Study/JOL,"Study Phase2",2426,,,2014,2216,,,,90,1
w999716_lnk,lu98cz3p4c,Emily_Honors_Thesis_Part_2,1,261,2020-05-02T13:51:28-07:00,2.3386368751526,10,versionA_stim.csv,RL_JOLVersionB.csv,"RELATIONAL Version B",OLD,FIRE,BLAZE,ON,B,45,38,JOL,User,-,"How likely are you to correctly recall the second item in the pair?|Type your response on a scale from 0-100 and then press Enter.",Study/JOL,"Study Phase2",1617,,,996,1385,,,,100,1
w999716_lnk,lu98cz3p4c,Emily_Honors_Thesis_Part_2,1,262,2020-05-02T13:51:31-07:00,3.2187781333923,10,versionA_stim.csv,RL_JOLVersionB.csv,"RELATIONAL Version B",OLD,CHISEL,HAMMER,ON,F,9,77,JOL,User,-,"How likely are you to correctly recall the second item in the pair?|Type your response on a scale from 0-100 and then press Enter.",Study/JOL,"Study Phase2",2517,,,2345,2345,,,,0,1
w999716_lnk,lu98cz3p4c,Emily_Honors_Thesis_Part_2,1,263,2020-05-02T13:51:33-07:00,2.3243868350983,10,versionA_stim.csv,RL_JOLVersionB.csv,"RELATIONAL Version B",OLD,REVOLUTION,WAR,ON,F,20,84,JOL,User,-,"How likely are you to correctly recall the second item in the pair?|Type your response on a scale from 0-100 and then press Enter.",Study/JOL,"Study Phase2",1627,,,1130,1492,,,,100,1
w999716_lnk,lu98cz3p4c,Emily_Honors_Thesis_Part_2,1,264,2020-05-02T13:51:35-07:00,1.9982950687408,10,versionA_stim.csv,RL_JOLVersionB.csv,"RELATIONAL Version B",OLD,CREDIT,CARD,ON,F,23,78,JOL,User,-,"How likely are you to correctly recall the second item in the pair?|Type your response on a scale from 0-100 and then press Enter.",Study/JOL,"Study Phase2",1279,,,766,1111,,,,100,1
w999716_lnk,lu98cz3p4c,Emily_Honors_Thesis_Part_2,1,265,2020-05-02T13:51:37-07:00,2.0209169387817,10,versionA_stim.csv,RL_JOLVersionB.csv,"RELATIONAL Version B",OLD,TUNA,FISH,ON,F,25,86,JOL,User,-,"How likely are you to correctly recall the second item in the pair?|Type your response on a scale from 0-100 and then press Enter.",Study/JOL,"Study Phase2",1327,,,762,1126,,,,100,1
w999716_lnk,lu98cz3p4c,Emily_Honors_Thesis_Part_2,1,266,2020-05-02T13:51:40-07:00,2.2128520011902,10,versionA_stim.csv,RL_JOLVersionB.csv,"RELATIONAL Version B",OLD,BRIDGE,WATER,ON,F,18,34,JOL,User,-,"How likely are you to correctly recall the second item in the pair?|Type your response on a scale from 0-100 and then press Enter.",Study/JOL,"Study Phase2",1499,,,655,1253,,,,100,1
w999716_lnk,lu98cz3p4c,Emily_Honors_Thesis_Part_2,1,267,2020-05-02T13:51:42-07:00,2.0418891906738,10,versionA_stim.csv,RL_JOLVersionB.csv,"RELATIONAL Version B",OLD,DUE,ASSIGNMENT,ON,S,46,27,JOL,User,-,"How likely are you to correctly recall the second item in the pair?|Type your response on a scale from 0-100 and then press Enter.",Study/JOL,"Study Phase2",1316,,,754,1129,,,,100,1
w999716_lnk,lu98cz3p4c,Emily_Honors_Thesis_Part_2,1,268,2020-05-02T13:51:47-07:00,5.5245130062103,10,versionA_stim.csv,RL_JOLVersionB.csv,"RELATIONAL Version B",OLD,DIETARY,SACKING,ON,U,67,66,JOL,User,-,"How likely are you to correctly recall the second item in the pair?|Type your response on a scale from 0-100 and then press Enter.",Study/JOL,"Study Phase2",4742,,,2311,4545,,,,25,1
w999716_lnk,lu98cz3p4c,Emily_Honors_Thesis_Part_2,1,269,2020-05-02T13:51:50-07:00,2.7457609176636,10,versionA_stim.csv,RL_JOLVersionB.csv,"RELATIONAL Version B",OLD,CIRCLE,ROUND,ON,S,65,80,JOL,User,-,"How likely are you to correctly recall the second item in the pair?|Type your response on a scale from 0-100 and then press Enter.",Study/JOL,"Study Phase2",2048,,,1501,1867,,,,100,1
w999716_lnk,lu98cz3p4c,Emily_Honors_Thesis_Part_2,1,270,2020-05-02T13:51:54-07:00,3.6463499069214,10,versionA_stim.csv,RL_JOLVersionB.csv,"RELATIONAL Version B",OLD,CLOTHES,ATTIRE,ON,B,43,18,JOL,User,-,"How likely are you to correctly recall the second item in the pair?|Type your response on a scale from 0-100 and then press Enter.",Study/JOL,"Study Phase2",2942,,,1049,1578,,,,100,1
w999716_lnk,lu98cz3p4c,Emily_Honors_Thesis_Part_2,1,271,2020-05-02T13:51:56-07:00,2.8042371273041,10,versionA_stim.csv,RL_JOLVersionB.csv,"RELATIONAL Version B",OLD,DELINQUENT,BAD,ON,F,6,81,JOL,User,-,"How likely are you to correctly recall the second item in the pair?|Type your response on a scale from 0-100 and then press Enter.",Study/JOL,"Study Phase2",2111,,,1517,1889,,,,100,1
w999716_lnk,lu98cz3p4c,Emily_Honors_Thesis_Part_2,1,272,2020-05-02T13:52:00-07:00,3.7444489002228,10,versionA_stim.csv,RL_JOLVersionB.csv,"RELATIONAL Version B",OLD,HOT,CHILI,ON,B,37,54,JOL,User,-,"How likely are you to correctly recall the second item in the pair?|Type your response on a scale from 0-100 and then press Enter.",Study/JOL,"Study Phase2",3026,,,2553,2774,,,,90,1
w999716_lnk,lu98cz3p4c,Emily_Honors_Thesis_Part_2,1,273,2020-05-02T13:52:03-07:00,2.9716830253601,10,versionA_stim.csv,RL_JOLVersionB.csv,"RELATIONAL Version B",OLD,SENTENCE,WORD,ON,B,31,43,JOL,User,-,"How likely are you to correctly recall the second item in the pair?|Type your response on a scale from 0-100 and then press Enter.",Study/JOL,"Study Phase2",2258,,,1697,2056,,,,100,1
w999716_lnk,lu98cz3p4c,Emily_Honors_Thesis_Part_2,1,274,2020-05-02T13:52:06-07:00,2.5416219234467,10,versionA_stim.csv,RL_JOLVersionB.csv,"RELATIONAL Version B",OLD,EDITOR,NEWS,ON,F,10,69,JOL,User,-,"How likely are you to correctly recall the second item in the pair?|Type your response on a scale from 0-100 and then press Enter.",Study/JOL,"Study Phase2",1817,,,1197,1605,,,,100,1
w999716_lnk,lu98cz3p4c,Emily_Honors_Thesis_Part_2,1,275,2020-05-02T13:52:10-07:00,4.2134511470795,10,versionA_stim.csv,RL_JOLVersionB.csv,"RELATIONAL Version B",OLD,PARK,HUNGRY,ON,U,68,85,JOL,User,-,"How likely are you to correctly recall the second item in the pair?|Type your response on a scale from 0-100 and then press Enter.",Study/JOL,"Study Phase2",3446,,,1472,2113,,,,100,1
w999716_lnk,lu98cz3p4c,Emily_Honors_Thesis_Part_2,1,276,2020-05-02T13:52:14-07:00,4.0736038684845,10,versionA_stim.csv,RL_JOLVersionB.csv,"RELATIONAL Version B",OLD,HYGIENE,CLEAN,ON,F,17,53,JOL,User,-,"How likely are you to correctly recall the second item in the pair?|Type your response on a scale from 0-100 and then press Enter.",Study/JOL,"Study Phase2",3338,,,2607,3024,,,,100,1
w999716_lnk,lu98cz3p4c,Emily_Honors_Thesis_Part_2,1,277,2020-05-02T13:52:18-07:00,4.485249042511,10,versionA_stim.csv,RL_JOLVersionB.csv,"RELATIONAL Version B",OLD,VALLEY,ADD,ON,U,82,36,JOL,User,-,"How likely are you to correctly recall the second item in the pair?|Type your response on a scale from 0-100 and then press Enter.",Study/JOL,"Study Phase2",3778,,,3599,3600,,,,0,1
w999716_lnk,lu98cz3p4c,Emily_Honors_Thesis_Part_2,1,278,2020-05-02T13:52:21-07:00,2.9422469139099,10,versionA_stim.csv,RL_JOLVersionB.csv,"RELATIONAL Version B",OLD,ART,LION,ON,U,79,62,JOL,User,-,"How likely are you to correctly recall the second item in the pair?|Type your response on a scale from 0-100 and then press Enter.",Study/JOL,"Study Phase2",2226,,,1663,1908,,,,25,1
w999716_lnk,lu98cz3p4c,Emily_Honors_Thesis_Part_2,1,279,2020-05-02T13:52:25-07:00,3.1482081413269,10,versionA_stim.csv,RL_JOLVersionB.csv,"RELATIONAL Version B",OLD,PLANE,PILOT,ON,B,44,74,JOL,User,-,"How likely are you to correctly recall the second item in the pair?|Type your response on a scale from 0-100 and then press Enter.",Study/JOL,"Study Phase2",2293,,,1725,2101,,,,100,1
w999716_lnk,lu98cz3p4c,Emily_Honors_Thesis_Part_2,1,280,2020-05-02T13:52:27-07:00,2.588917016983,10,versionA_stim.csv,RL_JOLVersionB.csv,"RELATIONAL Version B",OLD,TRIAL,JURY,ON,S,50,21,JOL,User,-,"How likely are you to correctly recall the second item in the pair?|Type your response on a scale from 0-100 and then press Enter.",Study/JOL,"Study Phase2",1851,,,1240,1652,,,,100,1
w999716_lnk,lu98cz3p4c,Emily_Honors_Thesis_Part_2,1,281,2020-05-02T13:52:31-07:00,4.1444430351257,10,versionA_stim.csv,RL_JOLVersionB.csv,"RELATIONAL Version B",OLD,KING,VASE,ON,U,85,55,JOL,User,-,"How likely are you to correctly recall the second item in the pair?|Type your response on a scale from 0-100 and then press Enter.",Study/JOL,"Study Phase2",3433,,,1661,1661,,,,0,1
w999716_lnk,lu98cz3p4c,Emily_Honors_Thesis_Part_2,1,282,2020-05-02T13:52:34-07:00,2.8753128051758,10,versionA_stim.csv,RL_JOLVersionB.csv,"RELATIONAL Version B",OLD,ARTERY,BRONZE,ON,U,74,49,JOL,User,-,"How likely are you to correctly recall the second item in the pair?|Type your response on a scale from 0-100 and then press Enter.",Study/JOL,"Study Phase2",2178,,,1989,1989,,,,0,1
w999716_lnk,lu98cz3p4c,Emily_Honors_Thesis_Part_2,1,283,2020-05-02T13:52:38-07:00,4.11643409729,10,versionA_stim.csv,RL_JOLVersionB.csv,"RELATIONAL Version B",OLD,BITTER,COLD,ON,F,12,37,JOL,User,-,"How likely are you to correctly recall the second item in the pair?|Type your response on a scale from 0-100 and then press Enter.",Study/JOL,"Study Phase2",3368,,,1186,3215,,,,180,1
w999716_lnk,lu98cz3p4c,Emily_Honors_Thesis_Part_2,1,284,2020-05-02T13:52:50-07:00,11.252466917038,10,versionA_stim.csv,RL_JOLVersionB.csv,"RELATIONAL Version B",OLD,ALLOW,TUCK,ON,U,78,50,JOL,User,-,"How likely are you to correctly recall the second item in the pair?|Type your response on a scale from 0-100 and then press Enter.",Study/JOL,"Study Phase2",10528,,,3879,10298,,,,75,1
w999716_lnk,lu98cz3p4c,Emily_Honors_Thesis_Part_2,1,285,2020-05-02T13:52:53-07:00,3.4099910259247,10,versionA_stim.csv,RL_JOLVersionB.csv,"RELATIONAL Version B",OLD,DIGESTION,STOMACH,ON,F,7,40,JOL,User,-,"How likely are you to correctly recall the second item in the pair?|Type your response on a scale from 0-100 and then press Enter.",Study/JOL,"Study Phase2",2694,,,2094,2453,,,,100,1
w999716_lnk,lu98cz3p4c,Emily_Honors_Thesis_Part_2,1,286,2020-05-02T13:52:56-07:00,2.8929870128632,10,versionA_stim.csv,RL_JOLVersionB.csv,"RELATIONAL Version B",OLD,GEESE,GOOSE,Buffer2,Buffer,86,87,JOL,User,-,"How likely are you to correctly recall the second item in the pair?|Type your response on a scale from 0-100 and then press Enter.",Study/JOL,BUFFER4,2186,,,1615,1994,,,,100,1
