Username,ID,ExperimentName,Session,Trial,Date,TimeDif,"Condition Number","Stimuli File","Order File","Condition Description","Condition Notes",Stimuli*Cue,Stimuli*Answer,Stimuli*Shuffle,"Stimuli*Stimuli Notes",Stimuli*Value,Procedure*Item,"Procedure*Trial Type","Procedure*Max Time","Procedure*Min Time",Procedure*Text,"Procedure*Procedure Notes",Procedure*Shuffle,Response*RT,Response*Response,Response*Accuracy,Response*RTfirst,Response*RTlast,Response*strictAcc,Response*lenientAcc,Response*focus,Response*JOL,Response*Focus
4654654,puycswwew5,Emily_Honors_Thesis_Part_2,1,1,2020-03-25T15:54:10+00:00,12.718940019608,13,versionA_stim_BACKWARD.csv,BACKWARD_READ_JOLVersionA.csv,"BACKWARD READ VERSION A",NEW,,,,,,0,Instruct,-,10,"In this section, you will be presented with a series of word pairs. As you study, you will be asked to rate your ability to remember the second item in the pair if you were only shown the first at test. You will make these ratings using a 0 to 100 Scale.",,Instruct13,12543,,,-1,-1,,,,,1
4654654,puycswwew5,Emily_Honors_Thesis_Part_2,1,2,2020-03-25T15:54:29+00:00,19.000299930573,13,versionA_stim_BACKWARD.csv,BACKWARD_READ_JOLVersionA.csv,"BACKWARD READ VERSION A",NEW,,,,,,0,Instruct,-,10,"For example, if you are given the pair CAT - DOG, a rating of 0 indicates that you would not remember DOG at test, while a rating of 100 indicates full certainty that you would remember the word DOG at test.",,Instruct14,18777,,,-1,-1,,,,,0.711
4654654,puycswwew5,Emily_Honors_Thesis_Part_2,1,3,2020-03-25T15:54:40+00:00,11.575581073761,13,versionA_stim_BACKWARD.csv,BACKWARD_READ_JOLVersionA.csv,"BACKWARD READ VERSION A",NEW,,,,,,0,Instruct,-,10,"When making your ratings, it is criticial that you use the full range of the scale. You will be disqualified for only giving ratings of 0 or 100! After making your rating, press Enter to advance to the next pair.",,Instruct15,11379,,,-1,-1,,,,,1
4654654,puycswwew5,Emily_Honors_Thesis_Part_2,1,4,2020-03-25T15:54:47+00:00,6.2759640216827,13,versionA_stim_BACKWARD.csv,BACKWARD_READ_JOLVersionA.csv,"BACKWARD READ VERSION A",NEW,,,,,,0,Instruct,-,5,"You will now complete a practice session. Please study the following items and rate your ability to remember them.",,Instruct17,6092,,,-1,-1,,,,,1
4654654,puycswwew5,Emily_Honors_Thesis_Part_2,1,5,2020-03-25T15:54:48+00:00,1.3594019412994,13,versionA_stim_BACKWARD.csv,BACKWARD_READ_JOLVersionA.csv,"BACKWARD READ VERSION A",NEW,HINGE,SWING,PRACTICE,PRACTICE,185,186,JOL,User,-,"How likely are you to correctly recall the items below?|Type your response on a scale from 0-100 and then press Enter.",Study/JOL,PRACTICE,1183,,,-1,-1,,,,,1
4654654,puycswwew5,Emily_Honors_Thesis_Part_2,1,6,2020-03-25T15:54:49+00:00,0.68441295623779,13,versionA_stim_BACKWARD.csv,BACKWARD_READ_JOLVersionA.csv,"BACKWARD READ VERSION A",NEW,HAM,BONE,PRACTICE,PRACTICE,183,184,JOL,User,-,"How likely are you to correctly recall the items below?|Type your response on a scale from 0-100 and then press Enter.",Study/JOL,PRACTICE,491,,,-1,-1,,,,,1
4654654,puycswwew5,Emily_Honors_Thesis_Part_2,1,7,2020-03-25T15:54:49+00:00,0.50551700592041,13,versionA_stim_BACKWARD.csv,BACKWARD_READ_JOLVersionA.csv,"BACKWARD READ VERSION A",NEW,BEHAVIOR,SOCIAL,PRACTICE,PRACTICE,189,185,JOL,User,-,"How likely are you to correctly recall the items below?|Type your response on a scale from 0-100 and then press Enter.",Study/JOL,PRACTICE,318,,,-1,-1,,,,,1
4654654,puycswwew5,Emily_Honors_Thesis_Part_2,1,8,2020-03-25T15:54:50+00:00,0.63489603996277,13,versionA_stim_BACKWARD.csv,BACKWARD_READ_JOLVersionA.csv,"BACKWARD READ VERSION A",NEW,DEAF,MUTE,PRACTICE,PRACTICE,182,187,JOL,User,-,"How likely are you to correctly recall the items below?|Type your response on a scale from 0-100 and then press Enter.",Study/JOL,PRACTICE,441,,,-1,-1,,,,,1
4654654,puycswwew5,Emily_Honors_Thesis_Part_2,1,9,2020-03-25T15:54:50+00:00,0.49763107299805,13,versionA_stim_BACKWARD.csv,BACKWARD_READ_JOLVersionA.csv,"BACKWARD READ VERSION A",NEW,AARDVARK,ZOO,PRACTICE,PRACTICE,181,182,JOL,User,-,"How likely are you to correctly recall the items below?|Type your response on a scale from 0-100 and then press Enter.",Study/JOL,PRACTICE,308,,,-1,-1,,,,,1
4654654,puycswwew5,Emily_Honors_Thesis_Part_2,1,10,2020-03-25T15:54:51+00:00,0.48494505882263,13,versionA_stim_BACKWARD.csv,BACKWARD_READ_JOLVersionA.csv,"BACKWARD READ VERSION A",NEW,CHOCOLATE,BAR,PRACTICE,PRACTICE,187,183,JOL,User,-,"How likely are you to correctly recall the items below?|Type your response on a scale from 0-100 and then press Enter.",Study/JOL,PRACTICE,301,,,-1,-1,,,,,1
4654654,puycswwew5,Emily_Honors_Thesis_Part_2,1,11,2020-03-25T15:54:52+00:00,0.68388199806213,13,versionA_stim_BACKWARD.csv,BACKWARD_READ_JOLVersionA.csv,"BACKWARD READ VERSION A",NEW,FASHION,MODEL,PRACTICE,PRACTICE,190,190,JOL,User,-,"How likely are you to correctly recall the items below?|Type your response on a scale from 0-100 and then press Enter.",Study/JOL,PRACTICE,469,,,-1,-1,,,,,1
4654654,puycswwew5,Emily_Honors_Thesis_Part_2,1,12,2020-03-25T15:54:52+00:00,0.64876103401184,13,versionA_stim_BACKWARD.csv,BACKWARD_READ_JOLVersionA.csv,"BACKWARD READ VERSION A",NEW,PADDLE,ROW,PRACTICE,PRACTICE,184,189,JOL,User,-,"How likely are you to correctly recall the items below?|Type your response on a scale from 0-100 and then press Enter.",Study/JOL,PRACTICE,460,,,-1,-1,,,,,1
4654654,puycswwew5,Emily_Honors_Thesis_Part_2,1,13,2020-03-25T15:54:53+00:00,0.59116888046265,13,versionA_stim_BACKWARD.csv,BACKWARD_READ_JOLVersionA.csv,"BACKWARD READ VERSION A",NEW,DISBELIEVE,SKEPTIC,PRACTICE,PRACTICE,186,191,JOL,User,-,"How likely are you to correctly recall the items below?|Type your response on a scale from 0-100 and then press Enter.",Study/JOL,PRACTICE,403,,,-1,-1,,,,,1
4654654,puycswwew5,Emily_Honors_Thesis_Part_2,1,14,2020-03-25T15:54:54+00:00,0.653559923172,13,versionA_stim_BACKWARD.csv,BACKWARD_READ_JOLVersionA.csv,"BACKWARD READ VERSION A",NEW,CHIME,MUSIC,PRACTICE,PRACTICE,188,188,JOL,User,-,"How likely are you to correctly recall the items below?|Type your response on a scale from 0-100 and then press Enter.",Study/JOL,PRACTICE,459,,,-1,-1,,,,,1
4654654,puycswwew5,Emily_Honors_Thesis_Part_2,1,15,2020-03-25T15:54:54+00:00,0.82245302200317,13,versionA_stim_BACKWARD.csv,BACKWARD_READ_JOLVersionA.csv,"BACKWARD READ VERSION A",NEW,,,,,,0,Instruct,User,-,"You have completed this section. Please press Enter to continue.",,Instruct18,615,,,-1,-1,,,,,1
4654654,puycswwew5,Emily_Honors_Thesis_Part_2,1,16,2020-03-25T15:54:55+00:00,0.88775897026062,13,versionA_stim_BACKWARD.csv,BACKWARD_READ_JOLVersionA.csv,"BACKWARD READ VERSION A",NEW,,,,,,0,Instruct,User,-,"You will now begin the study. Press Enter when you are ready to begin.",,Instruct16,656,,,-1,-1,,,,,1
4654654,puycswwew5,Emily_Honors_Thesis_Part_2,1,17,2020-03-25T15:54:56+00:00,0.92792105674744,13,versionA_stim_BACKWARD.csv,BACKWARD_READ_JOLVersionA.csv,"BACKWARD READ VERSION A",NEW,PEANUT,BUTTER,Buffer,Buffer,3,2,JOL,User,-,"How likely are you to correctly recall the items below?|Type your response on a scale from 0-100 and then press Enter.",Study/JOL,BUFFER,728,,,-1,-1,,,,,1
4654654,puycswwew5,Emily_Honors_Thesis_Part_2,1,18,2020-03-25T15:54:57+00:00,0.43142700195312,13,versionA_stim_BACKWARD.csv,BACKWARD_READ_JOLVersionA.csv,"BACKWARD READ VERSION A",NEW,SCARE,HIDE,Buffer,Buffer,4,6,JOL,User,-,"How likely are you to correctly recall the items below?|Type your response on a scale from 0-100 and then press Enter.",Study/JOL,BUFFER,228,,,-1,-1,,,,,1
4654654,puycswwew5,Emily_Honors_Thesis_Part_2,1,19,2020-03-25T15:54:57+00:00,0.34795999526978,13,versionA_stim_BACKWARD.csv,BACKWARD_READ_JOLVersionA.csv,"BACKWARD READ VERSION A",NEW,SPACE,JAM,Buffer,Buffer,5,4,JOL,User,-,"How likely are you to correctly recall the items below?|Type your response on a scale from 0-100 and then press Enter.",Study/JOL,BUFFER,160,,,-1,-1,,,,,1
4654654,puycswwew5,Emily_Honors_Thesis_Part_2,1,20,2020-03-25T15:54:57+00:00,0.40357613563538,13,versionA_stim_BACKWARD.csv,BACKWARD_READ_JOLVersionA.csv,"BACKWARD READ VERSION A",NEW,BASEBALL,CATCHER,Buffer,Buffer,2,5,JOL,User,-,"How likely are you to correctly recall the items below?|Type your response on a scale from 0-100 and then press Enter.",Study/JOL,BUFFER,207,,,-1,-1,,,,,1
4654654,puycswwew5,Emily_Honors_Thesis_Part_2,1,21,2020-03-25T15:54:58+00:00,0.76505303382874,13,versionA_stim_BACKWARD.csv,BACKWARD_READ_JOLVersionA.csv,"BACKWARD READ VERSION A",NEW,TREES,GREEN,Buffer,Buffer,1,3,JOL,User,-,"How likely are you to correctly recall the items below?|Type your response on a scale from 0-100 and then press Enter.",Study/JOL,BUFFER,532,,,-1,-1,,,,,1
4654654,puycswwew5,Emily_Honors_Thesis_Part_2,1,22,2020-03-25T15:54:59+00:00,0.75341391563416,13,versionA_stim_BACKWARD.csv,BACKWARD_READ_JOLVersionA.csv,"BACKWARD READ VERSION A",NEW,BUG,WASP,ON,B,32,33,JOL,User,-,"How likely are you to correctly recall the items below?|Type your response on a scale from 0-100 and then press Enter.",Study/JOL,"Study Phase",546,,,-1,-1,,,,,1
4654654,puycswwew5,Emily_Honors_Thesis_Part_2,1,23,2020-03-25T15:54:59+00:00,0.32648706436157,13,versionA_stim_BACKWARD.csv,BACKWARD_READ_JOLVersionA.csv,"BACKWARD READ VERSION A",NEW,FIX,HAND,ON,U,75,26,JOL,User,-,"How likely are you to correctly recall the items below?|Type your response on a scale from 0-100 and then press Enter.",Study/JOL,"Study Phase",143,,,-1,-1,,,,,1
4654654,puycswwew5,Emily_Honors_Thesis_Part_2,1,24,2020-03-25T15:54:59+00:00,0.30363798141479,13,versionA_stim_BACKWARD.csv,BACKWARD_READ_JOLVersionA.csv,"BACKWARD READ VERSION A",NEW,TAKE,SEIZE,ON,B,29,62,JOL,User,-,"How likely are you to correctly recall the items below?|Type your response on a scale from 0-100 and then press Enter.",Study/JOL,"Study Phase",101,,,-1,-1,,,,,1
4654654,puycswwew5,Emily_Honors_Thesis_Part_2,1,25,2020-03-25T15:55:00+00:00,0.30257487297058,13,versionA_stim_BACKWARD.csv,BACKWARD_READ_JOLVersionA.csv,"BACKWARD READ VERSION A",NEW,TUNA,FISH,ON,F,25,14,JOL,User,-,"How likely are you to correctly recall the items below?|Type your response on a scale from 0-100 and then press Enter.",Study/JOL,"Study Phase",48,,,-1,-1,,,,,1
4654654,puycswwew5,Emily_Honors_Thesis_Part_2,1,26,2020-03-25T15:55:00+00:00,0.4814760684967,13,versionA_stim_BACKWARD.csv,BACKWARD_READ_JOLVersionA.csv,"BACKWARD READ VERSION A",NEW,DARK,CAVE,ON,B,28,7,JOL,User,-,"How likely are you to correctly recall the items below?|Type your response on a scale from 0-100 and then press Enter.",Study/JOL,"Study Phase",280,,,-1,-1,,,,,1
4654654,puycswwew5,Emily_Honors_Thesis_Part_2,1,27,2020-03-25T15:55:01+00:00,0.38154792785645,13,versionA_stim_BACKWARD.csv,BACKWARD_READ_JOLVersionA.csv,"BACKWARD READ VERSION A",NEW,HONEY,BEE,ON,S,63,25,JOL,User,-,"How likely are you to correctly recall the items below?|Type your response on a scale from 0-100 and then press Enter.",Study/JOL,"Study Phase",172,,,-1,-1,,,,,1
4654654,puycswwew5,Emily_Honors_Thesis_Part_2,1,28,2020-03-25T15:55:01+00:00,0.54694294929504,13,versionA_stim_BACKWARD.csv,BACKWARD_READ_JOLVersionA.csv,"BACKWARD READ VERSION A",NEW,PARK,HUNGRY,ON,U,68,82,JOL,User,-,"How likely are you to correctly recall the items below?|Type your response on a scale from 0-100 and then press Enter.",Study/JOL,"Study Phase",294,,,-1,-1,,,,,1
4654654,puycswwew5,Emily_Honors_Thesis_Part_2,1,29,2020-03-25T15:55:02+00:00,0.32764506340027,13,versionA_stim_BACKWARD.csv,BACKWARD_READ_JOLVersionA.csv,"BACKWARD READ VERSION A",NEW,DEATH,BUSINESS,ON,U,72,18,JOL,User,-,"How likely are you to correctly recall the items below?|Type your response on a scale from 0-100 and then press Enter.",Study/JOL,"Study Phase",94,,,-1,-1,,,,,1
4654654,puycswwew5,Emily_Honors_Thesis_Part_2,1,30,2020-03-25T15:55:02+00:00,0.41216993331909,13,versionA_stim_BACKWARD.csv,BACKWARD_READ_JOLVersionA.csv,"BACKWARD READ VERSION A",NEW,DRINK,SIP,ON,B,27,45,JOL,User,-,"How likely are you to correctly recall the items below?|Type your response on a scale from 0-100 and then press Enter.",Study/JOL,"Study Phase",199,,,-1,-1,,,,,1
4654654,puycswwew5,Emily_Honors_Thesis_Part_2,1,31,2020-03-25T15:55:02+00:00,0.40567803382874,13,versionA_stim_BACKWARD.csv,BACKWARD_READ_JOLVersionA.csv,"BACKWARD READ VERSION A",NEW,KEY,LATCH,ON,B,36,11,JOL,User,-,"How likely are you to correctly recall the items below?|Type your response on a scale from 0-100 and then press Enter.",Study/JOL,"Study Phase",190,,,-1,-1,,,,,1
4654654,puycswwew5,Emily_Honors_Thesis_Part_2,1,32,2020-03-25T15:55:03+00:00,0.34305715560913,13,versionA_stim_BACKWARD.csv,BACKWARD_READ_JOLVersionA.csv,"BACKWARD READ VERSION A",NEW,CASH,WOULD,ON,U,83,75,JOL,User,-,"How likely are you to correctly recall the items below?|Type your response on a scale from 0-100 and then press Enter.",Study/JOL,"Study Phase",94,,,-1,-1,,,,,1
4654654,puycswwew5,Emily_Honors_Thesis_Part_2,1,33,2020-03-25T15:55:03+00:00,0.47355198860168,13,versionA_stim_BACKWARD.csv,BACKWARD_READ_JOLVersionA.csv,"BACKWARD READ VERSION A",NEW,CLOTHES,ATTIRE,ON,B,43,80,JOL,User,-,"How likely are you to correctly recall the items below?|Type your response on a scale from 0-100 and then press Enter.",Study/JOL,"Study Phase",297,,,-1,-1,,,,,1
4654654,puycswwew5,Emily_Honors_Thesis_Part_2,1,34,2020-03-25T15:55:04+00:00,0.37633085250854,13,versionA_stim_BACKWARD.csv,BACKWARD_READ_JOLVersionA.csv,"BACKWARD READ VERSION A",NEW,PLANE,PILOT,ON,B,44,23,JOL,User,-,"How likely are you to correctly recall the items below?|Type your response on a scale from 0-100 and then press Enter.",Study/JOL,"Study Phase",163,,,-1,-1,,,,,1
4654654,puycswwew5,Emily_Honors_Thesis_Part_2,1,35,2020-03-25T15:55:10+00:00,6.0809299945831,13,versionA_stim_BACKWARD.csv,BACKWARD_READ_JOLVersionA.csv,"BACKWARD READ VERSION A",NEW,EDITOR,NEWS,ON,F,10,41,JOL,User,-,"How likely are you to correctly recall the items below?|Type your response on a scale from 0-100 and then press Enter.",Study/JOL,"Study Phase",5899,,,-1,-1,,,,,1
4654654,puycswwew5,Emily_Honors_Thesis_Part_2,1,36,2020-03-25T15:55:10+00:00,0.48607206344604,13,versionA_stim_BACKWARD.csv,BACKWARD_READ_JOLVersionA.csv,"BACKWARD READ VERSION A",NEW,SUGAR,RIDDLE,ON,U,81,15,JOL,User,-,"How likely are you to correctly recall the items below?|Type your response on a scale from 0-100 and then press Enter.",Study/JOL,"Study Phase",290,,,-1,-1,,,,,1
4654654,puycswwew5,Emily_Honors_Thesis_Part_2,1,37,2020-03-25T15:55:11+00:00,0.52653694152832,13,versionA_stim_BACKWARD.csv,BACKWARD_READ_JOLVersionA.csv,"BACKWARD READ VERSION A",NEW,SLEEP,DROWSY,ON,B,41,60,JOL,User,-,"How likely are you to correctly recall the items below?|Type your response on a scale from 0-100 and then press Enter.",Study/JOL,"Study Phase",333,,,-1,-1,,,,,1
4654654,puycswwew5,Emily_Honors_Thesis_Part_2,1,38,2020-03-25T15:55:11+00:00,0.34939312934875,13,versionA_stim_BACKWARD.csv,BACKWARD_READ_JOLVersionA.csv,"BACKWARD READ VERSION A",NEW,HAPPY,CAR,ON,U,77,29,JOL,User,-,"How likely are you to correctly recall the items below?|Type your response on a scale from 0-100 and then press Enter.",Study/JOL,"Study Phase",125,,,-1,-1,,,,,1
4654654,puycswwew5,Emily_Honors_Thesis_Part_2,1,39,2020-03-25T15:55:11+00:00,0.4447329044342,13,versionA_stim_BACKWARD.csv,BACKWARD_READ_JOLVersionA.csv,"BACKWARD READ VERSION A",NEW,HUNGER,FAMINE,ON,B,40,13,JOL,User,-,"How likely are you to correctly recall the items below?|Type your response on a scale from 0-100 and then press Enter.",Study/JOL,"Study Phase",225,,,-1,-1,,,,,1
4654654,puycswwew5,Emily_Honors_Thesis_Part_2,1,40,2020-03-25T15:55:12+00:00,0.37685203552246,13,versionA_stim_BACKWARD.csv,BACKWARD_READ_JOLVersionA.csv,"BACKWARD READ VERSION A",NEW,BATHROOM,TOILET,ON,S,58,21,JOL,User,-,"How likely are you to correctly recall the items below?|Type your response on a scale from 0-100 and then press Enter.",Study/JOL,"Study Phase",167,,,-1,-1,,,,,1
4654654,puycswwew5,Emily_Honors_Thesis_Part_2,1,41,2020-03-25T15:55:12+00:00,0.43753004074097,13,versionA_stim_BACKWARD.csv,BACKWARD_READ_JOLVersionA.csv,"BACKWARD READ VERSION A",NEW,WAGE,MONEY,ON,F,8,48,JOL,User,-,"How likely are you to correctly recall the items below?|Type your response on a scale from 0-100 and then press Enter.",Study/JOL,"Study Phase",260,,,-1,-1,,,,,1
4654654,puycswwew5,Emily_Honors_Thesis_Part_2,1,42,2020-03-25T15:55:13+00:00,0.39806485176086,13,versionA_stim_BACKWARD.csv,BACKWARD_READ_JOLVersionA.csv,"BACKWARD READ VERSION A",NEW,PAW,DOG,ON,F,15,58,JOL,User,-,"How likely are you to correctly recall the items below?|Type your response on a scale from 0-100 and then press Enter.",Study/JOL,"Study Phase",200,,,-1,-1,,,,,1
4654654,puycswwew5,Emily_Honors_Thesis_Part_2,1,43,2020-03-25T15:55:13+00:00,0.45423316955566,13,versionA_stim_BACKWARD.csv,BACKWARD_READ_JOLVersionA.csv,"BACKWARD READ VERSION A",NEW,KING,VASE,ON,U,85,39,JOL,User,-,"How likely are you to correctly recall the items below?|Type your response on a scale from 0-100 and then press Enter.",Study/JOL,"Study Phase",261,,,-1,-1,,,,,1
4654654,puycswwew5,Emily_Honors_Thesis_Part_2,1,44,2020-03-25T15:55:14+00:00,0.44549989700317,13,versionA_stim_BACKWARD.csv,BACKWARD_READ_JOLVersionA.csv,"BACKWARD READ VERSION A",NEW,NUMBER,AMOUNT,ON,S,47,10,JOL,User,-,"How likely are you to correctly recall the items below?|Type your response on a scale from 0-100 and then press Enter.",Study/JOL,"Study Phase",243,,,-1,-1,,,,,1
4654654,puycswwew5,Emily_Honors_Thesis_Part_2,1,45,2020-03-25T15:55:14+00:00,0.38230800628662,13,versionA_stim_BACKWARD.csv,BACKWARD_READ_JOLVersionA.csv,"BACKWARD READ VERSION A",NEW,LETTUCE,SALAD,ON,S,59,53,JOL,User,-,"How likely are you to correctly recall the items below?|Type your response on a scale from 0-100 and then press Enter.",Study/JOL,"Study Phase",193,,,-1,-1,,,,,1
4654654,puycswwew5,Emily_Honors_Thesis_Part_2,1,46,2020-03-25T15:55:14+00:00,0.46084094047546,13,versionA_stim_BACKWARD.csv,BACKWARD_READ_JOLVersionA.csv,"BACKWARD READ VERSION A",NEW,HEIGHT,GROWTH,ON,B,30,35,JOL,User,-,"How likely are you to correctly recall the items below?|Type your response on a scale from 0-100 and then press Enter.",Study/JOL,"Study Phase",276,,,-1,-1,,,,,1
4654654,puycswwew5,Emily_Honors_Thesis_Part_2,1,47,2020-03-25T15:55:15+00:00,0.36124610900879,13,versionA_stim_BACKWARD.csv,BACKWARD_READ_JOLVersionA.csv,"BACKWARD READ VERSION A",NEW,ARCHITECTURE,DESIGN,ON,S,51,22,JOL,User,-,"How likely are you to correctly recall the items below?|Type your response on a scale from 0-100 and then press Enter.",Study/JOL,"Study Phase",115,,,-1,-1,,,,,1
4654654,puycswwew5,Emily_Honors_Thesis_Part_2,1,48,2020-03-25T15:55:15+00:00,0.36139297485352,13,versionA_stim_BACKWARD.csv,BACKWARD_READ_JOLVersionA.csv,"BACKWARD READ VERSION A",NEW,CHISEL,HAMMER,ON,F,9,42,JOL,User,-,"How likely are you to correctly recall the items below?|Type your response on a scale from 0-100 and then press Enter.",Study/JOL,"Study Phase",146,,,-1,-1,,,,,1
4654654,puycswwew5,Emily_Honors_Thesis_Part_2,1,49,2020-03-25T15:55:15+00:00,0.38873696327209,13,versionA_stim_BACKWARD.csv,BACKWARD_READ_JOLVersionA.csv,"BACKWARD READ VERSION A",NEW,LIFT,WOMAN,ON,U,69,66,JOL,User,-,"How likely are you to correctly recall the items below?|Type your response on a scale from 0-100 and then press Enter.",Study/JOL,"Study Phase",166,,,-1,-1,,,,,1
4654654,puycswwew5,Emily_Honors_Thesis_Part_2,1,50,2020-03-25T15:55:16+00:00,0.38734698295593,13,versionA_stim_BACKWARD.csv,BACKWARD_READ_JOLVersionA.csv,"BACKWARD READ VERSION A",NEW,CREDIT,CARD,ON,F,23,79,JOL,User,-,"How likely are you to correctly recall the items below?|Type your response on a scale from 0-100 and then press Enter.",Study/JOL,"Study Phase",125,,,-1,-1,,,,,1
4654654,puycswwew5,Emily_Honors_Thesis_Part_2,1,51,2020-03-25T15:55:16+00:00,0.30012512207031,13,versionA_stim_BACKWARD.csv,BACKWARD_READ_JOLVersionA.csv,"BACKWARD READ VERSION A",NEW,MATH,DIVISION,ON,B,33,44,JOL,User,-,"How likely are you to correctly recall the items below?|Type your response on a scale from 0-100 and then press Enter.",Study/JOL,"Study Phase",62,,,-1,-1,,,,,1
4654654,puycswwew5,Emily_Honors_Thesis_Part_2,1,52,2020-03-25T15:55:17+00:00,0.37594485282898,13,versionA_stim_BACKWARD.csv,BACKWARD_READ_JOLVersionA.csv,"BACKWARD READ VERSION A",NEW,GRILL,BAR,ON,S,52,72,JOL,User,-,"How likely are you to correctly recall the items below?|Type your response on a scale from 0-100 and then press Enter.",Study/JOL,"Study Phase",178,,,-1,-1,,,,,1
4654654,puycswwew5,Emily_Honors_Thesis_Part_2,1,53,2020-03-25T15:55:17+00:00,0.30928611755371,13,versionA_stim_BACKWARD.csv,BACKWARD_READ_JOLVersionA.csv,"BACKWARD READ VERSION A",NEW,PAST,FUTURE,ON,S,61,56,JOL,User,-,"How likely are you to correctly recall the items below?|Type your response on a scale from 0-100 and then press Enter.",Study/JOL,"Study Phase",94,,,-1,-1,,,,,1
4654654,puycswwew5,Emily_Honors_Thesis_Part_2,1,54,2020-03-25T15:55:17+00:00,0.35626602172852,13,versionA_stim_BACKWARD.csv,BACKWARD_READ_JOLVersionA.csv,"BACKWARD READ VERSION A",NEW,HORNET,STING,ON,F,11,12,JOL,User,-,"How likely are you to correctly recall the items below?|Type your response on a scale from 0-100 and then press Enter.",Study/JOL,"Study Phase",155,,,-1,-1,,,,,1
4654654,puycswwew5,Emily_Honors_Thesis_Part_2,1,55,2020-03-25T15:55:18+00:00,0.5165319442749,13,versionA_stim_BACKWARD.csv,BACKWARD_READ_JOLVersionA.csv,"BACKWARD READ VERSION A",NEW,HYGIENE,CLEAN,ON,F,17,50,JOL,User,-,"How likely are you to correctly recall the items below?|Type your response on a scale from 0-100 and then press Enter.",Study/JOL,"Study Phase",311,,,-1,-1,,,,,1
4654654,puycswwew5,Emily_Honors_Thesis_Part_2,1,56,2020-03-25T15:55:18+00:00,0.34140992164612,13,versionA_stim_BACKWARD.csv,BACKWARD_READ_JOLVersionA.csv,"BACKWARD READ VERSION A",NEW,STRONG,ACCIDENT,ON,U,80,51,JOL,User,-,"How likely are you to correctly recall the items below?|Type your response on a scale from 0-100 and then press Enter.",Study/JOL,"Study Phase",142,,,-1,-1,,,,,1
4654654,puycswwew5,Emily_Honors_Thesis_Part_2,1,57,2020-03-25T15:55:18+00:00,0.36433005332947,13,versionA_stim_BACKWARD.csv,BACKWARD_READ_JOLVersionA.csv,"BACKWARD READ VERSION A",NEW,ROOT,PLANT,ON,F,13,49,JOL,User,-,"How likely are you to correctly recall the items below?|Type your response on a scale from 0-100 and then press Enter.",Study/JOL,"Study Phase",109,,,-1,-1,,,,,1
4654654,puycswwew5,Emily_Honors_Thesis_Part_2,1,58,2020-03-25T15:55:19+00:00,0.34641814231873,13,versionA_stim_BACKWARD.csv,BACKWARD_READ_JOLVersionA.csv,"BACKWARD READ VERSION A",NEW,WINE,CHEESE,ON,S,57,24,JOL,User,-,"How likely are you to correctly recall the items below?|Type your response on a scale from 0-100 and then press Enter.",Study/JOL,"Study Phase",86,,,-1,-1,,,,,1
4654654,puycswwew5,Emily_Honors_Thesis_Part_2,1,59,2020-03-25T15:55:19+00:00,0.38177084922791,13,versionA_stim_BACKWARD.csv,BACKWARD_READ_JOLVersionA.csv,"BACKWARD READ VERSION A",NEW,SMELL,STENCH,ON,B,42,43,JOL,User,-,"How likely are you to correctly recall the items below?|Type your response on a scale from 0-100 and then press Enter.",Study/JOL,"Study Phase",161,,,-1,-1,,,,,1
4654654,puycswwew5,Emily_Honors_Thesis_Part_2,1,60,2020-03-25T15:55:20+00:00,0.369549036026,13,versionA_stim_BACKWARD.csv,BACKWARD_READ_JOLVersionA.csv,"BACKWARD READ VERSION A",NEW,DUMP,WASTE,ON,S,49,28,JOL,User,-,"How likely are you to correctly recall the items below?|Type your response on a scale from 0-100 and then press Enter.",Study/JOL,"Study Phase",147,,,-1,-1,,,,,1
4654654,puycswwew5,Emily_Honors_Thesis_Part_2,1,61,2020-03-25T15:55:20+00:00,0.4642391204834,13,versionA_stim_BACKWARD.csv,BACKWARD_READ_JOLVersionA.csv,"BACKWARD READ VERSION A",NEW,DISCOVER,FLOOR,ON,U,71,46,JOL,User,-,"How likely are you to correctly recall the items below?|Type your response on a scale from 0-100 and then press Enter.",Study/JOL,"Study Phase",237,,,-1,-1,,,,,1
4654654,puycswwew5,Emily_Honors_Thesis_Part_2,1,62,2020-03-25T15:55:20+00:00,0.42363882064819,13,versionA_stim_BACKWARD.csv,BACKWARD_READ_JOLVersionA.csv,"BACKWARD READ VERSION A",NEW,KIDNEY,LIVER,ON,S,53,8,JOL,User,-,"How likely are you to correctly recall the items below?|Type your response on a scale from 0-100 and then press Enter.",Study/JOL,"Study Phase",150,,,-1,-1,,,,,1
4654654,puycswwew5,Emily_Honors_Thesis_Part_2,1,63,2020-03-25T15:55:21+00:00,0.85716795921326,13,versionA_stim_BACKWARD.csv,BACKWARD_READ_JOLVersionA.csv,"BACKWARD READ VERSION A",NEW,ART,LION,ON,U,79,64,JOL,User,-,"How likely are you to correctly recall the items below?|Type your response on a scale from 0-100 and then press Enter.",Study/JOL,"Study Phase",658,,,-1,-1,,,,,1
4654654,puycswwew5,Emily_Honors_Thesis_Part_2,1,64,2020-03-25T15:55:22+00:00,0.46377110481262,13,versionA_stim_BACKWARD.csv,BACKWARD_READ_JOLVersionA.csv,"BACKWARD READ VERSION A",NEW,GREAT,FANTASTIC,ON,B,35,70,JOL,User,-,"How likely are you to correctly recall the items below?|Type your response on a scale from 0-100 and then press Enter.",Study/JOL,"Study Phase",265,,,-1,-1,,,,,1
4654654,puycswwew5,Emily_Honors_Thesis_Part_2,1,65,2020-03-25T15:55:22+00:00,0.40102100372314,13,versionA_stim_BACKWARD.csv,BACKWARD_READ_JOLVersionA.csv,"BACKWARD READ VERSION A",NEW,PUSHER,CLUTTER,ON,U,66,19,JOL,User,-,"How likely are you to correctly recall the items below?|Type your response on a scale from 0-100 and then press Enter.",Study/JOL,"Study Phase",205,,,-1,-1,,,,,1
4654654,puycswwew5,Emily_Honors_Thesis_Part_2,1,66,2020-03-25T15:55:22+00:00,0.34088397026062,13,versionA_stim_BACKWARD.csv,BACKWARD_READ_JOLVersionA.csv,"BACKWARD READ VERSION A",NEW,SOON,BELT,ON,U,70,78,JOL,User,-,"How likely are you to correctly recall the items below?|Type your response on a scale from 0-100 and then press Enter.",Study/JOL,"Study Phase",141,,,-1,-1,,,,,1
4654654,puycswwew5,Emily_Honors_Thesis_Part_2,1,67,2020-03-25T15:55:23+00:00,0.60974407196045,13,versionA_stim_BACKWARD.csv,BACKWARD_READ_JOLVersionA.csv,"BACKWARD READ VERSION A",NEW,DEBATE,SIGHT,ON,U,73,9,JOL,User,-,"How likely are you to correctly recall the items below?|Type your response on a scale from 0-100 and then press Enter.",Study/JOL,"Study Phase",405,,,-1,-1,,,,,1
4654654,puycswwew5,Emily_Honors_Thesis_Part_2,1,68,2020-03-25T15:55:23+00:00,0.37566590309143,13,versionA_stim_BACKWARD.csv,BACKWARD_READ_JOLVersionA.csv,"BACKWARD READ VERSION A",NEW,MACHINE,POSITION,ON,U,76,55,JOL,User,-,"How likely are you to correctly recall the items below?|Type your response on a scale from 0-100 and then press Enter.",Study/JOL,"Study Phase",165,,,-1,-1,,,,,1
4654654,puycswwew5,Emily_Honors_Thesis_Part_2,1,69,2020-03-25T15:55:24+00:00,0.30490803718567,13,versionA_stim_BACKWARD.csv,BACKWARD_READ_JOLVersionA.csv,"BACKWARD READ VERSION A",NEW,ALLOW,TUCK,ON,U,78,63,JOL,User,-,"How likely are you to correctly recall the items below?|Type your response on a scale from 0-100 and then press Enter.",Study/JOL,"Study Phase",74,,,-1,-1,,,,,1
4654654,puycswwew5,Emily_Honors_Thesis_Part_2,1,70,2020-03-25T15:55:25+00:00,0.77461910247803,13,versionA_stim_BACKWARD.csv,BACKWARD_READ_JOLVersionA.csv,"BACKWARD READ VERSION A",NEW,CIRCLE,ROUND,ON,S,65,61,JOL,User,-,"How likely are you to correctly recall the items below?|Type your response on a scale from 0-100 and then press Enter.",Study/JOL,"Study Phase",557,,,-1,-1,,,,,1
4654654,puycswwew5,Emily_Honors_Thesis_Part_2,1,71,2020-03-25T15:55:25+00:00,0.66175889968872,13,versionA_stim_BACKWARD.csv,BACKWARD_READ_JOLVersionA.csv,"BACKWARD READ VERSION A",NEW,REVOLUTION,WAR,ON,F,20,40,JOL,User,-,"How likely are you to correctly recall the items below?|Type your response on a scale from 0-100 and then press Enter.",Study/JOL,"Study Phase",448,,,-1,-1,,,,,1
4654654,puycswwew5,Emily_Honors_Thesis_Part_2,1,72,2020-03-25T15:55:26+00:00,0.63008594512939,13,versionA_stim_BACKWARD.csv,BACKWARD_READ_JOLVersionA.csv,"BACKWARD READ VERSION A",NEW,DUE,ASSIGNMENT,ON,S,46,57,JOL,User,-,"How likely are you to correctly recall the items below?|Type your response on a scale from 0-100 and then press Enter.",Study/JOL,"Study Phase",440,,,-1,-1,,,,,1
4654654,puycswwew5,Emily_Honors_Thesis_Part_2,1,73,2020-03-25T15:55:26+00:00,0.39215397834778,13,versionA_stim_BACKWARD.csv,BACKWARD_READ_JOLVersionA.csv,"BACKWARD READ VERSION A",NEW,BEGIN,END,ON,S,54,38,JOL,User,-,"How likely are you to correctly recall the items below?|Type your response on a scale from 0-100 and then press Enter.",Study/JOL,"Study Phase",217,,,-1,-1,,,,,1
4654654,puycswwew5,Emily_Honors_Thesis_Part_2,1,74,2020-03-25T15:55:27+00:00,0.74762511253357,13,versionA_stim_BACKWARD.csv,BACKWARD_READ_JOLVersionA.csv,"BACKWARD READ VERSION A",NEW,WAY,OUT,ON,F,16,84,JOL,User,-,"How likely are you to correctly recall the items below?|Type your response on a scale from 0-100 and then press Enter.",Study/JOL,"Study Phase",559,,,-1,-1,,,,,1
4654654,puycswwew5,Emily_Honors_Thesis_Part_2,1,75,2020-03-25T15:55:28+00:00,0.70468902587891,13,versionA_stim_BACKWARD.csv,BACKWARD_READ_JOLVersionA.csv,"BACKWARD READ VERSION A",NEW,ORCHID,FLOWER,ON,F,24,71,JOL,User,-,"How likely are you to correctly recall the items below?|Type your response on a scale from 0-100 and then press Enter.",Study/JOL,"Study Phase",512,,,-1,-1,,,,,1
4654654,puycswwew5,Emily_Honors_Thesis_Part_2,1,76,2020-03-25T15:55:28+00:00,0.45102906227112,13,versionA_stim_BACKWARD.csv,BACKWARD_READ_JOLVersionA.csv,"BACKWARD READ VERSION A",NEW,BRIDGE,WATER,ON,F,18,47,JOL,User,-,"How likely are you to correctly recall the items below?|Type your response on a scale from 0-100 and then press Enter.",Study/JOL,"Study Phase",243,,,-1,-1,,,,,1
4654654,puycswwew5,Emily_Honors_Thesis_Part_2,1,77,2020-03-25T15:55:29+00:00,0.7943549156189,13,versionA_stim_BACKWARD.csv,BACKWARD_READ_JOLVersionA.csv,"BACKWARD READ VERSION A",NEW,POP,SODA,ON,S,56,27,JOL,User,-,"How likely are you to correctly recall the items below?|Type your response on a scale from 0-100 and then press Enter.",Study/JOL,"Study Phase",468,,,-1,-1,,,,,1
4654654,puycswwew5,Emily_Honors_Thesis_Part_2,1,78,2020-03-25T15:55:29+00:00,0.32710695266724,13,versionA_stim_BACKWARD.csv,BACKWARD_READ_JOLVersionA.csv,"BACKWARD READ VERSION A",NEW,BALL,RACKET,ON,B,38,34,JOL,User,-,"How likely are you to correctly recall the items below?|Type your response on a scale from 0-100 and then press Enter.",Study/JOL,"Study Phase",114,,,-1,-1,,,,,1
4654654,puycswwew5,Emily_Honors_Thesis_Part_2,1,79,2020-03-25T15:55:30+00:00,0.44230604171753,13,versionA_stim_BACKWARD.csv,BACKWARD_READ_JOLVersionA.csv,"BACKWARD READ VERSION A",NEW,LAW,ATTORNEY,ON,B,34,37,JOL,User,-,"How likely are you to correctly recall the items below?|Type your response on a scale from 0-100 and then press Enter.",Study/JOL,"Study Phase",248,,,-1,-1,,,,,1
4654654,puycswwew5,Emily_Honors_Thesis_Part_2,1,80,2020-03-25T15:55:30+00:00,0.46393299102783,13,versionA_stim_BACKWARD.csv,BACKWARD_READ_JOLVersionA.csv,"BACKWARD READ VERSION A",NEW,SWAN,BIRD,ON,F,14,59,JOL,User,-,"How likely are you to correctly recall the items below?|Type your response on a scale from 0-100 and then press Enter.",Study/JOL,"Study Phase",261,,,-1,-1,,,,,1
4654654,puycswwew5,Emily_Honors_Thesis_Part_2,1,81,2020-03-25T15:55:31+00:00,0.3606219291687,13,versionA_stim_BACKWARD.csv,BACKWARD_READ_JOLVersionA.csv,"BACKWARD READ VERSION A",NEW,MEANING,DEFINITION,ON,S,62,73,JOL,User,-,"How likely are you to correctly recall the items below?|Type your response on a scale from 0-100 and then press Enter.",Study/JOL,"Study Phase",166,,,-1,-1,,,,,1
4654654,puycswwew5,Emily_Honors_Thesis_Part_2,1,82,2020-03-25T15:55:31+00:00,0.47979497909546,13,versionA_stim_BACKWARD.csv,BACKWARD_READ_JOLVersionA.csv,"BACKWARD READ VERSION A",NEW,SHOE,FOOT,ON,S,60,81,JOL,User,-,"How likely are you to correctly recall the items below?|Type your response on a scale from 0-100 and then press Enter.",Study/JOL,"Study Phase",267,,,-1,-1,,,,,1
4654654,puycswwew5,Emily_Honors_Thesis_Part_2,1,83,2020-03-25T15:55:31+00:00,0.45347714424133,13,versionA_stim_BACKWARD.csv,BACKWARD_READ_JOLVersionA.csv,"BACKWARD READ VERSION A",NEW,BLOW,WIND,ON,S,55,83,JOL,User,-,"How likely are you to correctly recall the items below?|Type your response on a scale from 0-100 and then press Enter.",Study/JOL,"Study Phase",258,,,-1,-1,,,,,1
4654654,puycswwew5,Emily_Honors_Thesis_Part_2,1,84,2020-03-25T15:55:32+00:00,0.43766689300537,13,versionA_stim_BACKWARD.csv,BACKWARD_READ_JOLVersionA.csv,"BACKWARD READ VERSION A",NEW,GEOLOGY,ROCK,ON,F,19,68,JOL,User,-,"How likely are you to correctly recall the items below?|Type your response on a scale from 0-100 and then press Enter.",Study/JOL,"Study Phase",225,,,-1,-1,,,,,1
4654654,puycswwew5,Emily_Honors_Thesis_Part_2,1,85,2020-03-25T15:55:32+00:00,0.46084904670715,13,versionA_stim_BACKWARD.csv,BACKWARD_READ_JOLVersionA.csv,"BACKWARD READ VERSION A",NEW,DISCUSSION,TALK,ON,F,21,36,JOL,User,-,"How likely are you to correctly recall the items below?|Type your response on a scale from 0-100 and then press Enter.",Study/JOL,"Study Phase",251,,,-1,-1,,,,,1
4654654,puycswwew5,Emily_Honors_Thesis_Part_2,1,86,2020-03-25T15:55:35+00:00,2.6133899688721,13,versionA_stim_BACKWARD.csv,BACKWARD_READ_JOLVersionA.csv,"BACKWARD READ VERSION A",NEW,BITTER,COLD,ON,F,12,32,JOL,User,-,"How likely are you to correctly recall the items below?|Type your response on a scale from 0-100 and then press Enter.",Study/JOL,"Study Phase",443,,,-1,-1,,,,,1
4654654,puycswwew5,Emily_Honors_Thesis_Part_2,1,87,2020-03-25T15:55:35+00:00,0.45413208007812,13,versionA_stim_BACKWARD.csv,BACKWARD_READ_JOLVersionA.csv,"BACKWARD READ VERSION A",NEW,LOCATION,SITE,ON,S,48,65,JOL,User,-,"How likely are you to correctly recall the items below?|Type your response on a scale from 0-100 and then press Enter.",Study/JOL,"Study Phase",257,,,-1,-1,,,,,1
4654654,puycswwew5,Emily_Honors_Thesis_Part_2,1,88,2020-03-25T15:55:36+00:00,0.45680689811707,13,versionA_stim_BACKWARD.csv,BACKWARD_READ_JOLVersionA.csv,"BACKWARD READ VERSION A",NEW,BABY,CHILD,ON,S,64,30,JOL,User,-,"How likely are you to correctly recall the items below?|Type your response on a scale from 0-100 and then press Enter.",Study/JOL,"Study Phase",247,,,-1,-1,,,,,1
4654654,puycswwew5,Emily_Honors_Thesis_Part_2,1,89,2020-03-25T15:55:36+00:00,0.53264212608337,13,versionA_stim_BACKWARD.csv,BACKWARD_READ_JOLVersionA.csv,"BACKWARD READ VERSION A",NEW,DIETARY,SACKING,ON,U,67,85,JOL,User,-,"How likely are you to correctly recall the items below?|Type your response on a scale from 0-100 and then press Enter.",Study/JOL,"Study Phase",331,,,-1,-1,,,,,1
4654654,puycswwew5,Emily_Honors_Thesis_Part_2,1,90,2020-03-25T15:55:37+00:00,0.46237683296204,13,versionA_stim_BACKWARD.csv,BACKWARD_READ_JOLVersionA.csv,"BACKWARD READ VERSION A",NEW,DELINQUENT,BAD,ON,F,6,74,JOL,User,-,"How likely are you to correctly recall the items below?|Type your response on a scale from 0-100 and then press Enter.",Study/JOL,"Study Phase",241,,,-1,-1,,,,,1
4654654,puycswwew5,Emily_Honors_Thesis_Part_2,1,91,2020-03-25T15:55:37+00:00,0.54625916481018,13,versionA_stim_BACKWARD.csv,BACKWARD_READ_JOLVersionA.csv,"BACKWARD READ VERSION A",NEW,DIGESTION,STOMACH,ON,F,7,20,JOL,User,-,"How likely are you to correctly recall the items below?|Type your response on a scale from 0-100 and then press Enter.",Study/JOL,"Study Phase",302,,,-1,-1,,,,,1
4654654,puycswwew5,Emily_Honors_Thesis_Part_2,1,92,2020-03-25T15:55:38+00:00,0.41837882995605,13,versionA_stim_BACKWARD.csv,BACKWARD_READ_JOLVersionA.csv,"BACKWARD READ VERSION A",NEW,SENTENCE,WORD,ON,B,31,77,JOL,User,-,"How likely are you to correctly recall the items below?|Type your response on a scale from 0-100 and then press Enter.",Study/JOL,"Study Phase",185,,,-1,-1,,,,,1
4654654,puycswwew5,Emily_Honors_Thesis_Part_2,1,93,2020-03-25T15:55:38+00:00,0.56145000457764,13,versionA_stim_BACKWARD.csv,BACKWARD_READ_JOLVersionA.csv,"BACKWARD READ VERSION A",NEW,TRIAL,JURY,ON,S,50,52,JOL,User,-,"How likely are you to correctly recall the items below?|Type your response on a scale from 0-100 and then press Enter.",Study/JOL,"Study Phase",344,,,-1,-1,,,,,1
4654654,puycswwew5,Emily_Honors_Thesis_Part_2,1,94,2020-03-25T15:55:39+00:00,0.44116616249084,13,versionA_stim_BACKWARD.csv,BACKWARD_READ_JOLVersionA.csv,"BACKWARD READ VERSION A",NEW,WORK,CHORE,ON,B,39,67,JOL,User,-,"How likely are you to correctly recall the items below?|Type your response on a scale from 0-100 and then press Enter.",Study/JOL,"Study Phase",260,,,-1,-1,,,,,1
4654654,puycswwew5,Emily_Honors_Thesis_Part_2,1,95,2020-03-25T15:55:39+00:00,0.61471390724182,13,versionA_stim_BACKWARD.csv,BACKWARD_READ_JOLVersionA.csv,"BACKWARD READ VERSION A",NEW,HOT,CHILI,ON,B,37,69,JOL,User,-,"How likely are you to correctly recall the items below?|Type your response on a scale from 0-100 and then press Enter.",Study/JOL,"Study Phase",423,,,-1,-1,,,,,1
4654654,puycswwew5,Emily_Honors_Thesis_Part_2,1,96,2020-03-25T15:55:40+00:00,0.5827100276947,13,versionA_stim_BACKWARD.csv,BACKWARD_READ_JOLVersionA.csv,"BACKWARD READ VERSION A",NEW,HIDE,SICK,ON,U,84,16,JOL,User,-,"How likely are you to correctly recall the items below?|Type your response on a scale from 0-100 and then press Enter.",Study/JOL,"Study Phase",374,,,-1,-1,,,,,1
4654654,puycswwew5,Emily_Honors_Thesis_Part_2,1,97,2020-03-25T15:55:41+00:00,0.52757096290588,13,versionA_stim_BACKWARD.csv,BACKWARD_READ_JOLVersionA.csv,"BACKWARD READ VERSION A",NEW,HERD,COW,ON,F,22,31,JOL,User,-,"How likely are you to correctly recall the items below?|Type your response on a scale from 0-100 and then press Enter.",Study/JOL,"Study Phase",326,,,-1,-1,,,,,1
4654654,puycswwew5,Emily_Honors_Thesis_Part_2,1,98,2020-03-25T15:55:41+00:00,0.51597499847412,13,versionA_stim_BACKWARD.csv,BACKWARD_READ_JOLVersionA.csv,"BACKWARD READ VERSION A",NEW,FIRE,BLAZE,ON,B,45,76,JOL,User,-,"How likely are you to correctly recall the items below?|Type your response on a scale from 0-100 and then press Enter.",Study/JOL,"Study Phase",276,,,-1,-1,,,,,1
4654654,puycswwew5,Emily_Honors_Thesis_Part_2,1,99,2020-03-25T15:55:42+00:00,0.58768796920776,13,versionA_stim_BACKWARD.csv,BACKWARD_READ_JOLVersionA.csv,"BACKWARD READ VERSION A",NEW,FULL,ENOUGH,ON,B,26,54,JOL,User,-,"How likely are you to correctly recall the items below?|Type your response on a scale from 0-100 and then press Enter.",Study/JOL,"Study Phase",382,,,-1,-1,,,,,1
4654654,puycswwew5,Emily_Honors_Thesis_Part_2,1,100,2020-03-25T15:55:42+00:00,0.48438000679016,13,versionA_stim_BACKWARD.csv,BACKWARD_READ_JOLVersionA.csv,"BACKWARD READ VERSION A",NEW,ARTERY,BRONZE,ON,U,74,86,JOL,User,-,"How likely are you to correctly recall the items below?|Type your response on a scale from 0-100 and then press Enter.",Study/JOL,"Study Phase",253,,,-1,-1,,,,,1
4654654,puycswwew5,Emily_Honors_Thesis_Part_2,1,101,2020-03-25T15:55:43+00:00,0.58914113044739,13,versionA_stim_BACKWARD.csv,BACKWARD_READ_JOLVersionA.csv,"BACKWARD READ VERSION A",NEW,VALLEY,ADD,ON,U,82,17,JOL,User,-,"How likely are you to correctly recall the items below?|Type your response on a scale from 0-100 and then press Enter.",Study/JOL,"Study Phase",367,,,-1,-1,,,,,1
4654654,puycswwew5,Emily_Honors_Thesis_Part_2,1,102,2020-03-25T15:55:43+00:00,0.51722002029419,13,versionA_stim_BACKWARD.csv,BACKWARD_READ_JOLVersionA.csv,"BACKWARD READ VERSION A",NEW,THING,STUFF,Buffer2,Buffer,90,87,JOL,User,-,"How likely are you to correctly recall the items below?|Type your response on a scale from 0-100 and then press Enter.",Study/JOL,BUFFER2,314,,,-1,-1,,,,,1
4654654,puycswwew5,Emily_Honors_Thesis_Part_2,1,103,2020-03-25T15:55:44+00:00,0.52938294410706,13,versionA_stim_BACKWARD.csv,BACKWARD_READ_JOLVersionA.csv,"BACKWARD READ VERSION A",NEW,SHERRIF,POLICE,Buffer2,Buffer,87,89,JOL,User,-,"How likely are you to correctly recall the items below?|Type your response on a scale from 0-100 and then press Enter.",Study/JOL,BUFFER2,322,,,-1,-1,,,,,1
4654654,puycswwew5,Emily_Honors_Thesis_Part_2,1,104,2020-03-25T15:55:44+00:00,0.66631388664246,13,versionA_stim_BACKWARD.csv,BACKWARD_READ_JOLVersionA.csv,"BACKWARD READ VERSION A",NEW,GEESE,GOOSE,Buffer2,Buffer,86,90,JOL,User,-,"How likely are you to correctly recall the items below?|Type your response on a scale from 0-100 and then press Enter.",Study/JOL,BUFFER2,474,,,-1,-1,,,,,1
4654654,puycswwew5,Emily_Honors_Thesis_Part_2,1,105,2020-03-25T15:55:45+00:00,0.57616114616394,13,versionA_stim_BACKWARD.csv,BACKWARD_READ_JOLVersionA.csv,"BACKWARD READ VERSION A",NEW,MALT,CHOCOLATE,Buffer2,Buffer,88,91,JOL,User,-,"How likely are you to correctly recall the items below?|Type your response on a scale from 0-100 and then press Enter.",Study/JOL,BUFFER2,348,,,-1,-1,,,,,1
4654654,puycswwew5,Emily_Honors_Thesis_Part_2,1,106,2020-03-25T15:55:46+00:00,0.73512601852417,13,versionA_stim_BACKWARD.csv,BACKWARD_READ_JOLVersionA.csv,"BACKWARD READ VERSION A",NEW,MOON,SPACE,Buffer2,Buffer,89,88,JOL,User,-,"How likely are you to correctly recall the items below?|Type your response on a scale from 0-100 and then press Enter.",Study/JOL,BUFFER2,536,,,-1,-1,,,,,1
4654654,puycswwew5,Emily_Honors_Thesis_Part_2,1,107,2020-03-25T15:55:47+00:00,1.035190820694,13,versionA_stim_BACKWARD.csv,BACKWARD_READ_JOLVersionA.csv,"BACKWARD READ VERSION A",NEW,,,,,,0,Instruct,User,-,"You have completed this section. Please press Enter.",Filler_Instruction,Instruct2,707,,,-1,-1,,,,,1
4654654,puycswwew5,Emily_Honors_Thesis_Part_2,1,108,2020-03-25T15:57:47+00:00,120.45039606094,13,versionA_stim_BACKWARD.csv,BACKWARD_READ_JOLVersionA.csv,"BACKWARD READ VERSION A",NEW,,,,,,0,FreeRecall,120,120,"Please list the 50 US states in alphabetical order. The task will automatically advance to the next screen after two minutes.",,Filler1,120242,,0,-1,-1,0,0,,,0.28
4654654,puycswwew5,Emily_Honors_Thesis_Part_2,1,109,2020-03-25T15:58:00+00:00,12.724678039551,13,versionA_stim_BACKWARD.csv,BACKWARD_READ_JOLVersionA.csv,"BACKWARD READ VERSION A",NEW,,,,,,0,Instruct,-,10,"You will now be presented with the first word from each of the previously studied item pairs. Please type the missing word. If you do not know the word, you may guess or press Enter to skip forward to the next pair.",,Instruct3,12301,,,-1,-1,,,,,0.5
4654654,puycswwew5,Emily_Honors_Thesis_Part_2,1,110,2020-03-25T15:58:06+00:00,6.0168569087982,13,versionA_stim_BACKWARD.csv,BACKWARD_READ_JOLVersionA.csv,"BACKWARD READ VERSION A",NEW,CIRCLE,ROUND,ON,S,65,61,Test,User,-,,Recall,Recall1,5783,,0,-1,-1,0,0,,,0.733
4654654,puycswwew5,Emily_Honors_Thesis_Part_2,1,111,2020-03-25T15:58:06+00:00,0.41467809677124,13,versionA_stim_BACKWARD.csv,BACKWARD_READ_JOLVersionA.csv,"BACKWARD READ VERSION A",NEW,TAKE,SEIZE,ON,B,29,62,Test,User,-,,Recall,Recall1,136,,0,-1,-1,0,0,,,1
4654654,puycswwew5,Emily_Honors_Thesis_Part_2,1,112,2020-03-25T15:58:07+00:00,0.40744090080261,13,versionA_stim_BACKWARD.csv,BACKWARD_READ_JOLVersionA.csv,"BACKWARD READ VERSION A",NEW,SUGAR,RIDDLE,ON,U,81,15,Test,User,-,,Recall,Recall1,195,,0,-1,-1,0,0,,,1
4654654,puycswwew5,Emily_Honors_Thesis_Part_2,1,113,2020-03-25T15:58:07+00:00,0.38651514053345,13,versionA_stim_BACKWARD.csv,BACKWARD_READ_JOLVersionA.csv,"BACKWARD READ VERSION A",NEW,PAST,FUTURE,ON,S,61,56,Test,User,-,,Recall,Recall1,179,,0,-1,-1,0,0,,,1
4654654,puycswwew5,Emily_Honors_Thesis_Part_2,1,114,2020-03-25T15:58:08+00:00,0.39352893829346,13,versionA_stim_BACKWARD.csv,BACKWARD_READ_JOLVersionA.csv,"BACKWARD READ VERSION A",NEW,PAW,DOG,ON,F,15,58,Test,User,-,,Recall,Recall1,182,,0,-1,-1,0,0,,,1
4654654,puycswwew5,Emily_Honors_Thesis_Part_2,1,115,2020-03-25T15:58:08+00:00,0.30474591255188,13,versionA_stim_BACKWARD.csv,BACKWARD_READ_JOLVersionA.csv,"BACKWARD READ VERSION A",NEW,DUMP,WASTE,ON,S,49,28,Test,User,-,,Recall,Recall1,82,,0,-1,-1,0,0,,,1
4654654,puycswwew5,Emily_Honors_Thesis_Part_2,1,116,2020-03-25T15:58:08+00:00,0.3943190574646,13,versionA_stim_BACKWARD.csv,BACKWARD_READ_JOLVersionA.csv,"BACKWARD READ VERSION A",NEW,DEBATE,SIGHT,ON,U,73,9,Test,User,-,,Recall,Recall1,166,,0,-1,-1,0,0,,,1
4654654,puycswwew5,Emily_Honors_Thesis_Part_2,1,117,2020-03-25T15:58:09+00:00,0.36469793319702,13,versionA_stim_BACKWARD.csv,BACKWARD_READ_JOLVersionA.csv,"BACKWARD READ VERSION A",NEW,ORCHID,FLOWER,ON,F,24,71,Test,User,-,,Recall,Recall1,131,,0,-1,-1,0,0,,,1
4654654,puycswwew5,Emily_Honors_Thesis_Part_2,1,118,2020-03-25T15:58:09+00:00,0.37067818641663,13,versionA_stim_BACKWARD.csv,BACKWARD_READ_JOLVersionA.csv,"BACKWARD READ VERSION A",NEW,PUSHER,CLUTTER,ON,U,66,19,Test,User,-,,Recall,Recall1,172,,0,-1,-1,0,0,,,1
4654654,puycswwew5,Emily_Honors_Thesis_Part_2,1,119,2020-03-25T15:58:09+00:00,0.3826949596405,13,versionA_stim_BACKWARD.csv,BACKWARD_READ_JOLVersionA.csv,"BACKWARD READ VERSION A",NEW,HAPPY,CAR,ON,U,77,29,Test,User,-,,Recall,Recall1,169,,0,-1,-1,0,0,,,1
4654654,puycswwew5,Emily_Honors_Thesis_Part_2,1,120,2020-03-25T15:58:10+00:00,0.38337397575378,13,versionA_stim_BACKWARD.csv,BACKWARD_READ_JOLVersionA.csv,"BACKWARD READ VERSION A",NEW,SLEEP,DROWSY,ON,B,41,60,Test,User,-,,Recall,Recall1,175,,0,-1,-1,0,0,,,1
4654654,puycswwew5,Emily_Honors_Thesis_Part_2,1,121,2020-03-25T15:58:10+00:00,0.48517298698425,13,versionA_stim_BACKWARD.csv,BACKWARD_READ_JOLVersionA.csv,"BACKWARD READ VERSION A",NEW,WINE,CHEESE,ON,S,57,24,Test,User,-,,Recall,Recall1,276,,0,-1,-1,0,0,,,1
4654654,puycswwew5,Emily_Honors_Thesis_Part_2,1,122,2020-03-25T15:58:11+00:00,0.4270179271698,13,versionA_stim_BACKWARD.csv,BACKWARD_READ_JOLVersionA.csv,"BACKWARD READ VERSION A",NEW,HONEY,BEE,ON,S,63,25,Test,User,-,,Recall,Recall1,212,,0,-1,-1,0,0,,,1
4654654,puycswwew5,Emily_Honors_Thesis_Part_2,1,123,2020-03-25T15:58:11+00:00,0.41071510314941,13,versionA_stim_BACKWARD.csv,BACKWARD_READ_JOLVersionA.csv,"BACKWARD READ VERSION A",NEW,MATH,DIVISION,ON,B,33,44,Test,User,-,,Recall,Recall1,208,,0,-1,-1,0,0,,,1
4654654,puycswwew5,Emily_Honors_Thesis_Part_2,1,124,2020-03-25T15:58:12+00:00,0.50861787796021,13,versionA_stim_BACKWARD.csv,BACKWARD_READ_JOLVersionA.csv,"BACKWARD READ VERSION A",NEW,HOT,CHILI,ON,B,37,69,Test,User,-,,Recall,Recall1,292,,0,-1,-1,0,0,,,1
4654654,puycswwew5,Emily_Honors_Thesis_Part_2,1,125,2020-03-25T15:58:12+00:00,0.48612713813782,13,versionA_stim_BACKWARD.csv,BACKWARD_READ_JOLVersionA.csv,"BACKWARD READ VERSION A",NEW,WAGE,MONEY,ON,F,8,48,Test,User,-,,Recall,Recall1,280,,0,-1,-1,0,0,,,1
4654654,puycswwew5,Emily_Honors_Thesis_Part_2,1,126,2020-03-25T15:58:13+00:00,0.77938103675842,13,versionA_stim_BACKWARD.csv,BACKWARD_READ_JOLVersionA.csv,"BACKWARD READ VERSION A",NEW,KEY,LATCH,ON,B,36,11,Test,User,-,,Recall,Recall1,549,,0,-1,-1,0,0,,,1
4654654,puycswwew5,Emily_Honors_Thesis_Part_2,1,127,2020-03-25T15:58:13+00:00,0.35851883888245,13,versionA_stim_BACKWARD.csv,BACKWARD_READ_JOLVersionA.csv,"BACKWARD READ VERSION A",NEW,CLOTHES,ATTIRE,ON,B,43,80,Test,User,-,,Recall,Recall1,152,,0,-1,-1,0,0,,,1
4654654,puycswwew5,Emily_Honors_Thesis_Part_2,1,128,2020-03-25T15:58:14+00:00,0.51103401184082,13,versionA_stim_BACKWARD.csv,BACKWARD_READ_JOLVersionA.csv,"BACKWARD READ VERSION A",NEW,DARK,CAVE,ON,B,28,7,Test,User,-,,Recall,Recall1,285,,0,-1,-1,0,0,,,1
4654654,puycswwew5,Emily_Honors_Thesis_Part_2,1,129,2020-03-25T15:58:14+00:00,0.48734998703003,13,versionA_stim_BACKWARD.csv,BACKWARD_READ_JOLVersionA.csv,"BACKWARD READ VERSION A",NEW,KIDNEY,LIVER,ON,S,53,8,Test,User,-,,Recall,Recall1,287,,0,-1,-1,0,0,,,1
4654654,puycswwew5,Emily_Honors_Thesis_Part_2,1,130,2020-03-25T15:58:15+00:00,0.40294003486633,13,versionA_stim_BACKWARD.csv,BACKWARD_READ_JOLVersionA.csv,"BACKWARD READ VERSION A",NEW,LAW,ATTORNEY,ON,B,34,37,Test,User,-,,Recall,Recall1,190,,0,-1,-1,0,0,,,1
4654654,puycswwew5,Emily_Honors_Thesis_Part_2,1,131,2020-03-25T15:58:15+00:00,0.56041598320007,13,versionA_stim_BACKWARD.csv,BACKWARD_READ_JOLVersionA.csv,"BACKWARD READ VERSION A",NEW,DIETARY,SACKING,ON,U,67,85,Test,User,-,,Recall,Recall1,361,,0,-1,-1,0,0,,,1
4654654,puycswwew5,Emily_Honors_Thesis_Part_2,1,132,2020-03-25T15:58:16+00:00,0.33218312263489,13,versionA_stim_BACKWARD.csv,BACKWARD_READ_JOLVersionA.csv,"BACKWARD READ VERSION A",NEW,SHOE,FOOT,ON,S,60,81,Test,User,-,,Recall,Recall1,106,,0,-1,-1,0,0,,,1
4654654,puycswwew5,Emily_Honors_Thesis_Part_2,1,133,2020-03-25T15:58:16+00:00,0.32133889198303,13,versionA_stim_BACKWARD.csv,BACKWARD_READ_JOLVersionA.csv,"BACKWARD READ VERSION A",NEW,WORK,CHORE,ON,B,39,67,Test,User,-,,Recall,Recall1,112,,0,-1,-1,0,0,,,1
4654654,puycswwew5,Emily_Honors_Thesis_Part_2,1,134,2020-03-25T15:58:16+00:00,0.37783002853394,13,versionA_stim_BACKWARD.csv,BACKWARD_READ_JOLVersionA.csv,"BACKWARD READ VERSION A",NEW,BITTER,COLD,ON,F,12,32,Test,User,-,,Recall,Recall1,178,,0,-1,-1,0,0,,,1
4654654,puycswwew5,Emily_Honors_Thesis_Part_2,1,135,2020-03-25T15:58:17+00:00,0.39148497581482,13,versionA_stim_BACKWARD.csv,BACKWARD_READ_JOLVersionA.csv,"BACKWARD READ VERSION A",NEW,VALLEY,ADD,ON,U,82,17,Test,User,-,,Recall,Recall1,170,,0,-1,-1,0,0,,,1
4654654,puycswwew5,Emily_Honors_Thesis_Part_2,1,136,2020-03-25T15:58:17+00:00,0.34843707084656,13,versionA_stim_BACKWARD.csv,BACKWARD_READ_JOLVersionA.csv,"BACKWARD READ VERSION A",NEW,DUE,ASSIGNMENT,ON,S,46,57,Test,User,-,,Recall,Recall1,120,,0,-1,-1,0,0,,,1
4654654,puycswwew5,Emily_Honors_Thesis_Part_2,1,137,2020-03-25T15:58:17+00:00,0.40123891830444,13,versionA_stim_BACKWARD.csv,BACKWARD_READ_JOLVersionA.csv,"BACKWARD READ VERSION A",NEW,CHISEL,HAMMER,ON,F,9,42,Test,User,-,,Recall,Recall1,187,,0,-1,-1,0,0,,,1
4654654,puycswwew5,Emily_Honors_Thesis_Part_2,1,138,2020-03-25T15:58:18+00:00,0.34159994125366,13,versionA_stim_BACKWARD.csv,BACKWARD_READ_JOLVersionA.csv,"BACKWARD READ VERSION A",NEW,HIDE,SICK,ON,U,84,16,Test,User,-,,Recall,Recall1,108,,0,-1,-1,0,0,,,1
4654654,puycswwew5,Emily_Honors_Thesis_Part_2,1,139,2020-03-25T15:58:18+00:00,0.4206120967865,13,versionA_stim_BACKWARD.csv,BACKWARD_READ_JOLVersionA.csv,"BACKWARD READ VERSION A",NEW,HERD,COW,ON,F,22,31,Test,User,-,,Recall,Recall1,179,,0,-1,-1,0,0,,,1
4654654,puycswwew5,Emily_Honors_Thesis_Part_2,1,140,2020-03-25T15:58:19+00:00,0.34313011169434,13,versionA_stim_BACKWARD.csv,BACKWARD_READ_JOLVersionA.csv,"BACKWARD READ VERSION A",NEW,TRIAL,JURY,ON,S,50,52,Test,User,-,,Recall,Recall1,137,,0,-1,-1,0,0,,,1
4654654,puycswwew5,Emily_Honors_Thesis_Part_2,1,141,2020-03-25T15:58:19+00:00,0.41628479957581,13,versionA_stim_BACKWARD.csv,BACKWARD_READ_JOLVersionA.csv,"BACKWARD READ VERSION A",NEW,HUNGER,FAMINE,ON,B,40,13,Test,User,-,,Recall,Recall1,215,,0,-1,-1,0,0,,,1
4654654,puycswwew5,Emily_Honors_Thesis_Part_2,1,142,2020-03-25T15:58:19+00:00,0.32124018669128,13,versionA_stim_BACKWARD.csv,BACKWARD_READ_JOLVersionA.csv,"BACKWARD READ VERSION A",NEW,TUNA,FISH,ON,F,25,14,Test,User,-,,Recall,Recall1,117,,0,-1,-1,0,0,,,1
4654654,puycswwew5,Emily_Honors_Thesis_Part_2,1,143,2020-03-25T15:58:20+00:00,0.38282179832458,13,versionA_stim_BACKWARD.csv,BACKWARD_READ_JOLVersionA.csv,"BACKWARD READ VERSION A",NEW,ARCHITECTURE,DESIGN,ON,S,51,22,Test,User,-,,Recall,Recall1,173,,0,-1,-1,0,0,,,1
4654654,puycswwew5,Emily_Honors_Thesis_Part_2,1,144,2020-03-25T15:58:20+00:00,0.34971404075623,13,versionA_stim_BACKWARD.csv,BACKWARD_READ_JOLVersionA.csv,"BACKWARD READ VERSION A",NEW,LIFT,WOMAN,ON,U,69,66,Test,User,-,,Recall,Recall1,130,,0,-1,-1,0,0,,,1
4654654,puycswwew5,Emily_Honors_Thesis_Part_2,1,145,2020-03-25T15:58:20+00:00,0.35020518302917,13,versionA_stim_BACKWARD.csv,BACKWARD_READ_JOLVersionA.csv,"BACKWARD READ VERSION A",NEW,NUMBER,AMOUNT,ON,S,47,10,Test,User,-,,Recall,Recall1,136,,0,-1,-1,0,0,,,1
4654654,puycswwew5,Emily_Honors_Thesis_Part_2,1,146,2020-03-25T15:58:21+00:00,0.36141085624695,13,versionA_stim_BACKWARD.csv,BACKWARD_READ_JOLVersionA.csv,"BACKWARD READ VERSION A",NEW,GRILL,BAR,ON,S,52,72,Test,User,-,,Recall,Recall1,157,,0,-1,-1,0,0,,,1
4654654,puycswwew5,Emily_Honors_Thesis_Part_2,1,147,2020-03-25T15:58:21+00:00,0.33348512649536,13,versionA_stim_BACKWARD.csv,BACKWARD_READ_JOLVersionA.csv,"BACKWARD READ VERSION A",NEW,GEOLOGY,ROCK,ON,F,19,68,Test,User,-,,Recall,Recall1,120,,0,-1,-1,0,0,,,1
4654654,puycswwew5,Emily_Honors_Thesis_Part_2,1,148,2020-03-25T15:58:21+00:00,0.34912896156311,13,versionA_stim_BACKWARD.csv,BACKWARD_READ_JOLVersionA.csv,"BACKWARD READ VERSION A",NEW,BALL,RACKET,ON,B,38,34,Test,User,-,,Recall,Recall1,155,,0,-1,-1,0,0,,,1
4654654,puycswwew5,Emily_Honors_Thesis_Part_2,1,149,2020-03-25T15:58:22+00:00,0.32362484931946,13,versionA_stim_BACKWARD.csv,BACKWARD_READ_JOLVersionA.csv,"BACKWARD READ VERSION A",NEW,BUG,WASP,ON,B,32,33,Test,User,-,,Recall,Recall1,78,,0,-1,-1,0,0,,,1
4654654,puycswwew5,Emily_Honors_Thesis_Part_2,1,150,2020-03-25T15:58:22+00:00,0.40034198760986,13,versionA_stim_BACKWARD.csv,BACKWARD_READ_JOLVersionA.csv,"BACKWARD READ VERSION A",NEW,FIX,HAND,ON,U,75,26,Test,User,-,,Recall,Recall1,132,,0,-1,-1,0,0,,,1
4654654,puycswwew5,Emily_Honors_Thesis_Part_2,1,151,2020-03-25T15:58:22+00:00,0.32244300842285,13,versionA_stim_BACKWARD.csv,BACKWARD_READ_JOLVersionA.csv,"BACKWARD READ VERSION A",NEW,FIRE,BLAZE,ON,B,45,76,Test,User,-,,Recall,Recall1,91,,0,-1,-1,0,0,,,1
4654654,puycswwew5,Emily_Honors_Thesis_Part_2,1,152,2020-03-25T15:58:24+00:00,1.9723930358887,13,versionA_stim_BACKWARD.csv,BACKWARD_READ_JOLVersionA.csv,"BACKWARD READ VERSION A",NEW,PLANE,PILOT,ON,B,44,23,Test,User,-,,Recall,Recall1,1764,,0,-1,-1,0,0,,,1
4654654,puycswwew5,Emily_Honors_Thesis_Part_2,1,153,2020-03-25T15:58:25+00:00,0.27565002441406,13,versionA_stim_BACKWARD.csv,BACKWARD_READ_JOLVersionA.csv,"BACKWARD READ VERSION A",NEW,ALLOW,TUCK,ON,U,78,63,Test,User,-,,Recall,Recall1,57,,0,-1,-1,0,0,,,1
4654654,puycswwew5,Emily_Honors_Thesis_Part_2,1,154,2020-03-25T15:58:41+00:00,16.776792049408,13,versionA_stim_BACKWARD.csv,BACKWARD_READ_JOLVersionA.csv,"BACKWARD READ VERSION A",NEW,DRINK,SIP,ON,B,27,45,Test,User,-,,Recall,Recall1,16568,,0,-1,-1,0,0,,,0.483
4654654,puycswwew5,Emily_Honors_Thesis_Part_2,1,155,2020-03-25T15:58:42+00:00,0.39798998832703,13,versionA_stim_BACKWARD.csv,BACKWARD_READ_JOLVersionA.csv,"BACKWARD READ VERSION A",NEW,HYGIENE,CLEAN,ON,F,17,50,Test,User,-,,Recall,Recall1,178,,0,-1,-1,0,0,,,1
4654654,puycswwew5,Emily_Honors_Thesis_Part_2,1,156,2020-03-25T15:58:42+00:00,0.31692504882812,13,versionA_stim_BACKWARD.csv,BACKWARD_READ_JOLVersionA.csv,"BACKWARD READ VERSION A",NEW,BLOW,WIND,ON,S,55,83,Test,User,-,,Recall,Recall1,92,,0,-1,-1,0,0,,,1
4654654,puycswwew5,Emily_Honors_Thesis_Part_2,1,157,2020-03-25T15:58:43+00:00,0.36818194389343,13,versionA_stim_BACKWARD.csv,BACKWARD_READ_JOLVersionA.csv,"BACKWARD READ VERSION A",NEW,ARTERY,BRONZE,ON,U,74,86,Test,User,-,,Recall,Recall1,171,,0,-1,-1,0,0,,,1
4654654,puycswwew5,Emily_Honors_Thesis_Part_2,1,158,2020-03-25T15:58:43+00:00,0.26110601425171,13,versionA_stim_BACKWARD.csv,BACKWARD_READ_JOLVersionA.csv,"BACKWARD READ VERSION A",NEW,MACHINE,POSITION,ON,U,76,55,Test,User,-,,Recall,Recall1,47,,0,-1,-1,0,0,,,1
4654654,puycswwew5,Emily_Honors_Thesis_Part_2,1,159,2020-03-25T15:58:43+00:00,0.67001605033875,13,versionA_stim_BACKWARD.csv,BACKWARD_READ_JOLVersionA.csv,"BACKWARD READ VERSION A",NEW,BEGIN,END,ON,S,54,38,Test,User,-,,Recall,Recall1,475,,0,-1,-1,0,0,,,1
4654654,puycswwew5,Emily_Honors_Thesis_Part_2,1,160,2020-03-25T15:58:44+00:00,0.44996190071106,13,versionA_stim_BACKWARD.csv,BACKWARD_READ_JOLVersionA.csv,"BACKWARD READ VERSION A",NEW,STRONG,ACCIDENT,ON,U,80,51,Test,User,-,,Recall,Recall1,242,,0,-1,-1,0,0,,,1
4654654,puycswwew5,Emily_Honors_Thesis_Part_2,1,161,2020-03-25T15:58:44+00:00,0.4494640827179,13,versionA_stim_BACKWARD.csv,BACKWARD_READ_JOLVersionA.csv,"BACKWARD READ VERSION A",NEW,GREAT,FANTASTIC,ON,B,35,70,Test,User,-,,Recall,Recall1,232,,0,-1,-1,0,0,,,1
4654654,puycswwew5,Emily_Honors_Thesis_Part_2,1,162,2020-03-25T15:58:45+00:00,0.37197804450989,13,versionA_stim_BACKWARD.csv,BACKWARD_READ_JOLVersionA.csv,"BACKWARD READ VERSION A",NEW,SENTENCE,WORD,ON,B,31,77,Test,User,-,,Recall,Recall1,163,,0,-1,-1,0,0,,,1
4654654,puycswwew5,Emily_Honors_Thesis_Part_2,1,163,2020-03-25T15:58:45+00:00,0.3509509563446,13,versionA_stim_BACKWARD.csv,BACKWARD_READ_JOLVersionA.csv,"BACKWARD READ VERSION A",NEW,SOON,BELT,ON,U,70,78,Test,User,-,,Recall,Recall1,114,,0,-1,-1,0,0,,,1
4654654,puycswwew5,Emily_Honors_Thesis_Part_2,1,164,2020-03-25T15:58:45+00:00,0.39577293395996,13,versionA_stim_BACKWARD.csv,BACKWARD_READ_JOLVersionA.csv,"BACKWARD READ VERSION A",NEW,LOCATION,SITE,ON,S,48,65,Test,User,-,,Recall,Recall1,196,,0,-1,-1,0,0,,,1
4654654,puycswwew5,Emily_Honors_Thesis_Part_2,1,165,2020-03-25T15:58:46+00:00,0.38795208930969,13,versionA_stim_BACKWARD.csv,BACKWARD_READ_JOLVersionA.csv,"BACKWARD READ VERSION A",NEW,DEATH,BUSINESS,ON,U,72,18,Test,User,-,,Recall,Recall1,196,,0,-1,-1,0,0,,,1
4654654,puycswwew5,Emily_Honors_Thesis_Part_2,1,166,2020-03-25T15:58:46+00:00,0.34427094459534,13,versionA_stim_BACKWARD.csv,BACKWARD_READ_JOLVersionA.csv,"BACKWARD READ VERSION A",NEW,CREDIT,CARD,ON,F,23,79,Test,User,-,,Recall,Recall1,143,,0,-1,-1,0,0,,,1
4654654,puycswwew5,Emily_Honors_Thesis_Part_2,1,167,2020-03-25T15:58:47+00:00,0.38819003105164,13,versionA_stim_BACKWARD.csv,BACKWARD_READ_JOLVersionA.csv,"BACKWARD READ VERSION A",NEW,EDITOR,NEWS,ON,F,10,41,Test,User,-,,Recall,Recall1,187,,0,-1,-1,0,0,,,1
4654654,puycswwew5,Emily_Honors_Thesis_Part_2,1,168,2020-03-25T15:58:47+00:00,0.33072185516357,13,versionA_stim_BACKWARD.csv,BACKWARD_READ_JOLVersionA.csv,"BACKWARD READ VERSION A",NEW,SWAN,BIRD,ON,F,14,59,Test,User,-,,Recall,Recall1,137,,0,-1,-1,0,0,,,1
4654654,puycswwew5,Emily_Honors_Thesis_Part_2,1,169,2020-03-25T15:58:47+00:00,0.32317399978638,13,versionA_stim_BACKWARD.csv,BACKWARD_READ_JOLVersionA.csv,"BACKWARD READ VERSION A",NEW,BABY,CHILD,ON,S,64,30,Test,User,-,,Recall,Recall1,120,,0,-1,-1,0,0,,,1
4654654,puycswwew5,Emily_Honors_Thesis_Part_2,1,170,2020-03-25T15:58:48+00:00,0.32876920700073,13,versionA_stim_BACKWARD.csv,BACKWARD_READ_JOLVersionA.csv,"BACKWARD READ VERSION A",NEW,POP,SODA,ON,S,56,27,Test,User,-,,Recall,Recall1,139,,0,-1,-1,0,0,,,1
4654654,puycswwew5,Emily_Honors_Thesis_Part_2,1,171,2020-03-25T15:58:48+00:00,0.33951187133789,13,versionA_stim_BACKWARD.csv,BACKWARD_READ_JOLVersionA.csv,"BACKWARD READ VERSION A",NEW,SMELL,STENCH,ON,B,42,43,Test,User,-,,Recall,Recall1,145,,0,-1,-1,0,0,,,1
4654654,puycswwew5,Emily_Honors_Thesis_Part_2,1,172,2020-03-25T15:58:48+00:00,0.32181191444397,13,versionA_stim_BACKWARD.csv,BACKWARD_READ_JOLVersionA.csv,"BACKWARD READ VERSION A",NEW,HORNET,STING,ON,F,11,12,Test,User,-,,Recall,Recall1,104,,0,-1,-1,0,0,,,1
4654654,puycswwew5,Emily_Honors_Thesis_Part_2,1,173,2020-03-25T15:58:49+00:00,0.36285710334778,13,versionA_stim_BACKWARD.csv,BACKWARD_READ_JOLVersionA.csv,"BACKWARD READ VERSION A",NEW,CASH,WOULD,ON,U,83,75,Test,User,-,,Recall,Recall1,161,,0,-1,-1,0,0,,,1
4654654,puycswwew5,Emily_Honors_Thesis_Part_2,1,174,2020-03-25T15:58:49+00:00,0.37004208564758,13,versionA_stim_BACKWARD.csv,BACKWARD_READ_JOLVersionA.csv,"BACKWARD READ VERSION A",NEW,DISCUSSION,TALK,ON,F,21,36,Test,User,-,,Recall,Recall1,165,,0,-1,-1,0,0,,,1
4654654,puycswwew5,Emily_Honors_Thesis_Part_2,1,175,2020-03-25T15:58:49+00:00,0.35110902786255,13,versionA_stim_BACKWARD.csv,BACKWARD_READ_JOLVersionA.csv,"BACKWARD READ VERSION A",NEW,HEIGHT,GROWTH,ON,B,30,35,Test,User,-,,Recall,Recall1,143,,0,-1,-1,0,0,,,1
4654654,puycswwew5,Emily_Honors_Thesis_Part_2,1,176,2020-03-25T15:58:50+00:00,0.32464599609375,13,versionA_stim_BACKWARD.csv,BACKWARD_READ_JOLVersionA.csv,"BACKWARD READ VERSION A",NEW,BATHROOM,TOILET,ON,S,58,21,Test,User,-,,Recall,Recall1,130,,0,-1,-1,0,0,,,1
4654654,puycswwew5,Emily_Honors_Thesis_Part_2,1,177,2020-03-25T15:58:50+00:00,0.37808585166931,13,versionA_stim_BACKWARD.csv,BACKWARD_READ_JOLVersionA.csv,"BACKWARD READ VERSION A",NEW,KING,VASE,ON,U,85,39,Test,User,-,,Recall,Recall1,164,,0,-1,-1,0,0,,,1
4654654,puycswwew5,Emily_Honors_Thesis_Part_2,1,178,2020-03-25T15:58:50+00:00,0.33577704429626,13,versionA_stim_BACKWARD.csv,BACKWARD_READ_JOLVersionA.csv,"BACKWARD READ VERSION A",NEW,WAY,OUT,ON,F,16,84,Test,User,-,,Recall,Recall1,120,,0,-1,-1,0,0,,,1
4654654,puycswwew5,Emily_Honors_Thesis_Part_2,1,179,2020-03-25T15:58:51+00:00,0.37023711204529,13,versionA_stim_BACKWARD.csv,BACKWARD_READ_JOLVersionA.csv,"BACKWARD READ VERSION A",NEW,ART,LION,ON,U,79,64,Test,User,-,,Recall,Recall1,157,,0,-1,-1,0,0,,,1
4654654,puycswwew5,Emily_Honors_Thesis_Part_2,1,180,2020-03-25T15:58:51+00:00,0.34843492507935,13,versionA_stim_BACKWARD.csv,BACKWARD_READ_JOLVersionA.csv,"BACKWARD READ VERSION A",NEW,ROOT,PLANT,ON,F,13,49,Test,User,-,,Recall,Recall1,138,,0,-1,-1,0,0,,,1
4654654,puycswwew5,Emily_Honors_Thesis_Part_2,1,181,2020-03-25T15:58:51+00:00,0.34492588043213,13,versionA_stim_BACKWARD.csv,BACKWARD_READ_JOLVersionA.csv,"BACKWARD READ VERSION A",NEW,DISCOVER,FLOOR,ON,U,71,46,Test,User,-,,Recall,Recall1,69,,0,-1,-1,0,0,,,1
4654654,puycswwew5,Emily_Honors_Thesis_Part_2,1,182,2020-03-25T15:58:52+00:00,0.38133502006531,13,versionA_stim_BACKWARD.csv,BACKWARD_READ_JOLVersionA.csv,"BACKWARD READ VERSION A",NEW,BRIDGE,WATER,ON,F,18,47,Test,User,-,,Recall,Recall1,186,,0,-1,-1,0,0,,,1
4654654,puycswwew5,Emily_Honors_Thesis_Part_2,1,183,2020-03-25T15:58:52+00:00,0.33210897445679,13,versionA_stim_BACKWARD.csv,BACKWARD_READ_JOLVersionA.csv,"BACKWARD READ VERSION A",NEW,MEANING,DEFINITION,ON,S,62,73,Test,User,-,,Recall,Recall1,132,,0,-1,-1,0,0,,,1
4654654,puycswwew5,Emily_Honors_Thesis_Part_2,1,184,2020-03-25T15:58:52+00:00,0.35131120681763,13,versionA_stim_BACKWARD.csv,BACKWARD_READ_JOLVersionA.csv,"BACKWARD READ VERSION A",NEW,PARK,HUNGRY,ON,U,68,82,Test,User,-,,Recall,Recall1,135,,0,-1,-1,0,0,,,1
4654654,puycswwew5,Emily_Honors_Thesis_Part_2,1,185,2020-03-25T15:58:53+00:00,0.35783886909485,13,versionA_stim_BACKWARD.csv,BACKWARD_READ_JOLVersionA.csv,"BACKWARD READ VERSION A",NEW,REVOLUTION,WAR,ON,F,20,40,Test,User,-,,Recall,Recall1,158,,0,-1,-1,0,0,,,1
4654654,puycswwew5,Emily_Honors_Thesis_Part_2,1,186,2020-03-25T15:58:53+00:00,0.35395693778992,13,versionA_stim_BACKWARD.csv,BACKWARD_READ_JOLVersionA.csv,"BACKWARD READ VERSION A",NEW,FULL,ENOUGH,ON,B,26,54,Test,User,-,,Recall,Recall1,125,,0,-1,-1,0,0,,,1
4654654,puycswwew5,Emily_Honors_Thesis_Part_2,1,187,2020-03-25T15:58:54+00:00,0.33780717849731,13,versionA_stim_BACKWARD.csv,BACKWARD_READ_JOLVersionA.csv,"BACKWARD READ VERSION A",NEW,DIGESTION,STOMACH,ON,F,7,20,Test,User,-,,Recall,Recall1,78,,0,-1,-1,0,0,,,1
4654654,puycswwew5,Emily_Honors_Thesis_Part_2,1,188,2020-03-25T15:58:54+00:00,0.38893389701843,13,versionA_stim_BACKWARD.csv,BACKWARD_READ_JOLVersionA.csv,"BACKWARD READ VERSION A",NEW,LETTUCE,SALAD,ON,S,59,53,Test,User,-,,Recall,Recall1,70,,0,-1,-1,0,0,,,1
4654654,puycswwew5,Emily_Honors_Thesis_Part_2,1,189,2020-03-25T15:58:54+00:00,0.39309096336365,13,versionA_stim_BACKWARD.csv,BACKWARD_READ_JOLVersionA.csv,"BACKWARD READ VERSION A",NEW,DELINQUENT,BAD,ON,F,6,74,Test,User,-,,Recall,Recall1,182,,0,-1,-1,0,0,,,1
4654654,puycswwew5,Emily_Honors_Thesis_Part_2,1,190,2020-03-25T15:58:55+00:00,0.44582509994507,13,versionA_stim_BACKWARD.csv,BACKWARD_READ_JOLVersionA.csv,"BACKWARD READ VERSION A",NEW,,,,,,0,Instruct,User,-,"You have completed this section. Please press Enter.",Filler_Instruction,Instruct21,187,,,-1,-1,,,,,1
4654654,puycswwew5,Emily_Honors_Thesis_Part_2,1,191,2020-03-25T15:59:08+00:00,13.273771047592,13,versionA_stim_BACKWARD.csv,BACKWARD_READ_JOLVersionA.csv,"BACKWARD READ VERSION A",NEW,,,,,,0,Instruct,-,12,"The order that words are presented in can affect how well you remember them. For example, the pairs CREDIT-CARD and CARD-CREDIT both have the same words, but people are less likely to remember CARD-CREDIT because the order is uncommon. On the next screen you will be shown a graph illustrating this finding. Please study it for at least 20 seconds.",,BACKWARD_INSTRUCTIONS1,13044,,,-1,-1,,,,,1
4654654,puycswwew5,Emily_Honors_Thesis_Part_2,1,192,2020-03-25T16:00:44+00:00,95.480361938477,13,versionA_stim_BACKWARD.csv,BACKWARD_READ_JOLVersionA.csv,"BACKWARD READ VERSION A",NEW,images/Sample.jpg,"Forward pairs (CREDIT-CARD) are remembered better than Backward pairs (CARD-CREDIT) and Symmetrical pairs (KING-QUEEN), even people rate their ability to remember them the same way. Please keep this in mind as you make your ratings!",,,,192,StudyPic,-,20,,,GRAPH1,21454,,,-1,-1,,,,,0.857
