"ExperimentName","Subject","Block","list","Procedure.Block.","cue_target","Direction","ListNum","JOL","RT","Procedure.Trial.","Type","Procedure.Block..1","cue_target.1","ListNum.1","Response","Procedure.Trial..1","Type.1"
"IS_JOL A",41,1,3,"BlockProc1","Hornet - Sting","F",6,45,34055,"StudyProc7","JOL","BlockProc1","Hornet - ?",6,"sting","recallproc1","recall"
"IS_JOL A",41,1,3,"BlockProc1","Bitter - Cold","F",7,80,29780,"StudyProc7","JOL","BlockProc1","Bitter - ?",7,"cold","recallproc1","recall"
"IS_JOL A",41,1,3,"BlockProc1","Root - Plant","F",8,60,27728,"StudyProc7","JOL","BlockProc1","Root - ?",8,"plant","recallproc1","recall"
"IS_JOL A",41,1,3,"BlockProc1","Swan - Bird","F",9,30,16792,"StudyProc7","JOL","BlockProc1","Swan - ?",9,"bird","recallproc1","recall"
"IS_JOL A",41,1,3,"BlockProc1","Paw - Dog","F",10,70,12643,"StudyProc7","JOL","BlockProc1","Paw - ?",10,"dog","recallproc1","recall"
"IS_JOL A",41,1,3,"BlockProc1","Way - Out","F",11,30,13715,"StudyProc7","JOL","BlockProc1","Way - ?",11,"out","recallproc1","recall"
"IS_JOL A",41,1,3,"BlockProc1","Hygiene - Clean","F",12,55,27272,"StudyProc7","JOL","BlockProc1","Hygiene - ?",12,"clean","recallproc1","recall"
"IS_JOL A",41,1,3,"BlockProc1","Bridge - Water","F",13,50,29689,"StudyProc7","JOL","BlockProc1","Bridge - ?",13,"water","recallproc1","recall"
"IS_JOL A",41,1,3,"BlockProc1","Geology - Rock","F",14,60,18651,"StudyProc7","JOL","BlockProc1","Geology - ?",14,"rock","recallproc1","recall"
"IS_JOL A",41,1,3,"BlockProc1","Revolution - War","F",15,30,31728,"StudyProc7","JOL","BlockProc1","Revolution - ?",15,"war","recallproc1","recall"
"IS_JOL A",41,1,3,"BlockProc1","Discussion - Talk","F",16,50,15999,"StudyProc7","JOL","BlockProc1","Discussion - ?",16,"tlk","recallproc1","recall"
"IS_JOL A",41,1,3,"BlockProc1","Herd - Cow","F",17,50,17551,"StudyProc7","JOL","BlockProc1","Herd - ?",17,"cow","recallproc1","recall"
"IS_JOL A",41,1,3,"BlockProc1","Credit - Card","F",18,80,36443,"StudyProc7","JOL","BlockProc1","Credit - ?",18,"card","recallproc1","recall"
"IS_JOL A",41,1,3,"BlockProc1","Orchid - Flower","F",19,75,33293,"StudyProc7","JOL","BlockProc1","Orchid - ?",19,"flower","recallproc1","recall"
"IS_JOL A",41,1,3,"BlockProc1","Tuna - Fish","F",20,45,34586,"StudyProc7","JOL","BlockProc1","Tuna - ?",20,"fish","recallproc1","recall"
"IS_JOL A",41,1,3,"BlockProc1","Full - Enough","B",21,10,23250,"StudyProc7","JOL","BlockProc1","Full - ?",21,"enough","recallproc1","recall"
"IS_JOL A",41,1,3,"BlockProc1","Drink - Sip","B",22,45,29935,"StudyProc7","JOL","BlockProc1","Drink - ?",22,"soda","recallproc1","recall"
"IS_JOL A",41,1,3,"BlockProc1","Dark - Cave","B",23,30,35113,"StudyProc7","JOL","BlockProc1","Dark - ?",23,"cave","recallproc1","recall"
"IS_JOL A",41,1,3,"BlockProc1","Take - Seize","B",24,30,30362,"StudyProc7","JOL","BlockProc1","Take - ?",24,"grab","recallproc1","recall"
"IS_JOL A",41,1,3,"BlockProc1","Height - Growth","B",25,30,26659,"StudyProc7","JOL","BlockProc1","Height - ?",25,"growth","recallproc1","recall"
"IS_JOL A",41,1,3,"BlockProc1","Sentence - Word","B",26,55,21092,"StudyProc7","JOL","BlockProc1","Sentence - ?",26,"word","recallproc1","recall"
"IS_JOL A",41,1,3,"BlockProc1","Bug - Wasp","B",27,40,21673,"StudyProc7","JOL","BlockProc1","Bug - ?",27,"wasp","recallproc1","recall"
"IS_JOL A",41,1,3,"BlockProc1","Math - Division","B",28,80,21900,"StudyProc7","JOL","BlockProc1","Math - ?",28,"division","recallproc1","recall"
"IS_JOL A",41,1,3,"BlockProc1","Law - Attorney","B",29,50,21200,"StudyProc7","JOL","BlockProc1","Law - ?",29,"attorney","recallproc1","recall"
"IS_JOL A",41,1,3,"BlockProc1","Great - Fantastic","B",30,0,16184,"StudyProc7","JOL","BlockProc1","Great - ?",30,"amazing","recallproc1","recall"
"IS_JOL A",41,1,3,"BlockProc1","Key - Latch","B",31,60,28703,"StudyProc7","JOL","BlockProc1","Key - ?",31,"latch","recallproc1","recall"
"IS_JOL A",41,1,3,"BlockProc1","Hot - Chili","B",32,20,20199,"StudyProc7","JOL","BlockProc1","Hot - ?",32,"chili","recallproc1","recall"
"IS_JOL A",41,1,3,"BlockProc1","Ball - Racket","B",33,50,33189,"StudyProc7","JOL","BlockProc1","Ball - ?",33,"racket","recallproc1","recall"
"IS_JOL A",41,1,3,"BlockProc1","Work - Chore","B",34,40,28260,"StudyProc7","JOL","BlockProc1","Work - ?",34,"chore","recallproc1","recall"
"IS_JOL A",41,1,3,"BlockProc1","Hunger - Famine","B",35,40,20775,"StudyProc7","JOL","BlockProc1","Hunger - ?",35,"famine","recallproc1","recall"
"IS_JOL A",41,1,3,"BlockProc1","Sleep - Drowsy","B",36,40,24475,"StudyProc7","JOL","BlockProc1","Sleep - ?",36,"tired","recallproc1","recall"
"IS_JOL A",41,1,3,"BlockProc1","Smell - Stench","B",37,60,29925,"StudyProc7","JOL","BlockProc1","Smell - ?",37,"stench","recallproc1","recall"
"IS_JOL A",41,1,3,"BlockProc1","Clothes - Attire","B",38,50,23670,"StudyProc7","JOL","BlockProc1","Clothes - ?",38,"attire","recallproc1","recall"
"IS_JOL A",41,1,3,"BlockProc1","Plane - Pilot","B",39,70,34206,"StudyProc7","JOL","BlockProc1","Plane - ?",39,"pilot","recallproc1","recall"
"IS_JOL A",41,1,3,"BlockProc1","Fire - Blaze","B",40,30,24882,"StudyProc7","JOL","BlockProc1","Fire - ?",40,"blaze","recallproc1","recall"
"IS_JOL A",41,1,3,"BlockProc1","Due - Assignment","S",41,70,22713,"StudyProc3","JOL","BlockProc1","Due - ?",41,"assignment","recallproc1","recall"
"IS_JOL A",41,1,3,"BlockProc1","Number - Amount","S",42,40,22220,"StudyProc3","JOL","BlockProc1","Number - ?",42,"amount","recallproc1","recall"
"IS_JOL A",41,1,3,"BlockProc1","Location - Site","S",43,60,20141,"StudyProc3","JOL","BlockProc1","Location - ?",43,"site","recallproc1","recall"
"IS_JOL A",41,1,3,"BlockProc1","Dump - Waste","S",44,70,23263,"StudyProc3","JOL","BlockProc1","Dump - ?",44,"waste","recallproc1","recall"
"IS_JOL A",41,1,3,"BlockProc1","Trial - Jury","S",45,80,20644,"StudyProc3","JOL","BlockProc1","Trial - ?",45,"jury","recallproc1","recall"
"IS_JOL A",41,1,3,"BlockProc1","Architecture - Design","S",46,80,21885,"StudyProc3","JOL","BlockProc1","Architecture - ?",46,"design","recallproc1","recall"
"IS_JOL A",41,1,3,"BlockProc1","Grill - Bar","S",47,80,23643,"StudyProc3","JOL","BlockProc1","Grill - ?",47,"bar","recallproc1","recall"
"IS_JOL A",41,1,3,"BlockProc1","Kidney - Liver","S",48,60,27461,"StudyProc3","JOL","BlockProc1","Kidney - ?",48,"liver","recallproc1","recall"
"IS_JOL A",41,1,3,"BlockProc1","Begin - End","S",49,80,14615,"StudyProc3","JOL","BlockProc1","Begin - ?",49,"end","recallproc1","recall"
"IS_JOL A",41,1,3,"BlockProc1","Blow - Wind","S",50,60,26870,"StudyProc3","JOL","BlockProc1","Blow - ?",50,"wind","recallproc1","recall"
"IS_JOL A",41,1,3,"BlockProc1","Pop - Soda","S",51,75,29439,"StudyProc3","JOL","BlockProc1","Pop - ?",51,"soda","recallproc1","recall"
"IS_JOL A",41,1,3,"BlockProc1","Wine - Cheese","S",52,85,25672,"StudyProc3","JOL","BlockProc1","Wine - ?",52,"cheese","recallproc1","recall"
"IS_JOL A",41,1,3,"BlockProc1","Bathroom - Toilet","S",53,70,22566,"StudyProc3","JOL","BlockProc1","Bathroom - ?",53,"toilet","recallproc1","recall"
"IS_JOL A",41,1,3,"BlockProc1","Lettuce - Salad","S",54,75,23796,"StudyProc3","JOL","BlockProc1","Lettuce - ?",54,"salad","recallproc1","recall"
"IS_JOL A",41,1,3,"BlockProc1","Shoe - Foot","S",55,80,34243,"StudyProc3","JOL","BlockProc1","Shoe - ?",55,"foot","recallproc1","recall"
"IS_JOL A",41,1,3,"BlockProc1","Past - Future","S",56,90,17105,"StudyProc3","JOL","BlockProc1","Past - ?",56,"future","recallproc1","recall"
"IS_JOL A",41,1,3,"BlockProc1","Choice - Decision","S",57,75,25421,"StudyProc3","JOL","BlockProc1","Choice - ?",57,"decision","recallproc1","recall"
"IS_JOL A",41,1,3,"BlockProc1","Honey - Bee","S",58,90,25141,"StudyProc3","JOL","BlockProc1","Honey - ?",58,"bee","recallproc1","recall"
"IS_JOL A",41,1,3,"BlockProc1","Baby - Child","S",59,85,21737,"StudyProc3","JOL","BlockProc1","Baby - ?",59,"child","recallproc1","recall"
"IS_JOL A",41,1,3,"BlockProc1","Circle - Round","S",60,80,24999,"StudyProc3","JOL","BlockProc1","Circle - ?",60,"round","recallproc1","recall"
"IS_JOL A",41,1,3,"BlockProc1","Pusher - Clutter","U",61,4,19838,"StudyProc3","JOL","BlockProc1","Pusher - ?",61,"leader","recallproc1","recall"
"IS_JOL A",41,1,3,"BlockProc1","Dietary - Slacking","U",62,8,19568,"StudyProc3","JOL","BlockProc1","Dietary - ?",62,"meal","recallproc1","recall"
"IS_JOL A",41,1,3,"BlockProc1","Park - Hungry","U",63,30,22783,"StudyProc3","JOL","BlockProc1","Park - ?",63,"hungry","recallproc1","recall"
"IS_JOL A",41,1,3,"BlockProc1","Lift - Woman","U",64,20,15724,"StudyProc3","JOL","BlockProc1","Lift - ?",64,"strong","recallproc1","recall"
"IS_JOL A",41,1,3,"BlockProc1","Soon - Belt","U",65,10,25678,"StudyProc3","JOL","BlockProc1","Soon - ?",65,"latert","recallproc1","recall"
"IS_JOL A",41,1,3,"BlockProc1","Discover - Floor","U",66,20,30161,"StudyProc3","JOL","BlockProc1","Discover - ?",66,"find","recallproc1","recall"
"IS_JOL A",41,1,3,"BlockProc1","Death - Business","U",67,70,23973,"StudyProc3","JOL","BlockProc1","Death - ?",67,"finish","recallproc1","recall"
"IS_JOL A",41,1,3,"BlockProc1","Debate - Sight","U",68,15,21122,"StudyProc3","JOL","BlockProc1","Debate - ?",68,"discussion","recallproc1","recall"
"IS_JOL A",41,1,3,"BlockProc1","Artery - Bronze","U",69,15,20601,"StudyProc3","JOL","BlockProc1","Artery - ?",69,"tree","recallproc1","recall"
"IS_JOL A",41,1,3,"BlockProc1","Fix - Hand","U",70,20,18532,"StudyProc3","JOL","BlockProc1","Fix - ?",70,"hammer","recallproc1","recall"
"IS_JOL A",41,1,3,"BlockProc1","Machine - Position","U",71,50,24974,"StudyProc3","JOL","BlockProc1","Machine - ?",71,"assignment","recallproc1","recall"
"IS_JOL A",41,1,3,"BlockProc1","Happy - Car","U",72,25,14347,"StudyProc3","JOL","BlockProc1","Happy - ?",72,"joyful","recallproc1","recall"
"IS_JOL A",41,1,3,"BlockProc1","Allow - Tuck","U",73,8,25068,"StudyProc3","JOL","BlockProc1","Allow - ?",73,"park","recallproc1","recall"
"IS_JOL A",41,1,3,"BlockProc1","Art - Lion","U",74,10,22447,"StudyProc3","JOL","BlockProc1","Art - ?",74,"design","recallproc1","recall"
"IS_JOL A",41,1,3,"BlockProc1","Strong - Accident","U",75,65,28847,"StudyProc3","JOL","BlockProc1","Strong - ?",75,"weak","recallproc1","recall"
"IS_JOL A",41,1,3,"BlockProc1","Sugar - Riddle","U",76,20,14423,"StudyProc3","JOL","BlockProc1","Sugar - ?",76,"pill","recallproc1","recall"
"IS_JOL A",41,1,3,"BlockProc1","Valley - Add","U",77,10,23664,"StudyProc3","JOL","BlockProc1","Valley - ?",77,"herd","recallproc1","recall"
"IS_JOL A",41,1,3,"BlockProc1","Cash - Would","U",78,15,17833,"StudyProc3","JOL","BlockProc1","Cash - ?",78,"money","recallproc1","recall"
"IS_JOL A",41,1,3,"BlockProc1","Hide - Sick","U",79,70,21975,"StudyProc3","JOL","BlockProc1","Hide - ?",79,"seize","recallproc1","recall"
"IS_JOL A",41,1,3,"BlockProc1","King - Vase","U",80,10,16813,"StudyProc3","JOL","BlockProc1","King - ?",80,"green","recallproc1","recall"
"RL_JOL A",45,1,3,"BlockProc1","Hornet - Sting","F",6,84,18957,"StudyProc7","JOL","BlockProc1","Hornet - ?",6,"sting","recallproc1","recall"
"RL_JOL A",45,1,3,"BlockProc1","Bitter - Cold","F",7,46,22198,"StudyProc7","JOL","BlockProc1","Bitter - ?",7,"cold","recallproc1","recall"
"RL_JOL A",45,1,3,"BlockProc1","Root - Plant","F",8,95,9051,"StudyProc7","JOL","BlockProc1","Root - ?",8,"plant","recallproc1","recall"
"RL_JOL A",45,1,3,"BlockProc1","Swan - Bird","F",9,96,13019,"StudyProc7","JOL","BlockProc1","Swan - ?",9,"bird","recallproc1","recall"
"RL_JOL A",45,1,3,"BlockProc1","Paw - Dog","F",10,100,10183,"StudyProc7","JOL","BlockProc1","Paw - ?",10,"dog","recallproc1","recall"
"RL_JOL A",45,1,3,"BlockProc1","Way - Out","F",11,89,19824,"StudyProc7","JOL","BlockProc1","Way - ?",11,"out","recallproc1","recall"
"RL_JOL A",45,1,3,"BlockProc1","Hygiene - Clean","F",12,96,15564,"StudyProc7","JOL","BlockProc1","Hygiene - ?",12,"clean","recallproc1","recall"
"RL_JOL A",45,1,3,"BlockProc1","Bridge - Water","F",13,79,14715,"StudyProc7","JOL","BlockProc1","Bridge - ?",13,"water","recallproc1","recall"
"RL_JOL A",45,1,3,"BlockProc1","Geology - Rock","F",14,75,10441,"StudyProc7","JOL","BlockProc1","Geology - ?",14,"rocks","recallproc1","recall"
"RL_JOL A",45,1,3,"BlockProc1","Revolution - War","F",15,78,25191,"StudyProc7","JOL","BlockProc1","Revolution - ?",15,"war","recallproc1","recall"
"RL_JOL A",45,1,3,"BlockProc1","Discussion - Talk","F",16,87,14783,"StudyProc7","JOL","BlockProc1","Discussion - ?",16,"talk","recallproc1","recall"
"RL_JOL A",45,1,3,"BlockProc1","Herd - Cow","F",17,83,11930,"StudyProc7","JOL","BlockProc1","Herd - ?",17,"cow","recallproc1","recall"
"RL_JOL A",45,1,3,"BlockProc1","Credit - Card","F",18,81,14323,"StudyProc7","JOL","BlockProc1","Credit - ?",18,"card","recallproc1","recall"
"RL_JOL A",45,1,3,"BlockProc1","Orchid - Flower","F",19,86,22182,"StudyProc7","JOL","BlockProc1","Orchid - ?",19,"flower","recallproc1","recall"
"RL_JOL A",45,1,3,"BlockProc1","Tuna - Fish","F",20,90,6091,"StudyProc7","JOL","BlockProc1","Tuna - ?",20,"fish","recallproc1","recall"
"RL_JOL A",45,1,3,"BlockProc1","Full - Enough","B",21,92,17972,"StudyProc7","JOL","BlockProc1","Full - ?",21,"enough","recallproc1","recall"
"RL_JOL A",45,1,3,"BlockProc1","Drink - Sip","B",22,78,14013,"StudyProc7","JOL","BlockProc1","Drink - ?",22,"sip","recallproc1","recall"
"RL_JOL A",45,1,3,"BlockProc1","Dark - Cave","B",23,86,9159,"StudyProc7","JOL","BlockProc1","Dark - ?",23,"cave","recallproc1","recall"
"RL_JOL A",45,1,3,"BlockProc1","Take - Seize","B",24,55,33416,"StudyProc7","JOL","BlockProc1","Take - ?",24,"grab","recallproc1","recall"
"RL_JOL A",45,1,3,"BlockProc1","Height - Growth","B",25,80,24322,"StudyProc7","JOL","BlockProc1","Height - ?",25,"growth","recallproc1","recall"
"RL_JOL A",45,1,3,"BlockProc1","Sentence - Word","B",26,94,8775,"StudyProc7","JOL","BlockProc1","Sentence - ?",26,"word","recallproc1","recall"
"RL_JOL A",45,1,3,"BlockProc1","Bug - Wasp","B",27,86,10583,"StudyProc7","JOL","BlockProc1","Bug - ?",27,"wasp","recallproc1","recall"
"RL_JOL A",45,1,3,"BlockProc1","Math - Division","B",28,78,13533,"StudyProc7","JOL","BlockProc1","Math - ?",28,"division","recallproc1","recall"
"RL_JOL A",45,1,3,"BlockProc1","Law - Attorney","B",29,76,10709,"StudyProc7","JOL","BlockProc1","Law - ?",29,"attorney","recallproc1","recall"
"RL_JOL A",45,1,3,"BlockProc1","Great - Fantastic","B",30,90,14514,"StudyProc7","JOL","BlockProc1","Great - ?",30,"fantastic","recallproc1","recall"
"RL_JOL A",45,1,3,"BlockProc1","Key - Latch","B",31,84,16245,"StudyProc7","JOL","BlockProc1","Key - ?",31,"latch","recallproc1","recall"
"RL_JOL A",45,1,3,"BlockProc1","Hot - Chili","B",32,99,17115,"StudyProc7","JOL","BlockProc1","Hot - ?",32,"chili","recallproc1","recall"
"RL_JOL A",45,1,3,"BlockProc1","Ball - Racket","B",33,98,10850,"StudyProc7","JOL","BlockProc1","Ball - ?",33,"circle","recallproc1","recall"
"RL_JOL A",45,1,3,"BlockProc1","Work - Chore","B",34,98,10372,"StudyProc7","JOL","BlockProc1","Work - ?",34,"chore","recallproc1","recall"
"RL_JOL A",45,1,3,"BlockProc1","Hunger - Famine","B",35,60,21901,"StudyProc7","JOL","BlockProc1","Hunger - ?",35,"famine","recallproc1","recall"
"RL_JOL A",45,1,3,"BlockProc1","Sleep - Drowsy","B",36,90,15276,"StudyProc7","JOL","BlockProc1","Sleep - ?",36,"drowsey","recallproc1","recall"
"RL_JOL A",45,1,3,"BlockProc1","Smell - Stench","B",37,78,19431,"StudyProc7","JOL","BlockProc1","Smell - ?",37,"stench","recallproc1","recall"
"RL_JOL A",45,1,3,"BlockProc1","Clothes - Attire","B",38,89,17882,"StudyProc7","JOL","BlockProc1","Clothes - ?",38,"sweater","recallproc1","recall"
"RL_JOL A",45,1,3,"BlockProc1","Plane - Pilot","B",39,90,19039,"StudyProc7","JOL","BlockProc1","Plane - ?",39,"piolet","recallproc1","recall"
"RL_JOL A",45,1,3,"BlockProc1","Fire - Blaze","B",40,97,13663,"StudyProc7","JOL","BlockProc1","Fire - ?",40,"blaze","recallproc1","recall"
"RL_JOL A",45,1,3,"BlockProc1","Due - Assignment","S",41,87,19962,"StudyProc3","JOL","BlockProc1","Due - ?",41,"assignment","recallproc1","recall"
"RL_JOL A",45,1,3,"BlockProc1","Number - Amount","S",42,95,20991,"StudyProc3","JOL","BlockProc1","Number - ?",42,"amount","recallproc1","recall"
"RL_JOL A",45,1,3,"BlockProc1","Location - Site","S",43,76,21815,"StudyProc3","JOL","BlockProc1","Location - ?",43,"site","recallproc1","recall"
"RL_JOL A",45,1,3,"BlockProc1","Dump - Waste","S",44,89,12715,"StudyProc3","JOL","BlockProc1","Dump - ?",44,"waste","recallproc1","recall"
"RL_JOL A",45,1,3,"BlockProc1","Trial - Jury","S",45,97,15608,"StudyProc3","JOL","BlockProc1","Trial - ?",45,"jury","recallproc1","recall"
"RL_JOL A",45,1,3,"BlockProc1","Architecture - Design","S",46,89,14264,"StudyProc3","JOL","BlockProc1","Architecture - ?",46,"design","recallproc1","recall"
"RL_JOL A",45,1,3,"BlockProc1","Grill - Bar","S",47,89,31274,"StudyProc3","JOL","BlockProc1","Grill - ?",47,"bar","recallproc1","recall"
"RL_JOL A",45,1,3,"BlockProc1","Kidney - Liver","S",48,100,4517,"StudyProc3","JOL","BlockProc1","Kidney - ?",48,"liver","recallproc1","recall"
"RL_JOL A",45,1,3,"BlockProc1","Begin - End","S",49,89,9832,"StudyProc3","JOL","BlockProc1","Begin - ?",49,"end","recallproc1","recall"
"RL_JOL A",45,1,3,"BlockProc1","Blow - Wind","S",50,90,14614,"StudyProc3","JOL","BlockProc1","Blow - ?",50,"wind","recallproc1","recall"
"RL_JOL A",45,1,3,"BlockProc1","Pop - Soda","S",51,100,15508,"StudyProc3","JOL","BlockProc1","Pop - ?",51,"soda","recallproc1","recall"
"RL_JOL A",45,1,3,"BlockProc1","Wine - Cheese","S",52,92,19505,"StudyProc3","JOL","BlockProc1","Wine - ?",52,"cheese","recallproc1","recall"
"RL_JOL A",45,1,3,"BlockProc1","Bathroom - Toilet","S",53,98,10894,"StudyProc3","JOL","BlockProc1","Bathroom - ?",53,"toilet","recallproc1","recall"
"RL_JOL A",45,1,3,"BlockProc1","Lettuce - Salad","S",54,80,18311,"StudyProc3","JOL","BlockProc1","Lettuce - ?",54,"salad","recallproc1","recall"
"RL_JOL A",45,1,3,"BlockProc1","Shoe - Foot","S",55,99,13720,"StudyProc3","JOL","BlockProc1","Shoe - ?",55,"foot","recallproc1","recall"
"RL_JOL A",45,1,3,"BlockProc1","Past - Future","S",56,99,11567,"StudyProc3","JOL","BlockProc1","Past - ?",56,"future","recallproc1","recall"
"RL_JOL A",45,1,3,"BlockProc1","Choice - Decision","S",57,88,15455,"StudyProc3","JOL","BlockProc1","Choice - ?",57,"decision","recallproc1","recall"
"RL_JOL A",45,1,3,"BlockProc1","Honey - Bee","S",58,97,10013,"StudyProc3","JOL","BlockProc1","Honey - ?",58,"bee","recallproc1","recall"
"RL_JOL A",45,1,3,"BlockProc1","Baby - Child","S",59,87,10268,"StudyProc3","JOL","BlockProc1","Baby - ?",59,"child","recallproc1","recall"
"RL_JOL A",45,1,3,"BlockProc1","Circle - Round","S",60,89,14125,"StudyProc3","JOL","BlockProc1","Circle - ?",60,"round","recallproc1","recall"
"RL_JOL A",45,1,3,"BlockProc1","Pusher - Clutter","U",61,10,70050,"StudyProc3","JOL","BlockProc1","Pusher - ?",61,"clutter","recallproc1","recall"
"RL_JOL A",45,1,3,"BlockProc1","Dietary - Slacking","U",62,77,35142,"StudyProc3","JOL","BlockProc1","Dietary - ?",62,"slacker","recallproc1","recall"
"RL_JOL A",45,1,3,"BlockProc1","Park - Hungry","U",63,88,12513,"StudyProc3","JOL","BlockProc1","Park - ?",63,"hungry","recallproc1","recall"
"RL_JOL A",45,1,3,"BlockProc1","Lift - Woman","U",64,90,24992,"StudyProc3","JOL","BlockProc1","Lift - ?",64,"woman","recallproc1","recall"
"RL_JOL A",45,1,3,"BlockProc1","Soon - Belt","U",65,66,23531,"StudyProc3","JOL","BlockProc1","Soon - ?",65,"belt","recallproc1","recall"
"RL_JOL A",45,1,3,"BlockProc1","Discover - Floor","U",66,20,41658,"StudyProc3","JOL","BlockProc1","Discover - ?",66,"floor","recallproc1","recall"
"RL_JOL A",45,1,3,"BlockProc1","Death - Business","U",67,67,17772,"StudyProc3","JOL","BlockProc1","Death - ?",67,"business","recallproc1","recall"
"RL_JOL A",45,1,3,"BlockProc1","Debate - Sight","U",68,0,42578,"StudyProc3","JOL","BlockProc1","Debate - ?",68,"talk","recallproc1","recall"
"RL_JOL A",45,1,3,"BlockProc1","Artery - Bronze","U",69,10,20819,"StudyProc3","JOL","BlockProc1","Artery - ?",69,"iron","recallproc1","recall"
"RL_JOL A",45,1,3,"BlockProc1","Fix - Hand","U",70,91,13267,"StudyProc3","JOL","BlockProc1","Fix - ?",70,"hand","recallproc1","recall"
"RL_JOL A",45,1,3,"BlockProc1","Machine - Position","U",71,82,17944,"StudyProc3","JOL","BlockProc1","Machine - ?",71,"postion","recallproc1","recall"
"RL_JOL A",45,1,3,"BlockProc1","Happy - Car","U",72,90,13028,"StudyProc3","JOL","BlockProc1","Happy - ?",72,"car","recallproc1","recall"
"RL_JOL A",45,1,3,"BlockProc1","Allow - Tuck","U",73,30,27583,"StudyProc3","JOL","BlockProc1","Allow - ?",73,"sight","recallproc1","recall"
"RL_JOL A",45,1,3,"BlockProc1","Art - Lion","U",74,45,9809,"StudyProc3","JOL","BlockProc1","Art - ?",74,"lion","recallproc1","recall"
"RL_JOL A",45,1,3,"BlockProc1","Strong - Accident","U",75,40,23567,"StudyProc3","JOL","BlockProc1","Strong - ?",75,"woman","recallproc1","recall"
"RL_JOL A",45,1,3,"BlockProc1","Sugar - Riddle","U",76,56,42648,"StudyProc3","JOL","BlockProc1","Sugar - ?",76,"salt","recallproc1","recall"
"RL_JOL A",45,1,3,"BlockProc1","Valley - Add","U",77,10,26372,"StudyProc3","JOL","BlockProc1","Valley - ?",77,"add","recallproc1","recall"
"RL_JOL A",45,1,3,"BlockProc1","Cash - Would","U",78,76,19439,"StudyProc3","JOL","BlockProc1","Cash - ?",78,"would","recallproc1","recall"
"RL_JOL A",45,1,3,"BlockProc1","Hide - Sick","U",79,75,16503,"StudyProc3","JOL","BlockProc1","Hide - ?",79,"sick","recallproc1","recall"
"RL_JOL A",45,1,3,"BlockProc1","King - Vase","U",80,66,24386,"StudyProc3","JOL","BlockProc1","King - ?",80,"vase","recallproc1","recall"
"IS_JOL A",41,2,3,"BlockProc2","Adjourn - End","F",6,40,6220,"StudyProc5","JOL","BlockProc2","Adjourn - ?",6,"end","recallproc2","recall"
"IS_JOL A",41,2,3,"BlockProc2","Furry - Dog","F",7,30,4625,"StudyProc5","JOL","BlockProc2","Furry - ?",7,"BUNNY","recallproc2","recall"
"IS_JOL A",41,2,3,"BlockProc2","Litter - Trash","F",8,80,7051,"StudyProc5","JOL","BlockProc2","Litter - ?",8,"trash","recallproc2","recall"
"IS_JOL A",41,2,3,"BlockProc2","Cherry - Red","F",9,80,6387,"StudyProc5","JOL","BlockProc2","Cherry - ?",9,"red","recallproc2","recall"
"IS_JOL A",41,2,3,"BlockProc2","Scalp - Head","F",10,20,3951,"StudyProc5","JOL","BlockProc2","Scalp - ?",10,"HEAD","recallproc2","recall"
"IS_JOL A",41,2,3,"BlockProc2","Driver - Car","F",11,60,4831,"StudyProc5","JOL","BlockProc2","Driver - ?",11,"car","recallproc2","recall"
"IS_JOL A",41,2,3,"BlockProc2","Chop - Cut","F",12,50,9071,"StudyProc5","JOL","BlockProc2","Chop - ?",12,"cut","recallproc2","recall"
"IS_JOL A",41,2,3,"BlockProc2","Mule - Donkey","F",13,80,5022,"StudyProc5","JOL","BlockProc2","Mule - ?",13,"DONKEY","recallproc2","recall"
"IS_JOL A",41,2,3,"BlockProc2","Document - Paper","F",14,60,12687,"StudyProc5","JOL","BlockProc2","Document - ?",14,"PAPER","recallproc2","recall"
"IS_JOL A",41,2,3,"BlockProc2","Incense - Smell","F",15,30,9885,"StudyProc5","JOL","BlockProc2","Incense - ?",15,"SMELL","recallproc2","recall"
"IS_JOL A",41,2,3,"BlockProc2","Dine - Eat","F",16,80,6736,"StudyProc5","JOL","BlockProc2","Dine - ?",16,"eat","recallproc2","recall"
"IS_JOL A",41,2,3,"BlockProc2","Shears - Scissors","F",17,20,11461,"StudyProc5","JOL","BlockProc2","Shears - ?",17,"scissors","recallproc2","recall"
"IS_JOL A",41,2,3,"BlockProc2","Feud - Fight","F",18,30,2952,"StudyProc5","JOL","BlockProc2","Feud - ?",18,"fight","recallproc2","recall"
"IS_JOL A",41,2,3,"BlockProc2","Chill - Cold","F",19,50,9049,"StudyProc5","JOL","BlockProc2","Chill - ?",19,"COLD","recallproc2","recall"
"IS_JOL A",41,2,3,"BlockProc2","Affection - Love","F",20,50,3436,"StudyProc5","JOL","BlockProc2","Affection - ?",20,"LOVE","recallproc2","recall"
"IS_JOL A",41,2,3,"BlockProc2","Turn - Flip","B",21,20,5288,"StudyProc5","JOL","BlockProc2","Turn - ?",21,"KEY","recallproc2","recall"
"IS_JOL A",41,2,3,"BlockProc2","Car - Windshield","B",22,50,2853,"StudyProc5","JOL","BlockProc2","Car - ?",22,"drie","recallproc2","recall"
"IS_JOL A",41,2,3,"BlockProc2","Bad - Villain","B",23,40,4531,"StudyProc5","JOL","BlockProc2","Bad - ?",23,"GOOD","recallproc2","recall"
"IS_JOL A",41,2,3,"BlockProc2","Bird - Penguin","B",24,70,7302,"StudyProc5","JOL","BlockProc2","Bird - ?",24,"peguin","recallproc2","recall"
"IS_JOL A",41,2,3,"BlockProc2","Star - Actress","B",25,40,17109,"StudyProc5","JOL","BlockProc2","Star - ?",25,"actress","recallproc2","recall"
"IS_JOL A",41,2,3,"BlockProc2","Thread - Thimble","B",26,40,2719,"StudyProc5","JOL","BlockProc2","Thread - ?",26,"NEEDLE","recallproc2","recall"
"IS_JOL A",41,2,3,"BlockProc2","Even - Revenge","B",27,30,8506,"StudyProc5","JOL","BlockProc2","Even - ?",27,"ODD","recallproc2","recall"
"IS_JOL A",41,2,3,"BlockProc2","Pop - Balloon","B",28,80,6444,"StudyProc5","JOL","BlockProc2","Pop - ?",28,"SODA","recallproc2","recall"
"IS_JOL A",41,2,3,"BlockProc2","Fruit - Strawberry","B",29,90,4350,"StudyProc5","JOL","BlockProc2","Fruit - ?",29,"strawberry","recallproc2","recall"
"IS_JOL A",41,2,3,"BlockProc2","Best - Favorite","B",30,60,6669,"StudyProc5","JOL","BlockProc2","Best - ?",30,"greatest","recallproc2","recall"
"IS_JOL A",41,2,3,"BlockProc2","Cat - Panther","B",31,30,4194,"StudyProc5","JOL","BlockProc2","Cat - ?",31,"CAR","recallproc2","recall"
"IS_JOL A",41,2,3,"BlockProc2","Glass - Breakable","B",32,40,11875,"StudyProc5","JOL","BlockProc2","Glass - ?",32,"BREAKABLE","recallproc2","recall"
"IS_JOL A",41,2,3,"BlockProc2","Dead - Coffin","B",33,80,3184,"StudyProc5","JOL","BlockProc2","Dead - ?",33,"COFFIN","recallproc2","recall"
"IS_JOL A",41,2,3,"BlockProc2","Plane - Aircraft","B",34,80,4037,"StudyProc5","JOL","BlockProc2","Plane - ?",34,"AIRCRAFT","recallproc2","recall"
"IS_JOL A",41,2,3,"BlockProc2","Fish - Sardine","B",35,60,3270,"StudyProc5","JOL","BlockProc2","Fish - ?",35,"water","recallproc2","recall"
"IS_JOL A",41,2,3,"BlockProc2","Baseball - League","B",36,80,3176,"StudyProc5","JOL","BlockProc2","Baseball - ?",36,"league","recallproc2","recall"
"IS_JOL A",41,2,3,"BlockProc2","Money - Banker","B",37,60,11553,"StudyProc5","JOL","BlockProc2","Money - ?",37,"CASH","recallproc2","recall"
"IS_JOL A",41,2,3,"BlockProc2","Honest - Truthful","B",38,20,3628,"StudyProc5","JOL","BlockProc2","Honest - ?",38,"truthfu","recallproc2","recall"
"IS_JOL A",41,2,3,"BlockProc2","Sleep - Nap","B",39,60,8410,"StudyProc5","JOL","BlockProc2","Sleep - ?",39,"DREAM","recallproc2","recall"
"IS_JOL A",41,2,3,"BlockProc2","Fight - Brawl","B",40,30,5775,"StudyProc5","JOL","BlockProc2","Fight - ?",40,"brawl","recallproc2","recall"
"IS_JOL A",41,2,3,"BlockProc2","Razor - Shave","S",41,80,9228,"StudyProc8","JOL","BlockProc2","Razor - ?",41,"BLADE","recallproc2","recall"
"IS_JOL A",41,2,3,"BlockProc2","Rights - Equal","S",42,50,11407,"StudyProc8","JOL","BlockProc2","Rights - ?",42,"dignity","recallproc2","recall"
"IS_JOL A",41,2,3,"BlockProc2","Mason - Jar","S",43,80,6387,"StudyProc8","JOL","BlockProc2","Mason - ?",43,"jar","recallproc2","recall"
"IS_JOL A",41,2,3,"BlockProc2","Candle - Wax","S",44,70,9368,"StudyProc8","JOL","BlockProc2","Candle - ?",44,"WAX","recallproc2","recall"
"IS_JOL A",41,2,3,"BlockProc2","Wrist - Bracelet","S",45,90,6295,"StudyProc8","JOL","BlockProc2","Wrist - ?",45,"bracelet","recallproc2","recall"
"IS_JOL A",41,2,3,"BlockProc2","Element - Carbon","S",46,90,8293,"StudyProc8","JOL","BlockProc2","Element - ?",46,"CARBON","recallproc2","recall"
"IS_JOL A",41,2,3,"BlockProc2","Gone - Away","S",47,80,5668,"StudyProc8","JOL","BlockProc2","Gone - ?",47,"AWAY","recallproc2","recall"
"IS_JOL A",41,2,3,"BlockProc2","Water - Drink","S",48,70,6335,"StudyProc8","JOL","BlockProc2","Water - ?",48,"sea","recallproc2","recall"
"IS_JOL A",41,2,3,"BlockProc2","Earth - Ground","S",49,50,7146,"StudyProc8","JOL","BlockProc2","Earth - ?",49,"ground","recallproc2","recall"
"IS_JOL A",41,2,3,"BlockProc2","Alone - Lonely","S",50,80,5371,"StudyProc8","JOL","BlockProc2","Alone - ?",50,"lonely","recallproc2","recall"
"IS_JOL A",41,2,3,"BlockProc2","Dry - Wet","S",51,90,4776,"StudyProc8","JOL","BlockProc2","Dry - ?",51,"wet","recallproc2","recall"
"IS_JOL A",41,2,3,"BlockProc2","Safety - Seatbelt","S",52,80,5913,"StudyProc8","JOL","BlockProc2","Safety - ?",52,"SEATBET","recallproc2","recall"
"IS_JOL A",41,2,3,"BlockProc2","Truth - Lie","S",53,90,4240,"StudyProc8","JOL","BlockProc2","Truth - ?",53,"lie","recallproc2","recall"
"IS_JOL A",41,2,3,"BlockProc2","Phone - Communicatio","S",54,80,9071,"StudyProc8","JOL","BlockProc2","Phone - ?",54,"talk","recallproc2","recall"
"IS_JOL A",41,2,3,"BlockProc2","Rod - Reel","S",55,60,6726,"StudyProc8","JOL","BlockProc2","Rod - ?",55,"reel","recallproc2","recall"
"IS_JOL A",41,2,3,"BlockProc2","Flea - Tick","S",56,50,5221,"StudyProc8","JOL","BlockProc2","Flea - ?",56,"TICKS","recallproc2","recall"
"IS_JOL A",41,2,3,"BlockProc2","Loud - Noise","S",57,60,11415,"StudyProc8","JOL","BlockProc2","Loud - ?",57,"HIGH","recallproc2","recall"
"IS_JOL A",41,2,3,"BlockProc2","Own - Have","S",58,80,8875,"StudyProc8","JOL","BlockProc2","Own - ?",58,"have","recallproc2","recall"
"IS_JOL A",41,2,3,"BlockProc2","Tantrum - Temper","S",59,70,7250,"StudyProc8","JOL","BlockProc2","Tantrum - ?",59,"TEMPER","recallproc2","recall"
"IS_JOL A",41,2,3,"BlockProc2","Sun - Tan","S",60,90,8586,"StudyProc8","JOL","BlockProc2","Sun - ?",60,"STAR","recallproc2","recall"
"IS_JOL A",41,2,3,"BlockProc2","Justice - Maroon","U",61,10,21263,"StudyProc8","JOL","BlockProc2","Justice - ?",61,"DEFENDANTY","recallproc2","recall"
"IS_JOL A",41,2,3,"BlockProc2","Stretch - Cloth","U",62,2,12881,"StudyProc8","JOL","BlockProc2","Stretch - ?",62,"expand","recallproc2","recall"
"IS_JOL A",41,2,3,"BlockProc2","Give - Steak","U",63,6,7812,"StudyProc8","JOL","BlockProc2","Give - ?",63,"TAKE","recallproc2","recall"
"IS_JOL A",41,2,3,"BlockProc2","Maze - Election","U",64,20,13272,"StudyProc8","JOL","BlockProc2","Maze - ?",64,"color","recallproc2","recall"
"IS_JOL A",41,2,3,"BlockProc2","Vehicle - Charm","U",65,4,4225,"StudyProc8","JOL","BlockProc2","Vehicle - ?",65,"CAR","recallproc2","recall"
"IS_JOL A",41,2,3,"BlockProc2","Meat - Obtain","U",66,2,6590,"StudyProc8","JOL","BlockProc2","Meat - ?",66,"CAR","recallproc2","recall"
"IS_JOL A",41,2,3,"BlockProc2","Crackle - Able","U",67,4,5991,"StudyProc8","JOL","BlockProc2","Crackle - ?",67,"FIRE","recallproc2","recall"
"IS_JOL A",41,2,3,"BlockProc2","Shell - Shake","U",68,10,10843,"StudyProc8","JOL","BlockProc2","Shell - ?",68,"SOCK","recallproc2","recall"
"IS_JOL A",41,2,3,"BlockProc2","Listen - Fiction","U",69,20,11459,"StudyProc8","JOL","BlockProc2","Listen - ?",69,"HEAR","recallproc2","recall"
"IS_JOL A",41,2,3,"BlockProc2","Keys - Joke","U",70,20,5394,"StudyProc8","JOL","BlockProc2","Keys - ?",70,"DOOR","recallproc2","recall"
"IS_JOL A",41,2,3,"BlockProc2","Cake - Clothes","U",71,60,7140,"StudyProc8","JOL","BlockProc2","Cake - ?",71,"cold","recallproc2","recall"
"IS_JOL A",41,2,3,"BlockProc2","Name - Hate","U",72,10,7365,"StudyProc8","JOL","BlockProc2","Name - ?",72,"STENCH","recallproc2","recall"
"IS_JOL A",41,2,3,"BlockProc2","Fuzzy - Bang","U",73,3,6179,"StudyProc8","JOL","BlockProc2","Fuzzy - ?",73,"FRUIT","recallproc2","recall"
"IS_JOL A",41,2,3,"BlockProc2","Moat - Clear","U",74,2,6872,"StudyProc8","JOL","BlockProc2","Moat - ?",74,"WATER","recallproc2","recall"
"IS_JOL A",41,2,3,"BlockProc2","Lease - Toil","U",75,2,4580,"StudyProc8","JOL","BlockProc2","Lease - ?",75,"home","recallproc2","recall"
"IS_JOL A",41,2,3,"BlockProc2","Loan - Sign","U",76,10,4950,"StudyProc8","JOL","BlockProc2","Loan - ?",76,"lend","recallproc2","recall"
"IS_JOL A",41,2,3,"BlockProc2","Both - Ounce","U",77,10,14869,"StudyProc8","JOL","BlockProc2","Both - ?",77,"CAR","recallproc2","recall"
"IS_JOL A",41,2,3,"BlockProc2","Temperature - Morning","U",78,10,12680,"StudyProc8","JOL","BlockProc2","Temperature - ?",78,"HOT","recallproc2","recall"
"IS_JOL A",41,2,3,"BlockProc2","Mirror - Children","U",79,0,7480,"StudyProc8","JOL","BlockProc2","Mirror - ?",79,"children","recallproc2","recall"
"IS_JOL A",41,2,3,"BlockProc2","Main - Scar","U",80,3,4641,"StudyProc8","JOL","BlockProc2","Main - ?",80,"pARK","recallproc2","recall"
"RL_JOL A",45,2,3,"BlockProc2","Adjourn - End","F",6,76,26037,"StudyProc5","JOL","BlockProc2","Adjourn - ?",6,"end","recallproc2","recall"
"RL_JOL A",45,2,3,"BlockProc2","Furry - Dog","F",7,90,8612,"StudyProc5","JOL","BlockProc2","Furry - ?",7,"dog","recallproc2","recall"
"RL_JOL A",45,2,3,"BlockProc2","Litter - Trash","F",8,79,11102,"StudyProc5","JOL","BlockProc2","Litter - ?",8,"tras","recallproc2","recall"
"RL_JOL A",45,2,3,"BlockProc2","Cherry - Red","F",9,99,6504,"StudyProc5","JOL","BlockProc2","Cherry - ?",9,"red","recallproc2","recall"
"RL_JOL A",45,2,3,"BlockProc2","Scalp - Head","F",10,98,4004,"StudyProc5","JOL","BlockProc2","Scalp - ?",10,"head","recallproc2","recall"
"RL_JOL A",45,2,3,"BlockProc2","Driver - Car","F",11,87,4047,"StudyProc5","JOL","BlockProc2","Driver - ?",11,"car","recallproc2","recall"
"RL_JOL A",45,2,3,"BlockProc2","Chop - Cut","F",12,65,10904,"StudyProc5","JOL","BlockProc2","Chop - ?",12,"cut","recallproc2","recall"
"RL_JOL A",45,2,3,"BlockProc2","Mule - Donkey","F",13,89,8037,"StudyProc5","JOL","BlockProc2","Mule - ?",13,"donkey","recallproc2","recall"
"RL_JOL A",45,2,3,"BlockProc2","Document - Paper","F",14,87,11802,"StudyProc5","JOL","BlockProc2","Document - ?",14,"paper","recallproc2","recall"
"RL_JOL A",45,2,3,"BlockProc2","Incense - Smell","F",15,9,14546,"StudyProc5","JOL","BlockProc2","Incense - ?",15,"smell","recallproc2","recall"
"RL_JOL A",45,2,3,"BlockProc2","Dine - Eat","F",16,89,6901,"StudyProc5","JOL","BlockProc2","Dine - ?",16,"eat","recallproc2","recall"
"RL_JOL A",45,2,3,"BlockProc2","Shears - Scissors","F",17,18,17608,"StudyProc5","JOL","BlockProc2","Shears - ?",17,"cut","recallproc2","recall"
"RL_JOL A",45,2,3,"BlockProc2","Feud - Fight","F",18,76,11821,"StudyProc5","JOL","BlockProc2","Feud - ?",18,"fight","recallproc2","recall"
"RL_JOL A",45,2,3,"BlockProc2","Chill - Cold","F",19,89,4785,"StudyProc5","JOL","BlockProc2","Chill - ?",19,"cold","recallproc2","recall"
"RL_JOL A",45,2,3,"BlockProc2","Affection - Love","F",20,98,8157,"StudyProc5","JOL","BlockProc2","Affection - ?",20,"love","recallproc2","recall"
"RL_JOL A",45,2,3,"BlockProc2","Turn - Flip","B",21,90,9569,"StudyProc5","JOL","BlockProc2","Turn - ?",21,"flip","recallproc2","recall"
"RL_JOL A",45,2,3,"BlockProc2","Car - Windshield","B",22,78,14987,"StudyProc5","JOL","BlockProc2","Car - ?",22,"winshield","recallproc2","recall"
"RL_JOL A",45,2,3,"BlockProc2","Bad - Villain","B",23,89,8488,"StudyProc5","JOL","BlockProc2","Bad - ?",23,"villan","recallproc2","recall"
"RL_JOL A",45,2,3,"BlockProc2","Bird - Penguin","B",24,78,11392,"StudyProc5","JOL","BlockProc2","Bird - ?",24,"swan","recallproc2","recall"
"RL_JOL A",45,2,3,"BlockProc2","Star - Actress","B",25,90,6266,"StudyProc5","JOL","BlockProc2","Star - ?",25,"actress","recallproc2","recall"
"RL_JOL A",45,2,3,"BlockProc2","Thread - Thimble","B",26,76,12684,"StudyProc5","JOL","BlockProc2","Thread - ?",26,"thimble","recallproc2","recall"
"RL_JOL A",45,2,3,"BlockProc2","Even - Revenge","B",27,95,12726,"StudyProc5","JOL","BlockProc2","Even - ?",27,"odd","recallproc2","recall"
"RL_JOL A",45,2,3,"BlockProc2","Pop - Balloon","B",28,89,5379,"StudyProc5","JOL","BlockProc2","Pop - ?",28,"soda","recallproc2","recall"
"RL_JOL A",45,2,3,"BlockProc2","Fruit - Strawberry","B",29,100,9494,"StudyProc5","JOL","BlockProc2","Fruit - ?",29,"strawberry","recallproc2","recall"
"RL_JOL A",45,2,3,"BlockProc2","Best - Favorite","B",30,97,13842,"StudyProc5","JOL","BlockProc2","Best - ?",30,"favorite","recallproc2","recall"
"RL_JOL A",45,2,3,"BlockProc2","Cat - Panther","B",31,90,6531,"StudyProc5","JOL","BlockProc2","Cat - ?",31,"panther","recallproc2","recall"
"RL_JOL A",45,2,3,"BlockProc2","Glass - Breakable","B",32,100,8039,"StudyProc5","JOL","BlockProc2","Glass - ?",32,"broken","recallproc2","recall"
"RL_JOL A",45,2,3,"BlockProc2","Dead - Coffin","B",33,87,6910,"StudyProc5","JOL","BlockProc2","Dead - ?",33,"coffin","recallproc2","recall"
"RL_JOL A",45,2,3,"BlockProc2","Plane - Aircraft","B",34,98,5800,"StudyProc5","JOL","BlockProc2","Plane - ?",34,"aircraft","recallproc2","recall"
"RL_JOL A",45,2,3,"BlockProc2","Fish - Sardine","B",35,100,10851,"StudyProc5","JOL","BlockProc2","Fish - ?",35,"sardine","recallproc2","recall"
"RL_JOL A",45,2,3,"BlockProc2","Baseball - League","B",36,92,9045,"StudyProc5","JOL","BlockProc2","Baseball - ?",36,"catcher","recallproc2","recall"
"RL_JOL A",45,2,3,"BlockProc2","Money - Banker","B",37,90,4525,"StudyProc5","JOL","BlockProc2","Money - ?",37,"banker","recallproc2","recall"
"RL_JOL A",45,2,3,"BlockProc2","Honest - Truthful","B",38,67,12622,"StudyProc5","JOL","BlockProc2","Honest - ?",38,"truthful","recallproc2","recall"
"RL_JOL A",45,2,3,"BlockProc2","Sleep - Nap","B",39,75,6889,"StudyProc5","JOL","BlockProc2","Sleep - ?",39,"nap","recallproc2","recall"
"RL_JOL A",45,2,3,"BlockProc2","Fight - Brawl","B",40,0,12296,"StudyProc5","JOL","BlockProc2","Fight - ?",40,"feud","recallproc2","recall"
"RL_JOL A",45,2,3,"BlockProc2","Razor - Shave","S",41,89,3546,"StudyProc8","JOL","BlockProc2","Razor - ?",41,"sharp","recallproc2","recall"
"RL_JOL A",45,2,3,"BlockProc2","Rights - Equal","S",42,80,40697,"StudyProc8","JOL","BlockProc2","Rights - ?",42,"equal","recallproc2","recall"
"RL_JOL A",45,2,3,"BlockProc2","Mason - Jar","S",43,43,15632,"StudyProc8","JOL","BlockProc2","Mason - ?",43,"jar","recallproc2","recall"
"RL_JOL A",45,2,3,"BlockProc2","Candle - Wax","S",44,100,8858,"StudyProc8","JOL","BlockProc2","Candle - ?",44,"wax","recallproc2","recall"
"RL_JOL A",45,2,3,"BlockProc2","Wrist - Bracelet","S",45,99,5008,"StudyProc8","JOL","BlockProc2","Wrist - ?",45,"braclet","recallproc2","recall"
"RL_JOL A",45,2,3,"BlockProc2","Element - Carbon","S",46,90,6906,"StudyProc8","JOL","BlockProc2","Element - ?",46,"carbon","recallproc2","recall"
"RL_JOL A",45,2,3,"BlockProc2","Gone - Away","S",47,89,7223,"StudyProc8","JOL","BlockProc2","Gone - ?",47,"away","recallproc2","recall"
"RL_JOL A",45,2,3,"BlockProc2","Water - Drink","S",48,89,8997,"StudyProc8","JOL","BlockProc2","Water - ?",48,"drink","recallproc2","recall"
"RL_JOL A",45,2,3,"BlockProc2","Earth - Ground","S",49,77,7920,"StudyProc8","JOL","BlockProc2","Earth - ?",49,"ground","recallproc2","recall"
"RL_JOL A",45,2,3,"BlockProc2","Alone - Lonely","S",50,96,12686,"StudyProc8","JOL","BlockProc2","Alone - ?",50,"lonely","recallproc2","recall"
"RL_JOL A",45,2,3,"BlockProc2","Dry - Wet","S",51,87,14190,"StudyProc8","JOL","BlockProc2","Dry - ?",51,"wet","recallproc2","recall"
"RL_JOL A",45,2,3,"BlockProc2","Safety - Seatbelt","S",52,87,8627,"StudyProc8","JOL","BlockProc2","Safety - ?",52,"seatbelt","recallproc2","recall"
"RL_JOL A",45,2,3,"BlockProc2","Truth - Lie","S",53,100,10493,"StudyProc8","JOL","BlockProc2","Truth - ?",53,"lie","recallproc2","recall"
"RL_JOL A",45,2,3,"BlockProc2","Phone - Communicatio","S",54,90,12984,"StudyProc8","JOL","BlockProc2","Phone - ?",54,"communication","recallproc2","recall"
"RL_JOL A",45,2,3,"BlockProc2","Rod - Reel","S",55,10,26315,"StudyProc8","JOL","BlockProc2","Rod - ?",55,"reel","recallproc2","recall"
"RL_JOL A",45,2,3,"BlockProc2","Flea - Tick","S",56,97,6170,"StudyProc8","JOL","BlockProc2","Flea - ?",56,"ticks","recallproc2","recall"
"RL_JOL A",45,2,3,"BlockProc2","Loud - Noise","S",57,78,14970,"StudyProc8","JOL","BlockProc2","Loud - ?",57,"noise","recallproc2","recall"
"RL_JOL A",45,2,3,"BlockProc2","Own - Have","S",58,90,8046,"StudyProc8","JOL","BlockProc2","Own - ?",58,"have","recallproc2","recall"
"RL_JOL A",45,2,3,"BlockProc2","Tantrum - Temper","S",59,79,11902,"StudyProc8","JOL","BlockProc2","Tantrum - ?",59,"temper","recallproc2","recall"
"RL_JOL A",45,2,3,"BlockProc2","Sun - Tan","S",60,86,7282,"StudyProc8","JOL","BlockProc2","Sun - ?",60,"ta","recallproc2","recall"
"RL_JOL A",45,2,3,"BlockProc2","Justice - Maroon","U",61,5,9439,"StudyProc8","JOL","BlockProc2","Justice - ?",61,"law","recallproc2","recall"
"RL_JOL A",45,2,3,"BlockProc2","Stretch - Cloth","U",62,67,9547,"StudyProc8","JOL","BlockProc2","Stretch - ?",62,"cloth","recallproc2","recall"
"RL_JOL A",45,2,3,"BlockProc2","Give - Steak","U",63,12,21750,"StudyProc8","JOL","BlockProc2","Give - ?",63,"steak","recallproc2","recall"
"RL_JOL A",45,2,3,"BlockProc2","Maze - Election","U",64,67,20727,"StudyProc8","JOL","BlockProc2","Maze - ?",64,"traffic","recallproc2","recall"
"RL_JOL A",45,2,3,"BlockProc2","Vehicle - Charm","U",65,75,39981,"StudyProc8","JOL","BlockProc2","Vehicle - ?",65,"charm","recallproc2","recall"
"RL_JOL A",45,2,3,"BlockProc2","Meat - Obtain","U",66,0,3887,"StudyProc8","JOL","BlockProc2","Meat - ?",66,"hungry","recallproc2","recall"
"RL_JOL A",45,2,3,"BlockProc2","Crackle - Able","U",67,2,16333,"StudyProc8","JOL","BlockProc2","Crackle - ?",67,"sound","recallproc2","recall"
"RL_JOL A",45,2,3,"BlockProc2","Shell - Shake","U",68,87,32097,"StudyProc8","JOL","BlockProc2","Shell - ?",68,"shake","recallproc2","recall"
"RL_JOL A",45,2,3,"BlockProc2","Listen - Fiction","U",69,0,13867,"StudyProc8","JOL","BlockProc2","Listen - ?",69,"loud","recallproc2","recall"
"RL_JOL A",45,2,3,"BlockProc2","Keys - Joke","U",70,34,16167,"StudyProc8","JOL","BlockProc2","Keys - ?",70,"joke","recallproc2","recall"
"RL_JOL A",45,2,3,"BlockProc2","Cake - Clothes","U",71,78,15814,"StudyProc8","JOL","BlockProc2","Cake - ?",71,"clothes","recallproc2","recall"
"RL_JOL A",45,2,3,"BlockProc2","Name - Hate","U",72,90,12590,"StudyProc8","JOL","BlockProc2","Name - ?",72,"hate","recallproc2","recall"
"RL_JOL A",45,2,3,"BlockProc2","Fuzzy - Bang","U",73,0,24406,"StudyProc8","JOL","BlockProc2","Fuzzy - ?",73,"dog","recallproc2","recall"
"RL_JOL A",45,2,3,"BlockProc2","Moat - Clear","U",74,89,22116,"StudyProc8","JOL","BlockProc2","Moat - ?",74,"clear","recallproc2","recall"
"RL_JOL A",45,2,3,"BlockProc2","Lease - Toil","U",75,0,5420,"StudyProc8","JOL","BlockProc2","Lease - ?",75,"sign","recallproc2","recall"
"RL_JOL A",45,2,3,"BlockProc2","Loan - Sign","U",76,86,14141,"StudyProc8","JOL","BlockProc2","Loan - ?",76,"sign","recallproc2","recall"
"RL_JOL A",45,2,3,"BlockProc2","Both - Ounce","U",77,0,9309,"StudyProc8","JOL","BlockProc2","Both - ?",77,"similar","recallproc2","recall"
"RL_JOL A",45,2,3,"BlockProc2","Temperature - Morning","U",78,76,8810,"StudyProc8","JOL","BlockProc2","Temperature - ?",78,"morning","recallproc2","recall"
"RL_JOL A",45,2,3,"BlockProc2","Mirror - Children","U",79,78,12987,"StudyProc8","JOL","BlockProc2","Mirror - ?",79,"children","recallproc2","recall"
"RL_JOL A",45,2,3,"BlockProc2","Main - Scar","U",80,0,5400,"StudyProc8","JOL","BlockProc2","Main - ?",80,"flower","recallproc2","recall"
"IS_JOL B",42,1,3,"BlockProc1","Adjourn - End","F",6,40,9275,"StudyProc3","JOL","BlockProc1","Adjourn - ?",6,"end","recallproc1","recall"
"IS_JOL B",42,1,3,"BlockProc1","Furry - Dog","F",7,60,13829,"StudyProc3","JOL","BlockProc1","Furry - ?",7,"dog","recallproc1","recall"
"IS_JOL B",42,1,3,"BlockProc1","Litter - Trash","F",8,40,11849,"StudyProc3","JOL","BlockProc1","Litter - ?",8,"trash","recallproc1","recall"
"IS_JOL B",42,1,3,"BlockProc1","Cherry - Red","F",9,40,13010,"StudyProc3","JOL","BlockProc1","Cherry - ?",9,"red","recallproc1","recall"
"IS_JOL B",42,1,3,"BlockProc1","Scalp - Head","F",10,50,17450,"StudyProc3","JOL","BlockProc1","Scalp - ?",10,"hea","recallproc1","recall"
"IS_JOL B",42,1,3,"BlockProc1","Driver - Car","F",11,50,8911,"StudyProc3","JOL","BlockProc1","Driver - ?",11,"cham","recallproc1","recall"
"IS_JOL B",42,1,3,"BlockProc1","Chop - Cut","F",12,60,9084,"StudyProc3","JOL","BlockProc1","Chop - ?",12,"cut","recallproc1","recall"
"IS_JOL B",42,1,3,"BlockProc1","Mule - Donkey","F",13,20,8455,"StudyProc3","JOL","BlockProc1","Mule - ?",13,"donkey","recallproc1","recall"
"IS_JOL B",42,1,3,"BlockProc1","Document - Paper","F",14,70,9790,"StudyProc3","JOL","BlockProc1","Document - ?",14,"paper","recallproc1","recall"
"IS_JOL B",42,1,3,"BlockProc1","Incense - Smell","F",15,30,12966,"StudyProc3","JOL","BlockProc1","Incense - ?",15,"smell","recallproc1","recall"
"IS_JOL B",42,1,3,"BlockProc1","Dine - Eat","F",16,55,11713,"StudyProc3","JOL","BlockProc1","Dine - ?",16,"eat","recallproc1","recall"
"IS_JOL B",42,1,3,"BlockProc1","Shears - Scissors","F",17,40,8857,"StudyProc3","JOL","BlockProc1","Shears - ?",17,"scissors","recallproc1","recall"
"IS_JOL B",42,1,3,"BlockProc1","Feud - Fight","F",18,50,10029,"StudyProc3","JOL","BlockProc1","Feud - ?",18,"fight","recallproc1","recall"
"IS_JOL B",42,1,3,"BlockProc1","Chill - Cold","F",19,50,11169,"StudyProc3","JOL","BlockProc1","Chill - ?",19,"cold","recallproc1","recall"
"IS_JOL B",42,1,3,"BlockProc1","Affection - Love","F",20,50,11212,"StudyProc3","JOL","BlockProc1","Affection - ?",20,"lov","recallproc1","recall"
"IS_JOL B",42,1,3,"BlockProc1","Turn - Flip","B",21,60,10801,"StudyProc3","JOL","BlockProc1","Turn - ?",21,"flip","recallproc1","recall"
"IS_JOL B",42,1,3,"BlockProc1","Car - Windshield","B",22,50,12622,"StudyProc3","JOL","BlockProc1","Car - ?",22,"cham","recallproc1","recall"
"IS_JOL B",42,1,3,"BlockProc1","Bad - Villain","B",23,70,11607,"StudyProc3","JOL","BlockProc1","Bad - ?",23,"villian","recallproc1","recall"
"IS_JOL B",42,1,3,"BlockProc1","Bird - Penguin","B",24,65,10760,"StudyProc3","JOL","BlockProc1","Bird - ?",24,"penguin","recallproc1","recall"
"IS_JOL B",42,1,3,"BlockProc1","Star - Actress","B",25,30,9388,"StudyProc3","JOL","BlockProc1","Star - ?",25,"space","recallproc1","recall"
"IS_JOL B",42,1,3,"BlockProc1","Thread - Thimble","B",26,40,10339,"StudyProc3","JOL","BlockProc1","Thread - ?",26,"needle","recallproc1","recall"
"IS_JOL B",42,1,3,"BlockProc1","Even - Revenge","B",27,80,11482,"StudyProc3","JOL","BlockProc1","Even - ?",27,"revenge","recallproc1","recall"
"IS_JOL B",42,1,3,"BlockProc1","Pop - Balloon","B",28,70,11110,"StudyProc3","JOL","BlockProc1","Pop - ?",28,"balloon","recallproc1","recall"
"IS_JOL B",42,1,3,"BlockProc1","Fruit - Strawberry","B",29,50,17495,"StudyProc3","JOL","BlockProc1","Fruit - ?",29,"srawberry","recallproc1","recall"
"IS_JOL B",42,1,3,"BlockProc1","Best - Favorite","B",30,60,8971,"StudyProc3","JOL","BlockProc1","Best - ?",30,"favorite","recallproc1","recall"
"IS_JOL B",42,1,3,"BlockProc1","Cat - Panther","B",31,60,11703,"StudyProc3","JOL","BlockProc1","Cat - ?",31,"scratch","recallproc1","recall"
"IS_JOL B",42,1,3,"BlockProc1","Glass - Breakable","B",32,50,13122,"StudyProc3","JOL","BlockProc1","Glass - ?",32,"breakable","recallproc1","recall"
"IS_JOL B",42,1,3,"BlockProc1","Dead - Coffin","B",33,70,10984,"StudyProc3","JOL","BlockProc1","Dead - ?",33,"coffin","recallproc1","recall"
"IS_JOL B",42,1,3,"BlockProc1","Plane - Aircraft","B",34,40,12532,"StudyProc3","JOL","BlockProc1","Plane - ?",34,"aircraft","recallproc1","recall"
"IS_JOL B",42,1,3,"BlockProc1","Fish - Sardine","B",35,20,12918,"StudyProc3","JOL","BlockProc1","Fish - ?",35,"shrimp","recallproc1","recall"
"IS_JOL B",42,1,3,"BlockProc1","Baseball - League","B",36,40,15573,"StudyProc3","JOL","BlockProc1","Baseball - ?",36,"league","recallproc1","recall"
"IS_JOL B",42,1,3,"BlockProc1","Money - Banker","B",37,60,8767,"StudyProc3","JOL","BlockProc1","Money - ?",37,"banker","recallproc1","recall"
"IS_JOL B",42,1,3,"BlockProc1","Honest - Truthful","B",38,40,13270,"StudyProc3","JOL","BlockProc1","Honest - ?",38,"truthful","recallproc1","recall"
"IS_JOL B",42,1,3,"BlockProc1","Sleep - Nap","B",39,80,12576,"StudyProc3","JOL","BlockProc1","Sleep - ?",39,"nap","recallproc1","recall"
"IS_JOL B",42,1,3,"BlockProc1","Fight - Brawl","B",40,50,12932,"StudyProc3","JOL","BlockProc1","Fight - ?",40,"brawl","recallproc1","recall"
"IS_JOL B",42,1,3,"BlockProc1","Razor - Shave","S",41,50,8744,"StudyProc7","JOL","BlockProc1","Razor - ?",41,"shave","recallproc1","recall"
"IS_JOL B",42,1,3,"BlockProc1","Rights - Equal","S",42,70,12227,"StudyProc7","JOL","BlockProc1","Rights - ?",42,"equal","recallproc1","recall"
"IS_JOL B",42,1,3,"BlockProc1","Mason - Jar","S",43,60,7748,"StudyProc7","JOL","BlockProc1","Mason - ?",43,"jar","recallproc1","recall"
"IS_JOL B",42,1,3,"BlockProc1","Candle - Wax","S",44,50,9233,"StudyProc7","JOL","BlockProc1","Candle - ?",44,"wax","recallproc1","recall"
"IS_JOL B",42,1,3,"BlockProc1","Wrist - Bracelet","S",45,70,8262,"StudyProc7","JOL","BlockProc1","Wrist - ?",45,"bracelet","recallproc1","recall"
"IS_JOL B",42,1,3,"BlockProc1","Element - Carbon","S",46,60,17302,"StudyProc7","JOL","BlockProc1","Element - ?",46,"carbon","recallproc1","recall"
"IS_JOL B",42,1,3,"BlockProc1","Gone - Away","S",47,50,10866,"StudyProc7","JOL","BlockProc1","Gone - ?",47,"away","recallproc1","recall"
"IS_JOL B",42,1,3,"BlockProc1","Water - Drink","S",48,50,9622,"StudyProc7","JOL","BlockProc1","Water - ?",48,"clear","recallproc1","recall"
"IS_JOL B",42,1,3,"BlockProc1","Earth - Ground","S",49,50,12643,"StudyProc7","JOL","BlockProc1","Earth - ?",49,"ground","recallproc1","recall"
"IS_JOL B",42,1,3,"BlockProc1","Alone - Lonely","S",50,60,11102,"StudyProc7","JOL","BlockProc1","Alone - ?",50,"lonely","recallproc1","recall"
"IS_JOL B",42,1,3,"BlockProc1","Dry - Wet","S",51,70,7647,"StudyProc7","JOL","BlockProc1","Dry - ?",51,"wet","recallproc1","recall"
"IS_JOL B",42,1,3,"BlockProc1","Safety - Seatbelt","S",52,50,9003,"StudyProc7","JOL","BlockProc1","Safety - ?",52,"seatbelt","recallproc1","recall"
"IS_JOL B",42,1,3,"BlockProc1","Truth - Lie","S",53,70,6099,"StudyProc7","JOL","BlockProc1","Truth - ?",53,"lie","recallproc1","recall"
"IS_JOL B",42,1,3,"BlockProc1","Phone - Communicatio","S",54,70,12183,"StudyProc7","JOL","BlockProc1","Phone - ?",54,"communication","recallproc1","recall"
"IS_JOL B",42,1,3,"BlockProc1","Rod - Reel","S",55,50,9591,"StudyProc7","JOL","BlockProc1","Rod - ?",55,"reel","recallproc1","recall"
"IS_JOL B",42,1,3,"BlockProc1","Flea - Tick","S",56,70,10387,"StudyProc7","JOL","BlockProc1","Flea - ?",56,"tick","recallproc1","recall"
"IS_JOL B",42,1,3,"BlockProc1","Loud - Noise","S",57,50,11166,"StudyProc7","JOL","BlockProc1","Loud - ?",57,"nois","recallproc1","recall"
"IS_JOL B",42,1,3,"BlockProc1","Own - Have","S",58,40,11638,"StudyProc7","JOL","BlockProc1","Own - ?",58,"have","recallproc1","recall"
"IS_JOL B",42,1,3,"BlockProc1","Tantrum - Temper","S",59,65,14364,"StudyProc7","JOL","BlockProc1","Tantrum - ?",59,"temper","recallproc1","recall"
"IS_JOL B",42,1,3,"BlockProc1","Sun - Tan","S",60,30,7102,"StudyProc7","JOL","BlockProc1","Sun - ?",60,"shine","recallproc1","recall"
"IS_JOL B",42,1,3,"BlockProc1","Justice - Maroon","U",61,40,7429,"StudyProc7","JOL","BlockProc1","Justice - ?",61,"rights","recallproc1","recall"
"IS_JOL B",42,1,3,"BlockProc1","Stretch - Cloth","U",62,40,12817,"StudyProc7","JOL","BlockProc1","Stretch - ?",62,"cloth","recallproc1","recall"
"IS_JOL B",42,1,3,"BlockProc1","Give - Steak","U",63,50,10192,"StudyProc7","JOL","BlockProc1","Give - ?",63,"take","recallproc1","recall"
"IS_JOL B",42,1,3,"BlockProc1","Maze - Election","U",64,50,9206,"StudyProc7","JOL","BlockProc1","Maze - ?",64,"election","recallproc1","recall"
"IS_JOL B",42,1,3,"BlockProc1","Vehicle - Charm","U",65,40,8490,"StudyProc7","JOL","BlockProc1","Vehicle - ?",65,"charm","recallproc1","recall"
"IS_JOL B",42,1,3,"BlockProc1","Meat - Obtain","U",66,50,9483,"StudyProc7","JOL","BlockProc1","Meat - ?",66,"steak","recallproc1","recall"
"IS_JOL B",42,1,3,"BlockProc1","Crackle - Able","U",67,30,14404,"StudyProc7","JOL","BlockProc1","Crackle - ?",67,"pop","recallproc1","recall"
"IS_JOL B",42,1,3,"BlockProc1","Shell - Shake","U",68,30,7221,"StudyProc7","JOL","BlockProc1","Shell - ?",68,"shake","recallproc1","recall"
"IS_JOL B",42,1,3,"BlockProc1","Listen - Fiction","U",69,40,11660,"StudyProc7","JOL","BlockProc1","Listen - ?",69,"hear","recallproc1","recall"
"IS_JOL B",42,1,3,"BlockProc1","Keys - Joke","U",70,70,12833,"StudyProc7","JOL","BlockProc1","Keys - ?",70,"joke","recallproc1","recall"
"IS_JOL B",42,1,3,"BlockProc1","Cake - Clothes","U",71,60,5386,"StudyProc7","JOL","BlockProc1","Cake - ?",71,"clothes","recallproc1","recall"
"IS_JOL B",42,1,3,"BlockProc1","Name - Hate","U",72,50,10716,"StudyProc7","JOL","BlockProc1","Name - ?",72,"hate","recallproc1","recall"
"IS_JOL B",42,1,3,"BlockProc1","Fuzzy - Bang","U",73,50,10434,"StudyProc7","JOL","BlockProc1","Fuzzy - ?",73,"dog","recallproc1","recall"
"IS_JOL B",42,1,3,"BlockProc1","Moat - Clear","U",74,60,10373,"StudyProc7","JOL","BlockProc1","Moat - ?",74,"clear","recallproc1","recall"
"IS_JOL B",42,1,3,"BlockProc1","Lease - Toil","U",75,0,7750,"StudyProc7","JOL","BlockProc1","Lease - ?",75,"house","recallproc1","recall"
"IS_JOL B",42,1,3,"BlockProc1","Loan - Sign","U",76,30,12514,"StudyProc7","JOL","BlockProc1","Loan - ?",76,"bank","recallproc1","recall"
"IS_JOL B",42,1,3,"BlockProc1","Both - Ounce","U",77,20,12369,"StudyProc7","JOL","BlockProc1","Both - ?",77,"see","recallproc1","recall"
"IS_JOL B",42,1,3,"BlockProc1","Temperature - Morning","U",78,60,10728,"StudyProc7","JOL","BlockProc1","Temperature - ?",78,"morning","recallproc1","recall"
"IS_JOL B",42,1,3,"BlockProc1","Mirror - Children","U",79,60,10709,"StudyProc7","JOL","BlockProc1","Mirror - ?",79,"children","recallproc1","recall"
"IS_JOL B",42,1,3,"BlockProc1","Main - Scar","U",80,30,11757,"StudyProc7","JOL","BlockProc1","Main - ?",80,"scar","recallproc1","recall"
"RL_JOL B",46,1,3,"BlockProc1","Adjourn - End","F",6,60,23309,"StudyProc3","JOL","BlockProc1","Adjourn - ?",6,"end","recallproc1","recall"
"RL_JOL B",46,1,3,"BlockProc1","Furry - Dog","F",7,30,18659,"StudyProc3","JOL","BlockProc1","Furry - ?",7,"dog","recallproc1","recall"
"RL_JOL B",46,1,3,"BlockProc1","Litter - Trash","F",8,50,15760,"StudyProc3","JOL","BlockProc1","Litter - ?",8,"trash","recallproc1","recall"
"RL_JOL B",46,1,3,"BlockProc1","Cherry - Red","F",9,100,15422,"StudyProc3","JOL","BlockProc1","Cherry - ?",9,"red","recallproc1","recall"
"RL_JOL B",46,1,3,"BlockProc1","Scalp - Head","F",10,10,29735,"StudyProc3","JOL","BlockProc1","Scalp - ?",10,"head","recallproc1","recall"
"RL_JOL B",46,1,3,"BlockProc1","Driver - Car","F",11,55,15731,"StudyProc3","JOL","BlockProc1","Driver - ?",11,"car","recallproc1","recall"
"RL_JOL B",46,1,3,"BlockProc1","Chop - Cut","F",12,60,19175,"StudyProc3","JOL","BlockProc1","Chop - ?",12,"cut","recallproc1","recall"
"RL_JOL B",46,1,3,"BlockProc1","Mule - Donkey","F",13,70,30279,"StudyProc3","JOL","BlockProc1","Mule - ?",13,"donkey","recallproc1","recall"
"RL_JOL B",46,1,3,"BlockProc1","Document - Paper","F",14,70,24307,"StudyProc3","JOL","BlockProc1","Document - ?",14,"paper","recallproc1","recall"
"RL_JOL B",46,1,3,"BlockProc1","Incense - Smell","F",15,40,21165,"StudyProc3","JOL","BlockProc1","Incense - ?",15,"smell","recallproc1","recall"
"RL_JOL B",46,1,3,"BlockProc1","Dine - Eat","F",16,45,16393,"StudyProc3","JOL","BlockProc1","Dine - ?",16,"eat","recallproc1","recall"
"RL_JOL B",46,1,3,"BlockProc1","Shears - Scissors","F",17,10,23266,"StudyProc3","JOL","BlockProc1","Shears - ?",17,"scissors","recallproc1","recall"
"RL_JOL B",46,1,3,"BlockProc1","Feud - Fight","F",18,80,29838,"StudyProc3","JOL","BlockProc1","Feud - ?",18,"fight","recallproc1","recall"
"RL_JOL B",46,1,3,"BlockProc1","Chill - Cold","F",19,75,13759,"StudyProc3","JOL","BlockProc1","Chill - ?",19,"cold","recallproc1","recall"
"RL_JOL B",46,1,3,"BlockProc1","Affection - Love","F",20,25,21229,"StudyProc3","JOL","BlockProc1","Affection - ?",20,"love","recallproc1","recall"
"RL_JOL B",46,1,3,"BlockProc1","Turn - Flip","B",21,60,20110,"StudyProc3","JOL","BlockProc1","Turn - ?",21,"flip","recallproc1","recall"
"RL_JOL B",46,1,3,"BlockProc1","Car - Windshield","B",22,15,22476,"StudyProc3","JOL","BlockProc1","Car - ?",22,"driver","recallproc1","recall"
"RL_JOL B",46,1,3,"BlockProc1","Bad - Villain","B",23,50,26574,"StudyProc3","JOL","BlockProc1","Bad - ?",23,"villian","recallproc1","recall"
"RL_JOL B",46,1,3,"BlockProc1","Bird - Penguin","B",24,35,27433,"StudyProc3","JOL","BlockProc1","Bird - ?",24,"penguin","recallproc1","recall"
"RL_JOL B",46,1,3,"BlockProc1","Star - Actress","B",25,35,22157,"StudyProc3","JOL","BlockProc1","Star - ?",25,"actress","recallproc1","recall"
"RL_JOL B",46,1,3,"BlockProc1","Thread - Thimble","B",26,40,21425,"StudyProc3","JOL","BlockProc1","Thread - ?",26,"thimble","recallproc1","recall"
"RL_JOL B",46,1,3,"BlockProc1","Even - Revenge","B",27,76,24082,"StudyProc3","JOL","BlockProc1","Even - ?",27,"revenge","recallproc1","recall"
"RL_JOL B",46,1,3,"BlockProc1","Pop - Balloon","B",28,50,22844,"StudyProc3","JOL","BlockProc1","Pop - ?",28,"balloon","recallproc1","recall"
"RL_JOL B",46,1,3,"BlockProc1","Fruit - Strawberry","B",29,90,25187,"StudyProc3","JOL","BlockProc1","Fruit - ?",29,"strawberry","recallproc1","recall"
"RL_JOL B",46,1,3,"BlockProc1","Best - Favorite","B",30,20,16682,"StudyProc3","JOL","BlockProc1","Best - ?",30,"favorite","recallproc1","recall"
"RL_JOL B",46,1,3,"BlockProc1","Cat - Panther","B",31,65,17842,"StudyProc3","JOL","BlockProc1","Cat - ?",31,"panther","recallproc1","recall"
"RL_JOL B",46,1,3,"BlockProc1","Glass - Breakable","B",32,30,16937,"StudyProc3","JOL","BlockProc1","Glass - ?",32,"breakable","recallproc1","recall"
"RL_JOL B",46,1,3,"BlockProc1","Dead - Coffin","B",33,60,19116,"StudyProc3","JOL","BlockProc1","Dead - ?",33,"coffin","recallproc1","recall"
"RL_JOL B",46,1,3,"BlockProc1","Plane - Aircraft","B",34,30,17776,"StudyProc3","JOL","BlockProc1","Plane - ?",34,"fly","recallproc1","recall"
"RL_JOL B",46,1,3,"BlockProc1","Fish - Sardine","B",35,25,23555,"StudyProc3","JOL","BlockProc1","Fish - ?",35,"shrimp","recallproc1","recall"
"RL_JOL B",46,1,3,"BlockProc1","Baseball - League","B",36,60,14769,"StudyProc3","JOL","BlockProc1","Baseball - ?",36,"catcher","recallproc1","recall"
"RL_JOL B",46,1,3,"BlockProc1","Money - Banker","B",37,40,19373,"StudyProc3","JOL","BlockProc1","Money - ?",37,"banker","recallproc1","recall"
"RL_JOL B",46,1,3,"BlockProc1","Honest - Truthful","B",38,40,22266,"StudyProc3","JOL","BlockProc1","Honest - ?",38,"lie","recallproc1","recall"
"RL_JOL B",46,1,3,"BlockProc1","Sleep - Nap","B",39,70,16121,"StudyProc3","JOL","BlockProc1","Sleep - ?",39,"nap","recallproc1","recall"
"RL_JOL B",46,1,3,"BlockProc1","Fight - Brawl","B",40,34,19279,"StudyProc3","JOL","BlockProc1","Fight - ?",40,"feud","recallproc1","recall"
"RL_JOL B",46,1,3,"BlockProc1","Razor - Shave","S",41,90,18525,"StudyProc7","JOL","BlockProc1","Razor - ?",41,"shave","recallproc1","recall"
"RL_JOL B",46,1,3,"BlockProc1","Rights - Equal","S",42,40,18232,"StudyProc7","JOL","BlockProc1","Rights - ?",42,"equal","recallproc1","recall"
"RL_JOL B",46,1,3,"BlockProc1","Mason - Jar","S",43,80,12950,"StudyProc7","JOL","BlockProc1","Mason - ?",43,"jar","recallproc1","recall"
"RL_JOL B",46,1,3,"BlockProc1","Candle - Wax","S",44,60,13570,"StudyProc7","JOL","BlockProc1","Candle - ?",44,"wax","recallproc1","recall"
"RL_JOL B",46,1,3,"BlockProc1","Wrist - Bracelet","S",45,60,13422,"StudyProc7","JOL","BlockProc1","Wrist - ?",45,"bracelet","recallproc1","recall"
"RL_JOL B",46,1,3,"BlockProc1","Element - Carbon","S",46,15,21366,"StudyProc7","JOL","BlockProc1","Element - ?",46,"carbon","recallproc1","recall"
"RL_JOL B",46,1,3,"BlockProc1","Gone - Away","S",47,70,12687,"StudyProc7","JOL","BlockProc1","Gone - ?",47,"away","recallproc1","recall"
"RL_JOL B",46,1,3,"BlockProc1","Water - Drink","S",48,60,20510,"StudyProc7","JOL","BlockProc1","Water - ?",48,"drink","recallproc1","recall"
"RL_JOL B",46,1,3,"BlockProc1","Earth - Ground","S",49,20,30554,"StudyProc7","JOL","BlockProc1","Earth - ?",49,"ground","recallproc1","recall"
"RL_JOL B",46,1,3,"BlockProc1","Alone - Lonely","S",50,70,22556,"StudyProc7","JOL","BlockProc1","Alone - ?",50,"lonely","recallproc1","recall"
"RL_JOL B",46,1,3,"BlockProc1","Dry - Wet","S",51,20,14600,"StudyProc7","JOL","BlockProc1","Dry - ?",51,"wet","recallproc1","recall"
"RL_JOL B",46,1,3,"BlockProc1","Safety - Seatbelt","S",52,20,24019,"StudyProc7","JOL","BlockProc1","Safety - ?",52,"seatbelt","recallproc1","recall"
"RL_JOL B",46,1,3,"BlockProc1","Truth - Lie","S",53,90,12469,"StudyProc7","JOL","BlockProc1","Truth - ?",53,"lie","recallproc1","recall"
"RL_JOL B",46,1,3,"BlockProc1","Phone - Communicatio","S",54,30,19342,"StudyProc7","JOL","BlockProc1","Phone - ?",54,"communication","recallproc1","recall"
"RL_JOL B",46,1,3,"BlockProc1","Rod - Reel","S",55,30,20799,"StudyProc7","JOL","BlockProc1","Rod - ?",55,"reel","recallproc1","recall"
"RL_JOL B",46,1,3,"BlockProc1","Flea - Tick","S",56,80,17174,"StudyProc7","JOL","BlockProc1","Flea - ?",56,"tick","recallproc1","recall"
"RL_JOL B",46,1,3,"BlockProc1","Loud - Noise","S",57,50,21349,"StudyProc7","JOL","BlockProc1","Loud - ?",57,"noise","recallproc1","recall"
"RL_JOL B",46,1,3,"BlockProc1","Own - Have","S",58,45,16449,"StudyProc7","JOL","BlockProc1","Own - ?",58,"have","recallproc1","recall"
"RL_JOL B",46,1,3,"BlockProc1","Tantrum - Temper","S",59,40,16990,"StudyProc7","JOL","BlockProc1","Tantrum - ?",59,"temper","recallproc1","recall"
"RL_JOL B",46,1,3,"BlockProc1","Sun - Tan","S",60,50,15121,"StudyProc7","JOL","BlockProc1","Sun - ?",60,"tan","recallproc1","recall"
"RL_JOL B",46,1,3,"BlockProc1","Justice - Maroon","U",61,0,38650,"StudyProc7","JOL","BlockProc1","Justice - ?",61,"maroon","recallproc1","recall"
"RL_JOL B",46,1,3,"BlockProc1","Stretch - Cloth","U",62,10,21416,"StudyProc7","JOL","BlockProc1","Stretch - ?",62,"cloth","recallproc1","recall"
"RL_JOL B",46,1,3,"BlockProc1","Give - Steak","U",63,0,45105,"StudyProc7","JOL","BlockProc1","Give - ?",63,"have","recallproc1","recall"
"RL_JOL B",46,1,3,"BlockProc1","Maze - Election","U",64,0,22258,"StudyProc7","JOL","BlockProc1","Maze - ?",64,"election","recallproc1","recall"
"RL_JOL B",46,1,3,"BlockProc1","Vehicle - Charm","U",65,5,25378,"StudyProc7","JOL","BlockProc1","Vehicle - ?",65,"drive","recallproc1","recall"
"RL_JOL B",46,1,3,"BlockProc1","Meat - Obtain","U",66,10,25085,"StudyProc7","JOL","BlockProc1","Meat - ?",66,"obtain","recallproc1","recall"
"RL_JOL B",46,1,3,"BlockProc1","Crackle - Able","U",67,0,21748,"StudyProc7","JOL","BlockProc1","Crackle - ?",67,"able","recallproc1","recall"
"RL_JOL B",46,1,3,"BlockProc1","Shell - Shake","U",68,10,29847,"StudyProc7","JOL","BlockProc1","Shell - ?",68,"shake","recallproc1","recall"
"RL_JOL B",46,1,3,"BlockProc1","Listen - Fiction","U",69,45,32210,"StudyProc7","JOL","BlockProc1","Listen - ?",69,"fiction","recallproc1","recall"
"RL_JOL B",46,1,3,"BlockProc1","Keys - Joke","U",70,10,33169,"StudyProc7","JOL","BlockProc1","Keys - ?",70,"trick","recallproc1","recall"
"RL_JOL B",46,1,3,"BlockProc1","Cake - Clothes","U",71,20,35009,"StudyProc7","JOL","BlockProc1","Cake - ?",71,"clothes","recallproc1","recall"
"RL_JOL B",46,1,3,"BlockProc1","Name - Hate","U",72,5,29427,"StudyProc7","JOL","BlockProc1","Name - ?",72,"hate","recallproc1","recall"
"RL_JOL B",46,1,3,"BlockProc1","Fuzzy - Bang","U",73,20,30145,"StudyProc7","JOL","BlockProc1","Fuzzy - ?",73,"bang","recallproc1","recall"
"RL_JOL B",46,1,3,"BlockProc1","Moat - Clear","U",74,10,15644,"StudyProc7","JOL","BlockProc1","Moat - ?",74,"clear","recallproc1","recall"
"RL_JOL B",46,1,3,"BlockProc1","Lease - Toil","U",75,0,15317,"StudyProc7","JOL","BlockProc1","Lease - ?",75,"own","recallproc1","recall"
"RL_JOL B",46,1,3,"BlockProc1","Loan - Sign","U",76,60,24807,"StudyProc7","JOL","BlockProc1","Loan - ?",76,"sign","recallproc1","recall"
"RL_JOL B",46,1,3,"BlockProc1","Both - Ounce","U",77,20,26268,"StudyProc7","JOL","BlockProc1","Both - ?",77,"way","recallproc1","recall"
"RL_JOL B",46,1,3,"BlockProc1","Temperature - Morning","U",78,25,19450,"StudyProc7","JOL","BlockProc1","Temperature - ?",78,"morning","recallproc1","recall"
"RL_JOL B",46,1,3,"BlockProc1","Mirror - Children","U",79,15,28433,"StudyProc7","JOL","BlockProc1","Mirror - ?",79,"children","recallproc1","recall"
"RL_JOL B",46,1,3,"BlockProc1","Main - Scar","U",80,0,38057,"StudyProc7","JOL","BlockProc1","Main - ?",80,"best","recallproc1","recall"
"IS_JOL B",42,2,3,"BlockProc2","Hornet - Sting","F",6,60,7768,"StudyProc5","JOL","BlockProc2","Hornet - ?",6,"sting","recallproc2","recall"
"IS_JOL B",42,2,3,"BlockProc2","Bitter - Cold","F",7,70,7225,"StudyProc5","JOL","BlockProc2","Bitter - ?",7,"cold","recallproc2","recall"
"IS_JOL B",42,2,3,"BlockProc2","Root - Plant","F",8,20,10607,"StudyProc5","JOL","BlockProc2","Root - ?",8,"plant","recallproc2","recall"
"IS_JOL B",42,2,3,"BlockProc2","Swan - Bird","F",9,70,8453,"StudyProc5","JOL","BlockProc2","Swan - ?",9,"bird","recallproc2","recall"
"IS_JOL B",42,2,3,"BlockProc2","Paw - Dog","F",10,50,6712,"StudyProc5","JOL","BlockProc2","Paw - ?",10,"dog","recallproc2","recall"
"IS_JOL B",42,2,3,"BlockProc2","Way - Out","F",11,50,8457,"StudyProc5","JOL","BlockProc2","Way - ?",11,"path","recallproc2","recall"
"IS_JOL B",42,2,3,"BlockProc2","Hygiene - Clean","F",12,50,6317,"StudyProc5","JOL","BlockProc2","Hygiene - ?",12,"clean","recallproc2","recall"
"IS_JOL B",42,2,3,"BlockProc2","Bridge - Water","F",13,50,8526,"StudyProc5","JOL","BlockProc2","Bridge - ?",13,"water","recallproc2","recall"
"IS_JOL B",42,2,3,"BlockProc2","Geology - Rock","F",14,60,9819,"StudyProc5","JOL","BlockProc2","Geology - ?",14,"rock","recallproc2","recall"
"IS_JOL B",42,2,3,"BlockProc2","Revolution - War","F",15,50,7184,"StudyProc5","JOL","BlockProc2","Revolution - ?",15,"war","recallproc2","recall"
"IS_JOL B",42,2,3,"BlockProc2","Discussion - Talk","F",16,60,7598,"StudyProc5","JOL","BlockProc2","Discussion - ?",16,"talk","recallproc2","recall"
"IS_JOL B",42,2,3,"BlockProc2","Herd - Cow","F",17,40,9874,"StudyProc5","JOL","BlockProc2","Herd - ?",17,"cow","recallproc2","recall"
"IS_JOL B",42,2,3,"BlockProc2","Credit - Card","F",18,50,11697,"StudyProc5","JOL","BlockProc2","Credit - ?",18,"card","recallproc2","recall"
"IS_JOL B",42,2,3,"BlockProc2","Orchid - Flower","F",19,30,6535,"StudyProc5","JOL","BlockProc2","Orchid - ?",19,"flower","recallproc2","recall"
"IS_JOL B",42,2,3,"BlockProc2","Tuna - Fish","F",20,30,6767,"StudyProc5","JOL","BlockProc2","Tuna - ?",20,"fish","recallproc2","recall"
"IS_JOL B",42,2,3,"BlockProc2","Full - Enough","B",21,60,7148,"StudyProc5","JOL","BlockProc2","Full - ?",21,"enough","recallproc2","recall"
"IS_JOL B",42,2,3,"BlockProc2","Drink - Sip","B",22,40,6737,"StudyProc5","JOL","BlockProc2","Drink - ?",22,"","recallproc2","recall"
"IS_JOL B",42,2,3,"BlockProc2","Dark - Cave","B",23,40,12079,"StudyProc5","JOL","BlockProc2","Dark - ?",23,"cave","recallproc2","recall"
"IS_JOL B",42,2,3,"BlockProc2","Take - Seize","B",24,50,7596,"StudyProc5","JOL","BlockProc2","Take - ?",24,"give","recallproc2","recall"
"IS_JOL B",42,2,3,"BlockProc2","Height - Growth","B",25,60,10177,"StudyProc5","JOL","BlockProc2","Height - ?",25,"growth","recallproc2","recall"
"IS_JOL B",42,2,3,"BlockProc2","Sentence - Word","B",26,70,7564,"StudyProc5","JOL","BlockProc2","Sentence - ?",26,"word","recallproc2","recall"
"IS_JOL B",42,2,3,"BlockProc2","Bug - Wasp","B",27,60,6944,"StudyProc5","JOL","BlockProc2","Bug - ?",27,"wasp","recallproc2","recall"
"IS_JOL B",42,2,3,"BlockProc2","Math - Division","B",28,60,6258,"StudyProc5","JOL","BlockProc2","Math - ?",28,"problem","recallproc2","recall"
"IS_JOL B",42,2,3,"BlockProc2","Law - Attorney","B",29,50,12782,"StudyProc5","JOL","BlockProc2","Law - ?",29,"attorney","recallproc2","recall"
"IS_JOL B",42,2,3,"BlockProc2","Great - Fantastic","B",30,80,8528,"StudyProc5","JOL","BlockProc2","Great - ?",30,"fantastic","recallproc2","recall"
"IS_JOL B",42,2,3,"BlockProc2","Key - Latch","B",31,60,7705,"StudyProc5","JOL","BlockProc2","Key - ?",31,"latch","recallproc2","recall"
"IS_JOL B",42,2,3,"BlockProc2","Hot - Chili","B",32,30,7988,"StudyProc5","JOL","BlockProc2","Hot - ?",32,"chili","recallproc2","recall"
"IS_JOL B",42,2,3,"BlockProc2","Ball - Racket","B",33,70,6349,"StudyProc5","JOL","BlockProc2","Ball - ?",33,"game","recallproc2","recall"
"IS_JOL B",42,2,3,"BlockProc2","Work - Chore","B",34,60,12521,"StudyProc5","JOL","BlockProc2","Work - ?",34,"chore","recallproc2","recall"
"IS_JOL B",42,2,3,"BlockProc2","Hunger - Famine","B",35,70,10207,"StudyProc5","JOL","BlockProc2","Hunger - ?",35,"famine","recallproc2","recall"
"IS_JOL B",42,2,3,"BlockProc2","Sleep - Drowsy","B",36,50,5524,"StudyProc5","JOL","BlockProc2","Sleep - ?",36,"drowsy","recallproc2","recall"
"IS_JOL B",42,2,3,"BlockProc2","Smell - Stench","B",37,80,7743,"StudyProc5","JOL","BlockProc2","Smell - ?",37,"stench","recallproc2","recall"
"IS_JOL B",42,2,3,"BlockProc2","Clothes - Attire","B",38,50,13138,"StudyProc5","JOL","BlockProc2","Clothes - ?",38,"cake","recallproc2","recall"
"IS_JOL B",42,2,3,"BlockProc2","Plane - Pilot","B",39,80,11777,"StudyProc5","JOL","BlockProc2","Plane - ?",39,"pilot","recallproc2","recall"
"IS_JOL B",42,2,3,"BlockProc2","Fire - Blaze","B",40,60,11729,"StudyProc5","JOL","BlockProc2","Fire - ?",40,"blaze","recallproc2","recall"
"IS_JOL B",42,2,3,"BlockProc2","Due - Assignment","S",41,0,7975,"StudyProc8","JOL","BlockProc2","Due - ?",41,"assignment","recallproc2","recall"
"IS_JOL B",42,2,3,"BlockProc2","Number - Amount","S",42,50,10565,"StudyProc8","JOL","BlockProc2","Number - ?",42,"amount","recallproc2","recall"
"IS_JOL B",42,2,3,"BlockProc2","Location - Site","S",43,60,9009,"StudyProc8","JOL","BlockProc2","Location - ?",43,"site","recallproc2","recall"
"IS_JOL B",42,2,3,"BlockProc2","Dump - Waste","S",44,30,9652,"StudyProc8","JOL","BlockProc2","Dump - ?",44,"trash","recallproc2","recall"
"IS_JOL B",42,2,3,"BlockProc2","Trial - Jury","S",45,60,7530,"StudyProc8","JOL","BlockProc2","Trial - ?",45,"jury","recallproc2","recall"
"IS_JOL B",42,2,3,"BlockProc2","Architecture - Design","S",46,0,9740,"StudyProc8","JOL","BlockProc2","Architecture - ?",46,"design","recallproc2","recall"
"IS_JOL B",42,2,3,"BlockProc2","Grill - Bar","S",47,50,12139,"StudyProc8","JOL","BlockProc2","Grill - ?",47,"bar","recallproc2","recall"
"IS_JOL B",42,2,3,"BlockProc2","Kidney - Liver","S",48,40,6934,"StudyProc8","JOL","BlockProc2","Kidney - ?",48,"liver","recallproc2","recall"
"IS_JOL B",42,2,3,"BlockProc2","Begin - End","S",49,70,8213,"StudyProc8","JOL","BlockProc2","Begin - ?",49,"end","recallproc2","recall"
"IS_JOL B",42,2,3,"BlockProc2","Blow - Wind","S",50,50,5442,"StudyProc8","JOL","BlockProc2","Blow - ?",50,"wind","recallproc2","recall"
"IS_JOL B",42,2,3,"BlockProc2","Pop - Soda","S",51,60,12192,"StudyProc8","JOL","BlockProc2","Pop - ?",51,"soda","recallproc2","recall"
"IS_JOL B",42,2,3,"BlockProc2","Wine - Cheese","S",52,80,6617,"StudyProc8","JOL","BlockProc2","Wine - ?",52,"cheese","recallproc2","recall"
"IS_JOL B",42,2,3,"BlockProc2","Bathroom - Toilet","S",53,50,10641,"StudyProc8","JOL","BlockProc2","Bathroom - ?",53,"toilet","recallproc2","recall"
"IS_JOL B",42,2,3,"BlockProc2","Lettuce - Salad","S",54,80,4358,"StudyProc8","JOL","BlockProc2","Lettuce - ?",54,"salad","recallproc2","recall"
"IS_JOL B",42,2,3,"BlockProc2","Shoe - Foot","S",55,80,6683,"StudyProc8","JOL","BlockProc2","Shoe - ?",55,"foot","recallproc2","recall"
"IS_JOL B",42,2,3,"BlockProc2","Past - Future","S",56,70,7034,"StudyProc8","JOL","BlockProc2","Past - ?",56,"future","recallproc2","recall"
"IS_JOL B",42,2,3,"BlockProc2","Choice - Decision","S",57,50,10653,"StudyProc8","JOL","BlockProc2","Choice - ?",57,"desicion","recallproc2","recall"
"IS_JOL B",42,2,3,"BlockProc2","Honey - Bee","S",58,60,7876,"StudyProc8","JOL","BlockProc2","Honey - ?",58,"bee","recallproc2","recall"
"IS_JOL B",42,2,3,"BlockProc2","Baby - Child","S",59,60,6128,"StudyProc8","JOL","BlockProc2","Baby - ?",59,"child","recallproc2","recall"
"IS_JOL B",42,2,3,"BlockProc2","Circle - Round","S",60,60,12104,"StudyProc8","JOL","BlockProc2","Circle - ?",60,"round","recallproc2","recall"
"IS_JOL B",42,2,3,"BlockProc2","Pusher - Clutter","U",61,10,10336,"StudyProc8","JOL","BlockProc2","Pusher - ?",61,"bank","recallproc2","recall"
"IS_JOL B",42,2,3,"BlockProc2","Dietary - Slacking","U",62,70,8363,"StudyProc8","JOL","BlockProc2","Dietary - ?",62,"discipline","recallproc2","recall"
"IS_JOL B",42,2,3,"BlockProc2","Park - Hungry","U",63,50,7885,"StudyProc8","JOL","BlockProc2","Park - ?",63,"eat","recallproc2","recall"
"IS_JOL B",42,2,3,"BlockProc2","Lift - Woman","U",64,70,6043,"StudyProc8","JOL","BlockProc2","Lift - ?",64,"woman","recallproc2","recall"
"IS_JOL B",42,2,3,"BlockProc2","Soon - Belt","U",65,50,15132,"StudyProc8","JOL","BlockProc2","Soon - ?",65,"away","recallproc2","recall"
"IS_JOL B",42,2,3,"BlockProc2","Discover - Floor","U",66,20,8833,"StudyProc8","JOL","BlockProc2","Discover - ?",66,"game","recallproc2","recall"
"IS_JOL B",42,2,3,"BlockProc2","Death - Business","U",67,60,8683,"StudyProc8","JOL","BlockProc2","Death - ?",67,"business","recallproc2","recall"
"IS_JOL B",42,2,3,"BlockProc2","Debate - Sight","U",68,40,10883,"StudyProc8","JOL","BlockProc2","Debate - ?",68,"discuss","recallproc2","recall"
"IS_JOL B",42,2,3,"BlockProc2","Artery - Bronze","U",69,0,8281,"StudyProc8","JOL","BlockProc2","Artery - ?",69,"contest","recallproc2","recall"
"IS_JOL B",42,2,3,"BlockProc2","Fix - Hand","U",70,60,10808,"StudyProc8","JOL","BlockProc2","Fix - ?",70,"hand","recallproc2","recall"
"IS_JOL B",42,2,3,"BlockProc2","Machine - Position","U",71,75,10817,"StudyProc8","JOL","BlockProc2","Machine - ?",71,"error","recallproc2","recall"
"IS_JOL B",42,2,3,"BlockProc2","Happy - Car","U",72,40,10667,"StudyProc8","JOL","BlockProc2","Happy - ?",72,"car","recallproc2","recall"
"IS_JOL B",42,2,3,"BlockProc2","Allow - Tuck","U",73,20,13745,"StudyProc8","JOL","BlockProc2","Allow - ?",73,"deny","recallproc2","recall"
"IS_JOL B",42,2,3,"BlockProc2","Art - Lion","U",74,50,10799,"StudyProc8","JOL","BlockProc2","Art - ?",74,"lion","recallproc2","recall"
"IS_JOL B",42,2,3,"BlockProc2","Strong - Accident","U",75,60,7829,"StudyProc8","JOL","BlockProc2","Strong - ?",75,"woman","recallproc2","recall"
"IS_JOL B",42,2,3,"BlockProc2","Sugar - Riddle","U",76,50,8736,"StudyProc8","JOL","BlockProc2","Sugar - ?",76,"key","recallproc2","recall"
"IS_JOL B",42,2,3,"BlockProc2","Valley - Add","U",77,50,13061,"StudyProc8","JOL","BlockProc2","Valley - ?",77,"dark","recallproc2","recall"
"IS_JOL B",42,2,3,"BlockProc2","Cash - Would","U",78,20,10855,"StudyProc8","JOL","BlockProc2","Cash - ?",78,"money","recallproc2","recall"
"IS_JOL B",42,2,3,"BlockProc2","Hide - Sick","U",79,70,10028,"StudyProc8","JOL","BlockProc2","Hide - ?",79,"sick","recallproc2","recall"
"IS_JOL B",42,2,3,"BlockProc2","King - Vase","U",80,30,9228,"StudyProc8","JOL","BlockProc2","King - ?",80,"vase","recallproc2","recall"
"RL_JOL B",46,2,3,"BlockProc2","Hornet - Sting","F",6,70,10725,"StudyProc5","JOL","BlockProc2","Hornet - ?",6,"sting","recallproc2","recall"
"RL_JOL B",46,2,3,"BlockProc2","Bitter - Cold","F",7,80,11285,"StudyProc5","JOL","BlockProc2","Bitter - ?",7,"cold","recallproc2","recall"
"RL_JOL B",46,2,3,"BlockProc2","Root - Plant","F",8,50,14742,"StudyProc5","JOL","BlockProc2","Root - ?",8,"plant","recallproc2","recall"
"RL_JOL B",46,2,3,"BlockProc2","Swan - Bird","F",9,80,15718,"StudyProc5","JOL","BlockProc2","Swan - ?",9,"bird","recallproc2","recall"
"RL_JOL B",46,2,3,"BlockProc2","Paw - Dog","F",10,80,9511,"StudyProc5","JOL","BlockProc2","Paw - ?",10,"dog","recallproc2","recall"
"RL_JOL B",46,2,3,"BlockProc2","Way - Out","F",11,70,14395,"StudyProc5","JOL","BlockProc2","Way - ?",11,"around","recallproc2","recall"
"RL_JOL B",46,2,3,"BlockProc2","Hygiene - Clean","F",12,60,17599,"StudyProc5","JOL","BlockProc2","Hygiene - ?",12,"clean","recallproc2","recall"
"RL_JOL B",46,2,3,"BlockProc2","Bridge - Water","F",13,45,11570,"StudyProc5","JOL","BlockProc2","Bridge - ?",13,"water","recallproc2","recall"
"RL_JOL B",46,2,3,"BlockProc2","Geology - Rock","F",14,50,12126,"StudyProc5","JOL","BlockProc2","Geology - ?",14,"rock","recallproc2","recall"
"RL_JOL B",46,2,3,"BlockProc2","Revolution - War","F",15,50,15391,"StudyProc5","JOL","BlockProc2","Revolution - ?",15,"war","recallproc2","recall"
"RL_JOL B",46,2,3,"BlockProc2","Discussion - Talk","F",16,90,11961,"StudyProc5","JOL","BlockProc2","Discussion - ?",16,"talk","recallproc2","recall"
"RL_JOL B",46,2,3,"BlockProc2","Herd - Cow","F",17,100,12373,"StudyProc5","JOL","BlockProc2","Herd - ?",17,"cow","recallproc2","recall"
"RL_JOL B",46,2,3,"BlockProc2","Credit - Card","F",18,100,7827,"StudyProc5","JOL","BlockProc2","Credit - ?",18,"card","recallproc2","recall"
"RL_JOL B",46,2,3,"BlockProc2","Orchid - Flower","F",19,40,14200,"StudyProc5","JOL","BlockProc2","Orchid - ?",19,"flower","recallproc2","recall"
"RL_JOL B",46,2,3,"BlockProc2","Tuna - Fish","F",20,35,12658,"StudyProc5","JOL","BlockProc2","Tuna - ?",20,"fish","recallproc2","recall"
"RL_JOL B",46,2,3,"BlockProc2","Full - Enough","B",21,45,13930,"StudyProc5","JOL","BlockProc2","Full - ?",21,"enough","recallproc2","recall"
"RL_JOL B",46,2,3,"BlockProc2","Drink - Sip","B",22,50,13477,"StudyProc5","JOL","BlockProc2","Drink - ?",22,"sip","recallproc2","recall"
"RL_JOL B",46,2,3,"BlockProc2","Dark - Cave","B",23,30,14519,"StudyProc5","JOL","BlockProc2","Dark - ?",23,"cave","recallproc2","recall"
"RL_JOL B",46,2,3,"BlockProc2","Take - Seize","B",24,50,14738,"StudyProc5","JOL","BlockProc2","Take - ?",24,"snatch","recallproc2","recall"
"RL_JOL B",46,2,3,"BlockProc2","Height - Growth","B",25,60,21642,"StudyProc5","JOL","BlockProc2","Height - ?",25,"growth","recallproc2","recall"
"RL_JOL B",46,2,3,"BlockProc2","Sentence - Word","B",26,45,11341,"StudyProc5","JOL","BlockProc2","Sentence - ?",26,"word","recallproc2","recall"
"RL_JOL B",46,2,3,"BlockProc2","Bug - Wasp","B",27,60,11285,"StudyProc5","JOL","BlockProc2","Bug - ?",27,"wasp","recallproc2","recall"
"RL_JOL B",46,2,3,"BlockProc2","Math - Division","B",28,60,8769,"StudyProc5","JOL","BlockProc2","Math - ?",28,"division","recallproc2","recall"
"RL_JOL B",46,2,3,"BlockProc2","Law - Attorney","B",29,60,11365,"StudyProc5","JOL","BlockProc2","Law - ?",29,"attorney","recallproc2","recall"
"RL_JOL B",46,2,3,"BlockProc2","Great - Fantastic","B",30,40,18666,"StudyProc5","JOL","BlockProc2","Great - ?",30,"fantastic","recallproc2","recall"
"RL_JOL B",46,2,3,"BlockProc2","Key - Latch","B",31,15,19737,"StudyProc5","JOL","BlockProc2","Key - ?",31,"latch","recallproc2","recall"
"RL_JOL B",46,2,3,"BlockProc2","Hot - Chili","B",32,50,9233,"StudyProc5","JOL","BlockProc2","Hot - ?",32,"cold","recallproc2","recall"
"RL_JOL B",46,2,3,"BlockProc2","Ball - Racket","B",33,40,12260,"StudyProc5","JOL","BlockProc2","Ball - ?",33,"racket","recallproc2","recall"
"RL_JOL B",46,2,3,"BlockProc2","Work - Chore","B",34,70,13037,"StudyProc5","JOL","BlockProc2","Work - ?",34,"wage","recallproc2","recall"
"RL_JOL B",46,2,3,"BlockProc2","Hunger - Famine","B",35,70,11365,"StudyProc5","JOL","BlockProc2","Hunger - ?",35,"park","recallproc2","recall"
"RL_JOL B",46,2,3,"BlockProc2","Sleep - Drowsy","B",36,79,16194,"StudyProc5","JOL","BlockProc2","Sleep - ?",36,"drowsy","recallproc2","recall"
"RL_JOL B",46,2,3,"BlockProc2","Smell - Stench","B",37,60,10342,"StudyProc5","JOL","BlockProc2","Smell - ?",37,"stench","recallproc2","recall"
"RL_JOL B",46,2,3,"BlockProc2","Clothes - Attire","B",38,60,13300,"StudyProc5","JOL","BlockProc2","Clothes - ?",38,"attire","recallproc2","recall"
"RL_JOL B",46,2,3,"BlockProc2","Plane - Pilot","B",39,80,12785,"StudyProc5","JOL","BlockProc2","Plane - ?",39,"pilot","recallproc2","recall"
"RL_JOL B",46,2,3,"BlockProc2","Fire - Blaze","B",40,40,21566,"StudyProc5","JOL","BlockProc2","Fire - ?",40,"blaze","recallproc2","recall"
"RL_JOL B",46,2,3,"BlockProc2","Due - Assignment","S",41,80,11344,"StudyProc8","JOL","BlockProc2","Due - ?",41,"assignment","recallproc2","recall"
"RL_JOL B",46,2,3,"BlockProc2","Number - Amount","S",42,76,15729,"StudyProc8","JOL","BlockProc2","Number - ?",42,"amount","recallproc2","recall"
"RL_JOL B",46,2,3,"BlockProc2","Location - Site","S",43,70,10579,"StudyProc8","JOL","BlockProc2","Location - ?",43,"site","recallproc2","recall"
"RL_JOL B",46,2,3,"BlockProc2","Dump - Waste","S",44,40,12457,"StudyProc8","JOL","BlockProc2","Dump - ?",44,"garbage","recallproc2","recall"
"RL_JOL B",46,2,3,"BlockProc2","Trial - Jury","S",45,80,10682,"StudyProc8","JOL","BlockProc2","Trial - ?",45,"jury","recallproc2","recall"
"RL_JOL B",46,2,3,"BlockProc2","Architecture - Design","S",46,90,15285,"StudyProc8","JOL","BlockProc2","Architecture - ?",46,"design","recallproc2","recall"
"RL_JOL B",46,2,3,"BlockProc2","Grill - Bar","S",47,60,11025,"StudyProc8","JOL","BlockProc2","Grill - ?",47,"bar","recallproc2","recall"
"RL_JOL B",46,2,3,"BlockProc2","Kidney - Liver","S",48,50,13221,"StudyProc8","JOL","BlockProc2","Kidney - ?",48,"liver","recallproc2","recall"
"RL_JOL B",46,2,3,"BlockProc2","Begin - End","S",49,70,12315,"StudyProc8","JOL","BlockProc2","Begin - ?",49,"end","recallproc2","recall"
"RL_JOL B",46,2,3,"BlockProc2","Blow - Wind","S",50,60,13778,"StudyProc8","JOL","BlockProc2","Blow - ?",50,"wind","recallproc2","recall"
"RL_JOL B",46,2,3,"BlockProc2","Pop - Soda","S",51,70,10542,"StudyProc8","JOL","BlockProc2","Pop - ?",51,"soda","recallproc2","recall"
"RL_JOL B",46,2,3,"BlockProc2","Wine - Cheese","S",52,90,11822,"StudyProc8","JOL","BlockProc2","Wine - ?",52,"cheese","recallproc2","recall"
"RL_JOL B",46,2,3,"BlockProc2","Bathroom - Toilet","S",53,70,12854,"StudyProc8","JOL","BlockProc2","Bathroom - ?",53,"toilet","recallproc2","recall"
"RL_JOL B",46,2,3,"BlockProc2","Lettuce - Salad","S",54,95,10146,"StudyProc8","JOL","BlockProc2","Lettuce - ?",54,"salad","recallproc2","recall"
"RL_JOL B",46,2,3,"BlockProc2","Shoe - Foot","S",55,50,10528,"StudyProc8","JOL","BlockProc2","Shoe - ?",55,"foot","recallproc2","recall"
"RL_JOL B",46,2,3,"BlockProc2","Past - Future","S",56,90,18806,"StudyProc8","JOL","BlockProc2","Past - ?",56,"future","recallproc2","recall"
"RL_JOL B",46,2,3,"BlockProc2","Choice - Decision","S",57,50,11335,"StudyProc8","JOL","BlockProc2","Choice - ?",57,"decision","recallproc2","recall"
"RL_JOL B",46,2,3,"BlockProc2","Honey - Bee","S",58,100,9520,"StudyProc8","JOL","BlockProc2","Honey - ?",58,"bee","recallproc2","recall"
"RL_JOL B",46,2,3,"BlockProc2","Baby - Child","S",59,50,16333,"StudyProc8","JOL","BlockProc2","Baby - ?",59,"child","recallproc2","recall"
"RL_JOL B",46,2,3,"BlockProc2","Circle - Round","S",60,90,9085,"StudyProc8","JOL","BlockProc2","Circle - ?",60,"round","recallproc2","recall"
"RL_JOL B",46,2,3,"BlockProc2","Pusher - Clutter","U",61,0,16472,"StudyProc8","JOL","BlockProc2","Pusher - ?",61,"pile","recallproc2","recall"
"RL_JOL B",46,2,3,"BlockProc2","Dietary - Slacking","U",62,5,21443,"StudyProc8","JOL","BlockProc2","Dietary - ?",62,"need","recallproc2","recall"
"RL_JOL B",46,2,3,"BlockProc2","Park - Hungry","U",63,5,21821,"StudyProc8","JOL","BlockProc2","Park - ?",63,"hunger","recallproc2","recall"
"RL_JOL B",46,2,3,"BlockProc2","Lift - Woman","U",64,5,15017,"StudyProc8","JOL","BlockProc2","Lift - ?",64,"handle","recallproc2","recall"
"RL_JOL B",46,2,3,"BlockProc2","Soon - Belt","U",65,5,15143,"StudyProc8","JOL","BlockProc2","Soon - ?",65,"tan","recallproc2","recall"
"RL_JOL B",46,2,3,"BlockProc2","Discover - Floor","U",66,10,14918,"StudyProc8","JOL","BlockProc2","Discover - ?",66,"see","recallproc2","recall"
"RL_JOL B",46,2,3,"BlockProc2","Death - Business","U",67,15,21361,"StudyProc8","JOL","BlockProc2","Death - ?",67,"business","recallproc2","recall"
"RL_JOL B",46,2,3,"BlockProc2","Debate - Sight","U",68,0,25419,"StudyProc8","JOL","BlockProc2","Debate - ?",68,"sight","recallproc2","recall"
"RL_JOL B",46,2,3,"BlockProc2","Artery - Bronze","U",69,5,15297,"StudyProc8","JOL","BlockProc2","Artery - ?",69,"bronze","recallproc2","recall"
"RL_JOL B",46,2,3,"BlockProc2","Fix - Hand","U",70,50,12405,"StudyProc8","JOL","BlockProc2","Fix - ?",70,"hand","recallproc2","recall"
"RL_JOL B",46,2,3,"BlockProc2","Machine - Position","U",71,0,25194,"StudyProc8","JOL","BlockProc2","Machine - ?",71,"position","recallproc2","recall"
"RL_JOL B",46,2,3,"BlockProc2","Happy - Car","U",72,30,13381,"StudyProc8","JOL","BlockProc2","Happy - ?",72,"day","recallproc2","recall"
"RL_JOL B",46,2,3,"BlockProc2","Allow - Tuck","U",73,0,21270,"StudyProc8","JOL","BlockProc2","Allow - ?",73,"tuck","recallproc2","recall"
"RL_JOL B",46,2,3,"BlockProc2","Art - Lion","U",74,5,22794,"StudyProc8","JOL","BlockProc2","Art - ?",74,"lion","recallproc2","recall"
"RL_JOL B",46,2,3,"BlockProc2","Strong - Accident","U",75,30,26483,"StudyProc8","JOL","BlockProc2","Strong - ?",75,"accident","recallproc2","recall"
"RL_JOL B",46,2,3,"BlockProc2","Sugar - Riddle","U",76,5,17991,"StudyProc8","JOL","BlockProc2","Sugar - ?",76,"riddle","recallproc2","recall"
"RL_JOL B",46,2,3,"BlockProc2","Valley - Add","U",77,0,17716,"StudyProc8","JOL","BlockProc2","Valley - ?",77,"add","recallproc2","recall"
"RL_JOL B",46,2,3,"BlockProc2","Cash - Would","U",78,0,16157,"StudyProc8","JOL","BlockProc2","Cash - ?",78,"out","recallproc2","recall"
"RL_JOL B",46,2,3,"BlockProc2","Hide - Sick","U",79,20,18799,"StudyProc8","JOL","BlockProc2","Hide - ?",79,"sick","recallproc2","recall"
"RL_JOL B",46,2,3,"BlockProc2","King - Vase","U",80,0,15606,"StudyProc8","JOL","BlockProc2","King - ?",80,"vase","recallproc2","recall"
"IS_JOL C",43,1,3,"BlockProc1","Sting - Hornet","F",6,79,19335,"StudyProc7","JOL","BlockProc1","Sting - ?",6,"bee","recallproc1","recall"
"IS_JOL C",43,1,3,"BlockProc1","Cold - Bitter","F",7,16,22076,"StudyProc7","JOL","BlockProc1","Cold - ?",7,"hot","recallproc1","recall"
"IS_JOL C",43,1,3,"BlockProc1","Plant - Root","F",8,99,21113,"StudyProc7","JOL","BlockProc1","Plant - ?",8,"root","recallproc1","recall"
"IS_JOL C",43,1,3,"BlockProc1","Bird - Swan","F",9,61,18136,"StudyProc7","JOL","BlockProc1","Bird - ?",9,"swan","recallproc1","recall"
"IS_JOL C",43,1,3,"BlockProc1","Dog - Paw","F",10,92,12677,"StudyProc7","JOL","BlockProc1","Dog - ?",10,"paw","recallproc1","recall"
"IS_JOL C",43,1,3,"BlockProc1","Out - Way","F",11,78,21185,"StudyProc7","JOL","BlockProc1","Out - ?",11,"way","recallproc1","recall"
"IS_JOL C",43,1,3,"BlockProc1","Clean - Hygiene","F",12,82,17896,"StudyProc7","JOL","BlockProc1","Clean - ?",12,"chore","recallproc1","recall"
"IS_JOL C",43,1,3,"BlockProc1","Water - Bridge","F",13,89,26779,"StudyProc7","JOL","BlockProc1","Water - ?",13,"bridge","recallproc1","recall"
"IS_JOL C",43,1,3,"BlockProc1","Rock - Geology","F",14,99,20341,"StudyProc7","JOL","BlockProc1","Rock - ?",14,"geology","recallproc1","recall"
"IS_JOL C",43,1,3,"BlockProc1","War - Revolution","F",15,95,26407,"StudyProc7","JOL","BlockProc1","War - ?",15,"revolution","recallproc1","recall"
"IS_JOL C",43,1,3,"BlockProc1","Talk - Discussion","F",16,97,28621,"StudyProc7","JOL","BlockProc1","Talk - ?",16,"discussion","recallproc1","recall"
"IS_JOL C",43,1,3,"BlockProc1","Cow - Herd","F",17,99,17523,"StudyProc7","JOL","BlockProc1","Cow - ?",17,"herd","recallproc1","recall"
"IS_JOL C",43,1,3,"BlockProc1","Card - Credit","F",18,82,25708,"StudyProc7","JOL","BlockProc1","Card - ?",18,"credit","recallproc1","recall"
"IS_JOL C",43,1,3,"BlockProc1","Flower - Orchid","F",19,97,18990,"StudyProc7","JOL","BlockProc1","Flower - ?",19,"orchid","recallproc1","recall"
"IS_JOL C",43,1,3,"BlockProc1","Fish - Tuna","F",20,100,19440,"StudyProc7","JOL","BlockProc1","Fish - ?",20,"tuna","recallproc1","recall"
"IS_JOL C",43,1,3,"BlockProc1","Enough - Full","B",21,82,21824,"StudyProc7","JOL","BlockProc1","Enough - ?",21,"full","recallproc1","recall"
"IS_JOL C",43,1,3,"BlockProc1","Sip - Drink","B",22,99,25629,"StudyProc7","JOL","BlockProc1","Sip - ?",22,"drink","recallproc1","recall"
"IS_JOL C",43,1,3,"BlockProc1","Cave - Dark","B",23,89,21639,"StudyProc7","JOL","BlockProc1","Cave - ?",23,"dark","recallproc1","recall"
"IS_JOL C",43,1,3,"BlockProc1","Seize - Take","B",24,89,19620,"StudyProc7","JOL","BlockProc1","Seize - ?",24,"take","recallproc1","recall"
"IS_JOL C",43,1,3,"BlockProc1","Growth - Height","B",25,82,21018,"StudyProc7","JOL","BlockProc1","Growth - ?",25,"root","recallproc1","recall"
"IS_JOL C",43,1,3,"BlockProc1","Word - Sentence","B",26,99,13223,"StudyProc7","JOL","BlockProc1","Word - ?",26,"sentence","recallproc1","recall"
"IS_JOL C",43,1,3,"BlockProc1","Wasp - Bug","B",27,100,19328,"StudyProc7","JOL","BlockProc1","Wasp - ?",27,"bee","recallproc1","recall"
"IS_JOL C",43,1,3,"BlockProc1","Division - Math","B",28,100,19139,"StudyProc7","JOL","BlockProc1","Division - ?",28,"math","recallproc1","recall"
"IS_JOL C",43,1,3,"BlockProc1","Attorney - Law","B",29,98,29979,"StudyProc7","JOL","BlockProc1","Attorney - ?",29,"law","recallproc1","recall"
"IS_JOL C",43,1,3,"BlockProc1","Fantastic - Great","B",30,99,21247,"StudyProc7","JOL","BlockProc1","Fantastic - ?",30,"great","recallproc1","recall"
"IS_JOL C",43,1,3,"BlockProc1","Latch - Key","B",31,96,19728,"StudyProc7","JOL","BlockProc1","Latch - ?",31,"key","recallproc1","recall"
"IS_JOL C",43,1,3,"BlockProc1","Chili - Hot","B",32,98,17698,"StudyProc7","JOL","BlockProc1","Chili - ?",32,"hot","recallproc1","recall"
"IS_JOL C",43,1,3,"BlockProc1","Racket - Ball","B",33,91,20671,"StudyProc7","JOL","BlockProc1","Racket - ?",33,"ball","recallproc1","recall"
"IS_JOL C",43,1,3,"BlockProc1","Chore - Work","B",34,99,14569,"StudyProc7","JOL","BlockProc1","Chore - ?",34,"work","recallproc1","recall"
"IS_JOL C",43,1,3,"BlockProc1","Famine - Hunger","B",35,100,27846,"StudyProc7","JOL","BlockProc1","Famine - ?",35,"hunger","recallproc1","recall"
"IS_JOL C",43,1,3,"BlockProc1","Drowsy - Sleep","B",36,17,21441,"StudyProc7","JOL","BlockProc1","Drowsy - ?",36,"sleep","recallproc1","recall"
"IS_JOL C",43,1,3,"BlockProc1","Stench - Smell","B",37,74,26652,"StudyProc7","JOL","BlockProc1","Stench - ?",37,"smell","recallproc1","recall"
"IS_JOL C",43,1,3,"BlockProc1","Attire - Clothes","B",38,99,19650,"StudyProc7","JOL","BlockProc1","Attire - ?",38,"clothes","recallproc1","recall"
"IS_JOL C",43,1,3,"BlockProc1","Pilot - Plane","B",39,90,14682,"StudyProc7","JOL","BlockProc1","Pilot - ?",39,"plane","recallproc1","recall"
"IS_JOL C",43,1,3,"BlockProc1","Blaze - Fire","B",40,100,19617,"StudyProc7","JOL","BlockProc1","Blaze - ?",40,"fire","recallproc1","recall"
"IS_JOL C",43,1,3,"BlockProc1","Assignment - Due","S",41,21,27850,"StudyProc3","JOL","BlockProc1","Assignment - ?",41,"due","recallproc1","recall"
"IS_JOL C",43,1,3,"BlockProc1","Amount - Number","S",42,84,21102,"StudyProc3","JOL","BlockProc1","Amount - ?",42,"number","recallproc1","recall"
"IS_JOL C",43,1,3,"BlockProc1","Site - Location","S",43,71,18517,"StudyProc3","JOL","BlockProc1","Site - ?",43,"location","recallproc1","recall"
"IS_JOL C",43,1,3,"BlockProc1","Waste - Dump","S",44,62,16382,"StudyProc3","JOL","BlockProc1","Waste - ?",44,"dump","recallproc1","recall"
"IS_JOL C",43,1,3,"BlockProc1","Jury - Trial","S",45,92,22380,"StudyProc3","JOL","BlockProc1","Jury - ?",45,"trial","recallproc1","recall"
"IS_JOL C",43,1,3,"BlockProc1","Design - Architecture","S",46,48,22192,"StudyProc3","JOL","BlockProc1","Design - ?",46,"architecture","recallproc1","recall"
"IS_JOL C",43,1,3,"BlockProc1","Bar - Grill","S",47,62,21031,"StudyProc3","JOL","BlockProc1","Bar - ?",47,"grll","recallproc1","recall"
"IS_JOL C",43,1,3,"BlockProc1","Liver - Kidney","S",48,54,23131,"StudyProc3","JOL","BlockProc1","Liver - ?",48,"stomach","recallproc1","recall"
"IS_JOL C",43,1,3,"BlockProc1","End - Begin","S",49,89,13885,"StudyProc3","JOL","BlockProc1","End - ?",49,"begin","recallproc1","recall"
"IS_JOL C",43,1,3,"BlockProc1","Wind - Blow","S",50,87,12281,"StudyProc3","JOL","BlockProc1","Wind - ?",50,"blow","recallproc1","recall"
"IS_JOL C",43,1,3,"BlockProc1","Soda - Pop","S",51,72,31058,"StudyProc3","JOL","BlockProc1","Soda - ?",51,"pp","recallproc1","recall"
"IS_JOL C",43,1,3,"BlockProc1","Cheese - Wine","S",52,78,11585,"StudyProc3","JOL","BlockProc1","Cheese - ?",52,"wine","recallproc1","recall"
"IS_JOL C",43,1,3,"BlockProc1","Toilet - Bathroom","S",53,83,19952,"StudyProc3","JOL","BlockProc1","Toilet - ?",53,"bathroom","recallproc1","recall"
"IS_JOL C",43,1,3,"BlockProc1","Salad - Lettuce","S",54,67,25242,"StudyProc3","JOL","BlockProc1","Salad - ?",54,"lettuce","recallproc1","recall"
"IS_JOL C",43,1,3,"BlockProc1","Foot - Shoe","S",55,89,18268,"StudyProc3","JOL","BlockProc1","Foot - ?",55,"shoe","recallproc1","recall"
"IS_JOL C",43,1,3,"BlockProc1","Future - Past","S",56,99,11217,"StudyProc3","JOL","BlockProc1","Future - ?",56,"past","recallproc1","recall"
"IS_JOL C",43,1,3,"BlockProc1","Decision - Choise","S",57,71,23729,"StudyProc3","JOL","BlockProc1","Decision - ?",57,"choice","recallproc1","recall"
"IS_JOL C",43,1,3,"BlockProc1","Bee - Honey","S",58,71,16877,"StudyProc3","JOL","BlockProc1","Bee - ?",58,"honey","recallproc1","recall"
"IS_JOL C",43,1,3,"BlockProc1","Child - Baby","S",59,77,26023,"StudyProc3","JOL","BlockProc1","Child - ?",59,"baby","recallproc1","recall"
"IS_JOL C",43,1,3,"BlockProc1","Round - Circle","S",60,99,14246,"StudyProc3","JOL","BlockProc1","Round - ?",60,"circle","recallproc1","recall"
"IS_JOL C",43,1,3,"BlockProc1","Clutter - Pusher","U",61,61,20123,"StudyProc3","JOL","BlockProc1","Clutter - ?",61,"mess","recallproc1","recall"
"IS_JOL C",43,1,3,"BlockProc1","Sacking -Dietary","U",62,28,22956,"StudyProc3","JOL","BlockProc1","Sacking - ?",62,"ball","recallproc1","recall"
"IS_JOL C",43,1,3,"BlockProc1","Hungry - Park","U",63,48,15191,"StudyProc3","JOL","BlockProc1","Hungry - ?",63,"food","recallproc1","recall"
"IS_JOL C",43,1,3,"BlockProc1","Woman - Lift","U",64,37,13289,"StudyProc3","JOL","BlockProc1","Woman - ?",64,"girl","recallproc1","recall"
"IS_JOL C",43,1,3,"BlockProc1","Belt - Soon","U",65,53,15150,"StudyProc3","JOL","BlockProc1","Belt - ?",65,"soon","recallproc1","recall"
"IS_JOL C",43,1,3,"BlockProc1","Floor - Discover","U",66,25,12576,"StudyProc3","JOL","BlockProc1","Floor - ?",66,"ground","recallproc1","recall"
"IS_JOL C",43,1,3,"BlockProc1","Business - Death","U",67,61,20539,"StudyProc3","JOL","BlockProc1","Business - ?",67,"car","recallproc1","recall"
"IS_JOL C",43,1,3,"BlockProc1","Sight - Debate","U",68,51,22202,"StudyProc3","JOL","BlockProc1","Sight - ?",68,"see","recallproc1","recall"
"IS_JOL C",43,1,3,"BlockProc1","Bronze - Artery","U",69,61,20123,"StudyProc3","JOL","BlockProc1","Bronze - ?",69,"medal","recallproc1","recall"
"IS_JOL C",43,1,3,"BlockProc1","Hand - Fix","U",70,91,14377,"StudyProc3","JOL","BlockProc1","Hand - ?",70,"rach","recallproc1","recall"
"IS_JOL C",43,1,3,"BlockProc1","Position - Machine","U",71,78,18799,"StudyProc3","JOL","BlockProc1","Position - ?",71,"set","recallproc1","recall"
"IS_JOL C",43,1,3,"BlockProc1","Car - Happy","U",72,78,14076,"StudyProc3","JOL","BlockProc1","Car - ?",72,"drive","recallproc1","recall"
"IS_JOL C",43,1,3,"BlockProc1","Tuck - Allow","U",73,21,18821,"StudyProc3","JOL","BlockProc1","Tuck - ?",73,"jump","recallproc1","recall"
"IS_JOL C",43,1,3,"BlockProc1","Lion - Art","U",74,48,15976,"StudyProc3","JOL","BlockProc1","Lion - ?",74,"prey","recallproc1","recall"
"IS_JOL C",43,1,3,"BlockProc1","Accident - Strong","U",75,21,17388,"StudyProc3","JOL","BlockProc1","Accident - ?",75,"car","recallproc1","recall"
"IS_JOL C",43,1,3,"BlockProc1","Riddle - Sugar","U",76,62,15126,"StudyProc3","JOL","BlockProc1","Riddle - ?",76,"words","recallproc1","recall"
"IS_JOL C",43,1,3,"BlockProc1","Add - Valley","U",77,36,15230,"StudyProc3","JOL","BlockProc1","Add - ?",77,"subtract","recallproc1","recall"
"IS_JOL C",43,1,3,"BlockProc1","Would - Cash","U",78,42,20580,"StudyProc3","JOL","BlockProc1","Would - ?",78,"should","recallproc1","recall"
"IS_JOL C",43,1,3,"BlockProc1","Sick - Hide","U",79,26,10824,"StudyProc3","JOL","BlockProc1","Sick - ?",79,"cold","recallproc1","recall"
"IS_JOL C",43,1,3,"BlockProc1","Vase - King","U",80,37,16731,"StudyProc3","JOL","BlockProc1","Vase - ?",80,"car","recallproc1","recall"
"RL_JOL C",47,1,3,"BlockProc1","Sting - Hornet","F",6,99,4323,"StudyProc7","JOL","BlockProc1","Sting - ?",6,"bee","recallproc1","recall"
"RL_JOL C",47,1,3,"BlockProc1","Cold - Bitter","F",7,90,8800,"StudyProc7","JOL","BlockProc1","Cold - ?",7,"coffe","recallproc1","recall"
"RL_JOL C",47,1,3,"BlockProc1","Plant - Root","F",8,85,5360,"StudyProc7","JOL","BlockProc1","Plant - ?",8,"flower","recallproc1","recall"
"RL_JOL C",47,1,3,"BlockProc1","Bird - Swan","F",9,70,6758,"StudyProc7","JOL","BlockProc1","Bird - ?",9,"swan","recallproc1","recall"
"RL_JOL C",47,1,3,"BlockProc1","Dog - Paw","F",10,100,4561,"StudyProc7","JOL","BlockProc1","Dog - ?",10,"paw","recallproc1","recall"
"RL_JOL C",47,1,3,"BlockProc1","Out - Way","F",11,80,7317,"StudyProc7","JOL","BlockProc1","Out - ?",11,"in","recallproc1","recall"
"RL_JOL C",47,1,3,"BlockProc1","Clean - Hygiene","F",12,99,5209,"StudyProc7","JOL","BlockProc1","Clean - ?",12,"hygiene","recallproc1","recall"
"RL_JOL C",47,1,3,"BlockProc1","Water - Bridge","F",13,100,4799,"StudyProc7","JOL","BlockProc1","Water - ?",13,"drink","recallproc1","recall"
"RL_JOL C",47,1,3,"BlockProc1","Rock - Geology","F",14,100,5024,"StudyProc7","JOL","BlockProc1","Rock - ?",14,"geology","recallproc1","recall"
"RL_JOL C",47,1,3,"BlockProc1","War - Revolution","F",15,100,4783,"StudyProc7","JOL","BlockProc1","War - ?",15,"revolution","recallproc1","recall"
"RL_JOL C",47,1,3,"BlockProc1","Talk - Discussion","F",16,100,5845,"StudyProc7","JOL","BlockProc1","Talk - ?",16,"speak","recallproc1","recall"
"RL_JOL C",47,1,3,"BlockProc1","Cow - Herd","F",17,90,4180,"StudyProc7","JOL","BlockProc1","Cow - ?",17,"herd","recallproc1","recall"
"RL_JOL C",47,1,3,"BlockProc1","Card - Credit","F",18,100,5147,"StudyProc7","JOL","BlockProc1","Card - ?",18,"credit","recallproc1","recall"
"RL_JOL C",47,1,3,"BlockProc1","Flower - Orchid","F",19,100,5086,"StudyProc7","JOL","BlockProc1","Flower - ?",19,"tulip","recallproc1","recall"
"RL_JOL C",47,1,3,"BlockProc1","Fish - Tuna","F",20,100,5201,"StudyProc7","JOL","BlockProc1","Fish - ?",20,"seafood","recallproc1","recall"
"RL_JOL C",47,1,3,"BlockProc1","Enough - Full","B",21,100,4739,"StudyProc7","JOL","BlockProc1","Enough - ?",21,"stop","recallproc1","recall"
"RL_JOL C",47,1,3,"BlockProc1","Sip - Drink","B",22,100,4458,"StudyProc7","JOL","BlockProc1","Sip - ?",22,"drink","recallproc1","recall"
"RL_JOL C",47,1,3,"BlockProc1","Cave - Dark","B",23,100,4345,"StudyProc7","JOL","BlockProc1","Cave - ?",23,"dark","recallproc1","recall"
"RL_JOL C",47,1,3,"BlockProc1","Seize - Take","B",24,0,9483,"StudyProc7","JOL","BlockProc1","Seize - ?",24,"stop","recallproc1","recall"
"RL_JOL C",47,1,3,"BlockProc1","Growth - Height","B",25,100,5311,"StudyProc7","JOL","BlockProc1","Growth - ?",25,"height","recallproc1","recall"
"RL_JOL C",47,1,3,"BlockProc1","Word - Sentence","B",26,100,4448,"StudyProc7","JOL","BlockProc1","Word - ?",26,"sentence","recallproc1","recall"
"RL_JOL C",47,1,3,"BlockProc1","Wasp - Bug","B",27,100,5397,"StudyProc7","JOL","BlockProc1","Wasp - ?",27,"sting","recallproc1","recall"
"RL_JOL C",47,1,3,"BlockProc1","Division - Math","B",28,100,6225,"StudyProc7","JOL","BlockProc1","Division - ?",28,"math","recallproc1","recall"
"RL_JOL C",47,1,3,"BlockProc1","Attorney - Law","B",29,100,6043,"StudyProc7","JOL","BlockProc1","Attorney - ?",29,"law","recallproc1","recall"
"RL_JOL C",47,1,3,"BlockProc1","Fantastic - Great","B",30,100,4261,"StudyProc7","JOL","BlockProc1","Fantastic - ?",30,"great","recallproc1","recall"
"RL_JOL C",47,1,3,"BlockProc1","Latch - Key","B",31,80,4509,"StudyProc7","JOL","BlockProc1","Latch - ?",31,"","recallproc1","recall"
"RL_JOL C",47,1,3,"BlockProc1","Chili - Hot","B",32,100,6171,"StudyProc7","JOL","BlockProc1","Chili - ?",32,"hot","recallproc1","recall"
"RL_JOL C",47,1,3,"BlockProc1","Racket - Ball","B",33,90,7026,"StudyProc7","JOL","BlockProc1","Racket - ?",33,"ball","recallproc1","recall"
"RL_JOL C",47,1,3,"BlockProc1","Chore - Work","B",34,99,7215,"StudyProc7","JOL","BlockProc1","Chore - ?",34,"worl","recallproc1","recall"
"RL_JOL C",47,1,3,"BlockProc1","Famine - Hunger","B",35,100,3221,"StudyProc7","JOL","BlockProc1","Famine - ?",35,"hunger","recallproc1","recall"
"RL_JOL C",47,1,3,"BlockProc1","Drowsy - Sleep","B",36,100,5795,"StudyProc7","JOL","BlockProc1","Drowsy - ?",36,"tired","recallproc1","recall"
"RL_JOL C",47,1,3,"BlockProc1","Stench - Smell","B",37,100,4740,"StudyProc7","JOL","BlockProc1","Stench - ?",37,"smell","recallproc1","recall"
