"ExperimentName","Subject","Block","list","Procedure.Block.","cue_target","Direction","ListNum","JOL","RT","Procedure.Trial.","Type","Procedure.Block..1","cue_target.1","ListNum.1","Response","Procedure.Trial..1","Type.1"
"IS_JOL A",5,1,3,"BlockProc1","Hornet - Sting","F",6,35,3583,"StudyProc7","JOL","BlockProc1","Hornet - ?",6,"","recallproc1","recall"
"IS_JOL A",5,1,3,"BlockProc1","Bitter - Cold","F",7,80,3612,"StudyProc7","JOL","BlockProc1","Bitter - ?",7,"cold","recallproc1","recall"
"IS_JOL A",5,1,3,"BlockProc1","Root - Plant","F",8,60,4064,"StudyProc7","JOL","BlockProc1","Root - ?",8,"plant","recallproc1","recall"
"IS_JOL A",5,1,3,"BlockProc1","Swan - Bird","F",9,90,2759,"StudyProc7","JOL","BlockProc1","Swan - ?",9,"","recallproc1","recall"
"IS_JOL A",5,1,3,"BlockProc1","Paw - Dog","F",10,95,3957,"StudyProc7","JOL","BlockProc1","Paw - ?",10,"dog","recallproc1","recall"
"IS_JOL A",5,1,3,"BlockProc1","Way - Out","F",11,75,7879,"StudyProc7","JOL","BlockProc1","Way - ?",11,"","recallproc1","recall"
"IS_JOL A",5,1,3,"BlockProc1","Hygiene - Clean","F",12,85,3424,"StudyProc7","JOL","BlockProc1","Hygiene - ?",12,"clean","recallproc1","recall"
"IS_JOL A",5,1,3,"BlockProc1","Bridge - Water","F",13,50,3511,"StudyProc7","JOL","BlockProc1","Bridge - ?",13,"water","recallproc1","recall"
"IS_JOL A",5,1,3,"BlockProc1","Geology - Rock","F",14,90,2933,"StudyProc7","JOL","BlockProc1","Geology - ?",14,"rock","recallproc1","recall"
"IS_JOL A",5,1,3,"BlockProc1","Revolution - War","F",15,80,10025,"StudyProc7","JOL","BlockProc1","Revolution - ?",15,"war","recallproc1","recall"
"IS_JOL A",5,1,3,"BlockProc1","Discussion - Talk","F",16,80,2517,"StudyProc7","JOL","BlockProc1","Discussion - ?",16,"talk","recallproc1","recall"
"IS_JOL A",5,1,3,"BlockProc1","Herd - Cow","F",17,80,2952,"StudyProc7","JOL","BlockProc1","Herd - ?",17,"cow","recallproc1","recall"
"IS_JOL A",5,1,3,"BlockProc1","Credit - Card","F",18,95,3700,"StudyProc7","JOL","BlockProc1","Credit - ?",18,"card","recallproc1","recall"
"IS_JOL A",5,1,3,"BlockProc1","Orchid - Flower","F",19,70,6556,"StudyProc7","JOL","BlockProc1","Orchid - ?",19,"flower","recallproc1","recall"
"IS_JOL A",5,1,3,"BlockProc1","Tuna - Fish","F",20,90,1888,"StudyProc7","JOL","BlockProc1","Tuna - ?",20,"fish","recallproc1","recall"
"IS_JOL A",5,1,3,"BlockProc1","Full - Enough","B",21,100,3219,"StudyProc7","JOL","BlockProc1","Full - ?",21,"enough","recallproc1","recall"
"IS_JOL A",5,1,3,"BlockProc1","Drink - Sip","B",22,75,8043,"StudyProc7","JOL","BlockProc1","Drink - ?",22,"","recallproc1","recall"
"IS_JOL A",5,1,3,"BlockProc1","Dark - Cave","B",23,75,4734,"StudyProc7","JOL","BlockProc1","Dark - ?",23,"","recallproc1","recall"
"IS_JOL A",5,1,3,"BlockProc1","Take - Seize","B",24,65,8959,"StudyProc7","JOL","BlockProc1","Take - ?",24,"","recallproc1","recall"
"IS_JOL A",5,1,3,"BlockProc1","Height - Growth","B",25,75,3362,"StudyProc7","JOL","BlockProc1","Height - ?",25,"","recallproc1","recall"
"IS_JOL A",5,1,3,"BlockProc1","Sentence - Word","B",26,90,11455,"StudyProc7","JOL","BlockProc1","Sentence - ?",26,"word","recallproc1","recall"
"IS_JOL A",5,1,3,"BlockProc1","Bug - Wasp","B",27,85,4342,"StudyProc7","JOL","BlockProc1","Bug - ?",27,"hornet","recallproc1","recall"
"IS_JOL A",5,1,3,"BlockProc1","Math - Division","B",28,95,3542,"StudyProc7","JOL","BlockProc1","Math - ?",28,"divison","recallproc1","recall"
"IS_JOL A",5,1,3,"BlockProc1","Law - Attorney","B",29,100,4586,"StudyProc7","JOL","BlockProc1","Law - ?",29,"attorney","recallproc1","recall"
"IS_JOL A",5,1,3,"BlockProc1","Great - Fantastic","B",30,75,4210,"StudyProc7","JOL","BlockProc1","Great - ?",30,"","recallproc1","recall"
"IS_JOL A",5,1,3,"BlockProc1","Key - Latch","B",31,30,3804,"StudyProc7","JOL","BlockProc1","Key - ?",31,"","recallproc1","recall"
"IS_JOL A",5,1,3,"BlockProc1","Hot - Chili","B",32,80,10952,"StudyProc7","JOL","BlockProc1","Hot - ?",32,"","recallproc1","recall"
"IS_JOL A",5,1,3,"BlockProc1","Ball - Racket","B",33,85,3938,"StudyProc7","JOL","BlockProc1","Ball - ?",33,"","recallproc1","recall"
"IS_JOL A",5,1,3,"BlockProc1","Work - Chore","B",34,70,3930,"StudyProc7","JOL","BlockProc1","Work - ?",34,"","recallproc1","recall"
"IS_JOL A",5,1,3,"BlockProc1","Hunger - Famine","B",35,80,6675,"StudyProc7","JOL","BlockProc1","Hunger - ?",35,"famine","recallproc1","recall"
"IS_JOL A",5,1,3,"BlockProc1","Sleep - Drowsy","B",36,80,8795,"StudyProc7","JOL","BlockProc1","Sleep - ?",36,"dreary","recallproc1","recall"
"IS_JOL A",5,1,3,"BlockProc1","Smell - Stench","B",37,85,10364,"StudyProc7","JOL","BlockProc1","Smell - ?",37,"stench","recallproc1","recall"
"IS_JOL A",5,1,3,"BlockProc1","Clothes - Attire","B",38,90,13339,"StudyProc7","JOL","BlockProc1","Clothes - ?",38,"attire","recallproc1","recall"
"IS_JOL A",5,1,3,"BlockProc1","Plane - Pilot","B",39,100,4101,"StudyProc7","JOL","BlockProc1","Plane - ?",39,"pilot","recallproc1","recall"
"IS_JOL A",5,1,3,"BlockProc1","Fire - Blaze","B",40,100,7221,"StudyProc7","JOL","BlockProc1","Fire - ?",40,"blaze","recallproc1","recall"
"IS_JOL A",5,1,3,"BlockProc1","Due - Assignment","S",41,80,3026,"StudyProc3","JOL","BlockProc1","Due - ?",41,"assignment","recallproc1","recall"
"IS_JOL A",5,1,3,"BlockProc1","Number - Amount","S",42,90,3062,"StudyProc3","JOL","BlockProc1","Number - ?",42,"","recallproc1","recall"
"IS_JOL A",5,1,3,"BlockProc1","Location - Site","S",43,90,2574,"StudyProc3","JOL","BlockProc1","Location - ?",43,"","recallproc1","recall"
"IS_JOL A",5,1,3,"BlockProc1","Dump - Waste","S",44,40,5729,"StudyProc3","JOL","BlockProc1","Dump - ?",44,"","recallproc1","recall"
"IS_JOL A",5,1,3,"BlockProc1","Trial - Jury","S",45,100,6296,"StudyProc3","JOL","BlockProc1","Trial - ?",45,"","recallproc1","recall"
"IS_JOL A",5,1,3,"BlockProc1","Architecture - Design","S",46,15,3418,"StudyProc3","JOL","BlockProc1","Architecture - ?",46,"design","recallproc1","recall"
"IS_JOL A",5,1,3,"BlockProc1","Grill - Bar","S",47,95,5480,"StudyProc3","JOL","BlockProc1","Grill - ?",47,"bar","recallproc1","recall"
"IS_JOL A",5,1,3,"BlockProc1","Kidney - Liver","S",48,90,2563,"StudyProc3","JOL","BlockProc1","Kidney - ?",48,"liver","recallproc1","recall"
"IS_JOL A",5,1,3,"BlockProc1","Begin - End","S",49,100,3324,"StudyProc3","JOL","BlockProc1","Begin - ?",49,"end","recallproc1","recall"
"IS_JOL A",5,1,3,"BlockProc1","Blow - Wind","S",50,70,11100,"StudyProc3","JOL","BlockProc1","Blow - ?",50,"wind","recallproc1","recall"
"IS_JOL A",5,1,3,"BlockProc1","Pop - Soda","S",51,100,3036,"StudyProc3","JOL","BlockProc1","Pop - ?",51,"soda","recallproc1","recall"
"IS_JOL A",5,1,3,"BlockProc1","Wine - Cheese","S",52,100,7012,"StudyProc3","JOL","BlockProc1","Wine - ?",52,"","recallproc1","recall"
"IS_JOL A",5,1,3,"BlockProc1","Bathroom - Toilet","S",53,100,8581,"StudyProc3","JOL","BlockProc1","Bathroom - ?",53,"toilet","recallproc1","recall"
"IS_JOL A",5,1,3,"BlockProc1","Lettuce - Salad","S",54,100,2764,"StudyProc3","JOL","BlockProc1","Lettuce - ?",54,"salad","recallproc1","recall"
"IS_JOL A",5,1,3,"BlockProc1","Shoe - Foot","S",55,100,4034,"StudyProc3","JOL","BlockProc1","Shoe - ?",55,"foot","recallproc1","recall"
"IS_JOL A",5,1,3,"BlockProc1","Past - Future","S",56,100,5150,"StudyProc3","JOL","BlockProc1","Past - ?",56,"future","recallproc1","recall"
"IS_JOL A",5,1,3,"BlockProc1","Choice - Decision","S",57,70,4513,"StudyProc3","JOL","BlockProc1","Choice - ?",57,"decision","recallproc1","recall"
"IS_JOL A",5,1,3,"BlockProc1","Honey - Bee","S",58,100,2975,"StudyProc3","JOL","BlockProc1","Honey - ?",58,"bee","recallproc1","recall"
"IS_JOL A",5,1,3,"BlockProc1","Baby - Child","S",59,100,2443,"StudyProc3","JOL","BlockProc1","Baby - ?",59,"child","recallproc1","recall"
"IS_JOL A",5,1,3,"BlockProc1","Circle - Round","S",60,100,4028,"StudyProc3","JOL","BlockProc1","Circle - ?",60,"round","recallproc1","recall"
"IS_JOL A",5,1,3,"BlockProc1","Pusher - Clutter","U",61,10,4018,"StudyProc3","JOL","BlockProc1","Pusher - ?",61,"","recallproc1","recall"
"IS_JOL A",5,1,3,"BlockProc1","Dietary - Slacking","U",62,10,8262,"StudyProc3","JOL","BlockProc1","Dietary - ?",62,"food","recallproc1","recall"
"IS_JOL A",5,1,3,"BlockProc1","Park - Hungry","U",63,25,6907,"StudyProc3","JOL","BlockProc1","Park - ?",63,"food","recallproc1","recall"
"IS_JOL A",5,1,3,"BlockProc1","Lift - Woman","U",64,20,4339,"StudyProc3","JOL","BlockProc1","Lift - ?",64,"","recallproc1","recall"
"IS_JOL A",5,1,3,"BlockProc1","Soon - Belt","U",65,40,6172,"StudyProc3","JOL","BlockProc1","Soon - ?",65,"","recallproc1","recall"
"IS_JOL A",5,1,3,"BlockProc1","Discover - Floor","U",66,10,8013,"StudyProc3","JOL","BlockProc1","Discover - ?",66,"","recallproc1","recall"
"IS_JOL A",5,1,3,"BlockProc1","Death - Business","U",67,70,4058,"StudyProc3","JOL","BlockProc1","Death - ?",67,"business","recallproc1","recall"
"IS_JOL A",5,1,3,"BlockProc1","Debate - Sight","U",68,15,4790,"StudyProc3","JOL","BlockProc1","Debate - ?",68,"","recallproc1","recall"
"IS_JOL A",5,1,3,"BlockProc1","Artery - Bronze","U",69,30,7405,"StudyProc3","JOL","BlockProc1","Artery - ?",69,"bronze","recallproc1","recall"
"IS_JOL A",5,1,3,"BlockProc1","Fix - Hand","U",70,80,4255,"StudyProc3","JOL","BlockProc1","Fix - ?",70,"","recallproc1","recall"
"IS_JOL A",5,1,3,"BlockProc1","Machine - Position","U",71,55,5829,"StudyProc3","JOL","BlockProc1","Machine - ?",71,"","recallproc1","recall"
"IS_JOL A",5,1,3,"BlockProc1","Happy - Car","U",72,60,6971,"StudyProc3","JOL","BlockProc1","Happy - ?",72,"car","recallproc1","recall"
"IS_JOL A",5,1,3,"BlockProc1","Allow - Tuck","U",73,35,4108,"StudyProc3","JOL","BlockProc1","Allow - ?",73,"let","recallproc1","recall"
"IS_JOL A",5,1,3,"BlockProc1","Art - Lion","U",74,20,3583,"StudyProc3","JOL","BlockProc1","Art - ?",74,"","recallproc1","recall"
"IS_JOL A",5,1,3,"BlockProc1","Strong - Accident","U",75,35,5735,"StudyProc3","JOL","BlockProc1","Strong - ?",75,"","recallproc1","recall"
"IS_JOL A",5,1,3,"BlockProc1","Sugar - Riddle","U",76,40,3669,"StudyProc3","JOL","BlockProc1","Sugar - ?",76,"","recallproc1","recall"
"IS_JOL A",5,1,3,"BlockProc1","Valley - Add","U",77,0,2980,"StudyProc3","JOL","BlockProc1","Valley - ?",77,"","recallproc1","recall"
"IS_JOL A",5,1,3,"BlockProc1","Cash - Would","U",78,10,3324,"StudyProc3","JOL","BlockProc1","Cash - ?",78,"","recallproc1","recall"
"IS_JOL A",5,1,3,"BlockProc1","Hide - Sick","U",79,20,4041,"StudyProc3","JOL","BlockProc1","Hide - ?",79,"","recallproc1","recall"
"IS_JOL A",5,1,3,"BlockProc1","King - Vase","U",80,30,3697,"StudyProc3","JOL","BlockProc1","King - ?",80,"vase","recallproc1","recall"
"RL_JOL A",9,1,3,"BlockProc1","Hornet - Sting","F",6,65,6655,"StudyProc7","JOL","BlockProc1","Hornet - ?",6,"sting","recallproc1","recall"
"RL_JOL A",9,1,3,"BlockProc1","Bitter - Cold","F",7,95,3520,"StudyProc7","JOL","BlockProc1","Bitter - ?",7,"sour","recallproc1","recall"
"RL_JOL A",9,1,3,"BlockProc1","Root - Plant","F",8,60,3354,"StudyProc7","JOL","BlockProc1","Root - ?",8,"tree","recallproc1","recall"
"RL_JOL A",9,1,3,"BlockProc1","Swan - Bird","F",9,80,1548,"StudyProc7","JOL","BlockProc1","Swan - ?",9,"dove","recallproc1","recall"
"RL_JOL A",9,1,3,"BlockProc1","Paw - Dog","F",10,100,4089,"StudyProc7","JOL","BlockProc1","Paw - ?",10,"dog","recallproc1","recall"
"RL_JOL A",9,1,3,"BlockProc1","Way - Out","F",11,65,2716,"StudyProc7","JOL","BlockProc1","Way - ?",11,"out","recallproc1","recall"
"RL_JOL A",9,1,3,"BlockProc1","Hygiene - Clean","F",12,100,2056,"StudyProc7","JOL","BlockProc1","Hygiene - ?",12,"clean","recallproc1","recall"
"RL_JOL A",9,1,3,"BlockProc1","Bridge - Water","F",13,50,2548,"StudyProc7","JOL","BlockProc1","Bridge - ?",13,"water","recallproc1","recall"
"RL_JOL A",9,1,3,"BlockProc1","Geology - Rock","F",14,50,3172,"StudyProc7","JOL","BlockProc1","Geology - ?",14,"rock","recallproc1","recall"
"RL_JOL A",9,1,3,"BlockProc1","Revolution - War","F",15,95,3212,"StudyProc7","JOL","BlockProc1","Revolution - ?",15,"war","recallproc1","recall"
"RL_JOL A",9,1,3,"BlockProc1","Discussion - Talk","F",16,90,3240,"StudyProc7","JOL","BlockProc1","Discussion - ?",16,"question","recallproc1","recall"
"RL_JOL A",9,1,3,"BlockProc1","Herd - Cow","F",17,90,1603,"StudyProc7","JOL","BlockProc1","Herd - ?",17,"cow","recallproc1","recall"
"RL_JOL A",9,1,3,"BlockProc1","Credit - Card","F",18,100,3392,"StudyProc7","JOL","BlockProc1","Credit - ?",18,"card","recallproc1","recall"
"RL_JOL A",9,1,3,"BlockProc1","Orchid - Flower","F",19,75,3275,"StudyProc7","JOL","BlockProc1","Orchid - ?",19,"flower","recallproc1","recall"
"RL_JOL A",9,1,3,"BlockProc1","Tuna - Fish","F",20,100,2454,"StudyProc7","JOL","BlockProc1","Tuna - ?",20,"fish","recallproc1","recall"
"RL_JOL A",9,1,3,"BlockProc1","Full - Enough","B",21,80,3071,"StudyProc7","JOL","BlockProc1","Full - ?",21,"","recallproc1","recall"
"RL_JOL A",9,1,3,"BlockProc1","Drink - Sip","B",22,100,2725,"StudyProc7","JOL","BlockProc1","Drink - ?",22,"eat","recallproc1","recall"
"RL_JOL A",9,1,3,"BlockProc1","Dark - Cave","B",23,100,2108,"StudyProc7","JOL","BlockProc1","Dark - ?",23,"light","recallproc1","recall"
"RL_JOL A",9,1,3,"BlockProc1","Take - Seize","B",24,70,4443,"StudyProc7","JOL","BlockProc1","Take - ?",24,"off","recallproc1","recall"
"RL_JOL A",9,1,3,"BlockProc1","Height - Growth","B",25,100,2432,"StudyProc7","JOL","BlockProc1","Height - ?",25,"weight","recallproc1","recall"
"RL_JOL A",9,1,3,"BlockProc1","Sentence - Word","B",26,95,2898,"StudyProc7","JOL","BlockProc1","Sentence - ?",26,"end","recallproc1","recall"
"RL_JOL A",9,1,3,"BlockProc1","Bug - Wasp","B",27,90,4588,"StudyProc7","JOL","BlockProc1","Bug - ?",27,"wasp","recallproc1","recall"
"RL_JOL A",9,1,3,"BlockProc1","Math - Division","B",28,100,3539,"StudyProc7","JOL","BlockProc1","Math - ?",28,"division","recallproc1","recall"
"RL_JOL A",9,1,3,"BlockProc1","Law - Attorney","B",29,80,2452,"StudyProc7","JOL","BlockProc1","Law - ?",29,"effect","recallproc1","recall"
"RL_JOL A",9,1,3,"BlockProc1","Great - Fantastic","B",30,90,2144,"StudyProc7","JOL","BlockProc1","Great - ?",30,"bad","recallproc1","recall"
"RL_JOL A",9,1,3,"BlockProc1","Key - Latch","B",31,60,6334,"StudyProc7","JOL","BlockProc1","Key - ?",31,"match","recallproc1","recall"
"RL_JOL A",9,1,3,"BlockProc1","Hot - Chili","B",32,100,2367,"StudyProc7","JOL","BlockProc1","Hot - ?",32,"chili","recallproc1","recall"
"RL_JOL A",9,1,3,"BlockProc1","Ball - Racket","B",33,60,4395,"StudyProc7","JOL","BlockProc1","Ball - ?",33,"sport","recallproc1","recall"
"RL_JOL A",9,1,3,"BlockProc1","Work - Chore","B",34,78,3583,"StudyProc7","JOL","BlockProc1","Work - ?",34,"job","recallproc1","recall"
"RL_JOL A",9,1,3,"BlockProc1","Hunger - Famine","B",35,80,3273,"StudyProc7","JOL","BlockProc1","Hunger - ?",35,"famine","recallproc1","recall"
"RL_JOL A",9,1,3,"BlockProc1","Sleep - Drowsy","B",36,70,2720,"StudyProc7","JOL","BlockProc1","Sleep - ?",36,"deprived","recallproc1","recall"
"RL_JOL A",9,1,3,"BlockProc1","Smell - Stench","B",37,90,2652,"StudyProc7","JOL","BlockProc1","Smell - ?",37,"stinch","recallproc1","recall"
"RL_JOL A",9,1,3,"BlockProc1","Clothes - Attire","B",38,90,1907,"StudyProc7","JOL","BlockProc1","Clothes - ?",38,"fashion","recallproc1","recall"
"RL_JOL A",9,1,3,"BlockProc1","Plane - Pilot","B",39,95,2744,"StudyProc7","JOL","BlockProc1","Plane - ?",39,"","recallproc1","recall"
"RL_JOL A",9,1,3,"BlockProc1","Fire - Blaze","B",40,90,4931,"StudyProc7","JOL","BlockProc1","Fire - ?",40,"","recallproc1","recall"
"RL_JOL A",9,1,3,"BlockProc1","Due - Assignment","S",41,95,3329,"StudyProc3","JOL","BlockProc1","Due - ?",41,"assignment","recallproc1","recall"
"RL_JOL A",9,1,3,"BlockProc1","Number - Amount","S",42,65,2448,"StudyProc3","JOL","BlockProc1","Number - ?",42,"","recallproc1","recall"
"RL_JOL A",9,1,3,"BlockProc1","Location - Site","S",43,20,4346,"StudyProc3","JOL","BlockProc1","Location - ?",43,"park","recallproc1","recall"
"RL_JOL A",9,1,3,"BlockProc1","Dump - Waste","S",44,75,2519,"StudyProc3","JOL","BlockProc1","Dump - ?",44,"waste","recallproc1","recall"
"RL_JOL A",9,1,3,"BlockProc1","Trial - Jury","S",45,70,3482,"StudyProc3","JOL","BlockProc1","Trial - ?",45,"error","recallproc1","recall"
"RL_JOL A",9,1,3,"BlockProc1","Architecture - Design","S",46,40,2603,"StudyProc3","JOL","BlockProc1","Architecture - ?",46,"build","recallproc1","recall"
"RL_JOL A",9,1,3,"BlockProc1","Grill - Bar","S",47,67,2329,"StudyProc3","JOL","BlockProc1","Grill - ?",47,"out","recallproc1","recall"
"RL_JOL A",9,1,3,"BlockProc1","Kidney - Liver","S",48,70,3102,"StudyProc3","JOL","BlockProc1","Kidney - ?",48,"liver","recallproc1","recall"
"RL_JOL A",9,1,3,"BlockProc1","Begin - End","S",49,100,2839,"StudyProc3","JOL","BlockProc1","Begin - ?",49,"end","recallproc1","recall"
"RL_JOL A",9,1,3,"BlockProc1","Blow - Wind","S",50,65,2987,"StudyProc3","JOL","BlockProc1","Blow - ?",50,"","recallproc1","recall"
"RL_JOL A",9,1,3,"BlockProc1","Pop - Soda","S",51,100,2263,"StudyProc3","JOL","BlockProc1","Pop - ?",51,"soda","recallproc1","recall"
"RL_JOL A",9,1,3,"BlockProc1","Wine - Cheese","S",52,70,8525,"StudyProc3","JOL","BlockProc1","Wine - ?",52,"alcohol","recallproc1","recall"
"RL_JOL A",9,1,3,"BlockProc1","Bathroom - Toilet","S",53,100,2740,"StudyProc3","JOL","BlockProc1","Bathroom - ?",53,"toilet","recallproc1","recall"
"RL_JOL A",9,1,3,"BlockProc1","Lettuce - Salad","S",54,95,4315,"StudyProc3","JOL","BlockProc1","Lettuce - ?",54,"salad","recallproc1","recall"
"RL_JOL A",9,1,3,"BlockProc1","Shoe - Foot","S",55,75,3570,"StudyProc3","JOL","BlockProc1","Shoe - ?",55,"lift","recallproc1","recall"
"RL_JOL A",9,1,3,"BlockProc1","Past - Future","S",56,100,2542,"StudyProc3","JOL","BlockProc1","Past - ?",56,"future","recallproc1","recall"
"RL_JOL A",9,1,3,"BlockProc1","Choice - Decision","S",57,40,3171,"StudyProc3","JOL","BlockProc1","Choice - ?",57,"","recallproc1","recall"
"RL_JOL A",9,1,3,"BlockProc1","Honey - Bee","S",58,100,3405,"StudyProc3","JOL","BlockProc1","Honey - ?",58,"bee","recallproc1","recall"
"RL_JOL A",9,1,3,"BlockProc1","Baby - Child","S",59,100,2082,"StudyProc3","JOL","BlockProc1","Baby - ?",59,"child","recallproc1","recall"
"RL_JOL A",9,1,3,"BlockProc1","Circle - Round","S",60,90,2898,"StudyProc3","JOL","BlockProc1","Circle - ?",60,"round","recallproc1","recall"
"RL_JOL A",9,1,3,"BlockProc1","Pusher - Clutter","U",61,0,2263,"StudyProc3","JOL","BlockProc1","Pusher - ?",61,"pushed","recallproc1","recall"
"RL_JOL A",9,1,3,"BlockProc1","Dietary - Slacking","U",62,76,3911,"StudyProc3","JOL","BlockProc1","Dietary - ?",62,"hungry","recallproc1","recall"
"RL_JOL A",9,1,3,"BlockProc1","Park - Hungry","U",63,20,3376,"StudyProc3","JOL","BlockProc1","Park - ?",63,"bench","recallproc1","recall"
"RL_JOL A",9,1,3,"BlockProc1","Lift - Woman","U",64,25,4370,"StudyProc3","JOL","BlockProc1","Lift - ?",64,"up","recallproc1","recall"
"RL_JOL A",9,1,3,"BlockProc1","Soon - Belt","U",65,0,2456,"StudyProc3","JOL","BlockProc1","Soon - ?",65,"later","recallproc1","recall"
"RL_JOL A",9,1,3,"BlockProc1","Discover - Floor","U",66,0,1769,"StudyProc3","JOL","BlockProc1","Discover - ?",66,"identity","recallproc1","recall"
"RL_JOL A",9,1,3,"BlockProc1","Death - Business","U",67,20,3923,"StudyProc3","JOL","BlockProc1","Death - ?",67,"toll","recallproc1","recall"
"RL_JOL A",9,1,3,"BlockProc1","Debate - Sight","U",68,0,1295,"StudyProc3","JOL","BlockProc1","Debate - ?",68,"argue","recallproc1","recall"
"RL_JOL A",9,1,3,"BlockProc1","Artery - Bronze","U",69,0,2178,"StudyProc3","JOL","BlockProc1","Artery - ?",69,"vein","recallproc1","recall"
"RL_JOL A",9,1,3,"BlockProc1","Fix - Hand","U",70,0,4032,"StudyProc3","JOL","BlockProc1","Fix - ?",70,"","recallproc1","recall"
"RL_JOL A",9,1,3,"BlockProc1","Machine - Position","U",71,15,4133,"StudyProc3","JOL","BlockProc1","Machine - ?",71,"error","recallproc1","recall"
"RL_JOL A",9,1,3,"BlockProc1","Happy - Car","U",72,0,1814,"StudyProc3","JOL","BlockProc1","Happy - ?",72,"sad","recallproc1","recall"
"RL_JOL A",9,1,3,"BlockProc1","Allow - Tuck","U",73,0,2175,"StudyProc3","JOL","BlockProc1","Allow - ?",73,"let","recallproc1","recall"
"RL_JOL A",9,1,3,"BlockProc1","Art - Lion","U",74,0,1841,"StudyProc3","JOL","BlockProc1","Art - ?",74,"paint","recallproc1","recall"
"RL_JOL A",9,1,3,"BlockProc1","Strong - Accident","U",75,0,3862,"StudyProc3","JOL","BlockProc1","Strong - ?",75,"weak","recallproc1","recall"
"RL_JOL A",9,1,3,"BlockProc1","Sugar - Riddle","U",76,0,1572,"StudyProc3","JOL","BlockProc1","Sugar - ?",76,"sweet","recallproc1","recall"
"RL_JOL A",9,1,3,"BlockProc1","Valley - Add","U",77,0,1847,"StudyProc3","JOL","BlockProc1","Valley - ?",77,"hill","recallproc1","recall"
"RL_JOL A",9,1,3,"BlockProc1","Cash - Would","U",78,0,2284,"StudyProc3","JOL","BlockProc1","Cash - ?",78,"card","recallproc1","recall"
"RL_JOL A",9,1,3,"BlockProc1","Hide - Sick","U",79,0,2141,"StudyProc3","JOL","BlockProc1","Hide - ?",79,"find","recallproc1","recall"
"RL_JOL A",9,1,3,"BlockProc1","King - Vase","U",80,0,4852,"StudyProc3","JOL","BlockProc1","King - ?",80,"queen","recallproc1","recall"
"READ_JOL A",13,1,3,"BlockProc1","Hornet - Sting","F",6,100,5821,"StudyProc7","JOL","BlockProc1","Hornet - ?",6,"sting","recallproc1","recall"
"READ_JOL A",13,1,3,"BlockProc1","Bitter - Cold","F",7,30,6872,"StudyProc7","JOL","BlockProc1","Bitter - ?",7,"cold","recallproc1","recall"
"READ_JOL A",13,1,3,"BlockProc1","Root - Plant","F",8,100,6690,"StudyProc7","JOL","BlockProc1","Root - ?",8,"plant","recallproc1","recall"
"READ_JOL A",13,1,3,"BlockProc1","Swan - Bird","F",9,100,3673,"StudyProc7","JOL","BlockProc1","Swan - ?",9,"bird","recallproc1","recall"
"READ_JOL A",13,1,3,"BlockProc1","Paw - Dog","F",10,100,3201,"StudyProc7","JOL","BlockProc1","Paw - ?",10,"dog","recallproc1","recall"
"READ_JOL A",13,1,3,"BlockProc1","Way - Out","F",11,100,2923,"StudyProc7","JOL","BlockProc1","Way - ?",11,"out","recallproc1","recall"
"READ_JOL A",13,1,3,"BlockProc1","Hygiene - Clean","F",12,100,2688,"StudyProc7","JOL","BlockProc1","Hygiene - ?",12,"clean","recallproc1","recall"
"READ_JOL A",13,1,3,"BlockProc1","Bridge - Water","F",13,80,7840,"StudyProc7","JOL","BlockProc1","Bridge - ?",13,"water","recallproc1","recall"
"READ_JOL A",13,1,3,"BlockProc1","Geology - Rock","F",14,90,9187,"StudyProc7","JOL","BlockProc1","Geology - ?",14,"rock","recallproc1","recall"
"READ_JOL A",13,1,3,"BlockProc1","Revolution - War","F",15,100,7950,"StudyProc7","JOL","BlockProc1","Revolution - ?",15,"war","recallproc1","recall"
"READ_JOL A",13,1,3,"BlockProc1","Discussion - Talk","F",16,95,5014,"StudyProc7","JOL","BlockProc1","Discussion - ?",16,"talk","recallproc1","recall"
"READ_JOL A",13,1,3,"BlockProc1","Herd - Cow","F",17,96,7170,"StudyProc7","JOL","BlockProc1","Herd - ?",17,"cow","recallproc1","recall"
"READ_JOL A",13,1,3,"BlockProc1","Credit - Card","F",18,100,2415,"StudyProc7","JOL","BlockProc1","Credit - ?",18,"card","recallproc1","recall"
"READ_JOL A",13,1,3,"BlockProc1","Orchid - Flower","F",19,100,4332,"StudyProc7","JOL","BlockProc1","Orchid - ?",19,"flower","recallproc1","recall"
"READ_JOL A",13,1,3,"BlockProc1","Tuna - Fish","F",20,100,2872,"StudyProc7","JOL","BlockProc1","Tuna - ?",20,"fish","recallproc1","recall"
"READ_JOL A",13,1,3,"BlockProc1","Full - Enough","B",21,100,5315,"StudyProc7","JOL","BlockProc1","Full - ?",21,"enough","recallproc1","recall"
"READ_JOL A",13,1,3,"BlockProc1","Drink - Sip","B",22,100,4756,"StudyProc7","JOL","BlockProc1","Drink - ?",22,"pop","recallproc1","recall"
"READ_JOL A",13,1,3,"BlockProc1","Dark - Cave","B",23,60,9230,"StudyProc7","JOL","BlockProc1","Dark - ?",23,"cave","recallproc1","recall"
"READ_JOL A",13,1,3,"BlockProc1","Take - Seize","B",24,100,3529,"StudyProc7","JOL","BlockProc1","Take - ?",24,"out","recallproc1","recall"
"READ_JOL A",13,1,3,"BlockProc1","Height - Growth","B",25,96,9426,"StudyProc7","JOL","BlockProc1","Height - ?",25,"growth","recallproc1","recall"
"READ_JOL A",13,1,3,"BlockProc1","Sentence - Word","B",26,98,6292,"StudyProc7","JOL","BlockProc1","Sentence - ?",26,"trial","recallproc1","recall"
"READ_JOL A",13,1,3,"BlockProc1","Bug - Wasp","B",27,75,14858,"StudyProc7","JOL","BlockProc1","Bug - ?",27,"wasp","recallproc1","recall"
"READ_JOL A",13,1,3,"BlockProc1","Math - Division","B",28,100,3728,"StudyProc7","JOL","BlockProc1","Math - ?",28,"deparent","recallproc1","recall"
"READ_JOL A",13,1,3,"BlockProc1","Law - Attorney","B",29,100,6151,"StudyProc7","JOL","BlockProc1","Law - ?",29,"attorney","recallproc1","recall"
"READ_JOL A",13,1,3,"BlockProc1","Great - Fantastic","B",30,100,3758,"StudyProc7","JOL","BlockProc1","Great - ?",30,"good","recallproc1","recall"
"READ_JOL A",13,1,3,"BlockProc1","Key - Latch","B",31,100,3963,"StudyProc7","JOL","BlockProc1","Key - ?",31,"holder","recallproc1","recall"
"READ_JOL A",13,1,3,"BlockProc1","Hot - Chili","B",32,100,6109,"StudyProc7","JOL","BlockProc1","Hot - ?",32,"summer","recallproc1","recall"
"READ_JOL A",13,1,3,"BlockProc1","Ball - Racket","B",33,80,12242,"StudyProc7","JOL","BlockProc1","Ball - ?",33,"racket","recallproc1","recall"
"READ_JOL A",13,1,3,"BlockProc1","Work - Chore","B",34,100,4610,"StudyProc7","JOL","BlockProc1","Work - ?",34,"chore","recallproc1","recall"
"READ_JOL A",13,1,3,"BlockProc1","Hunger - Famine","B",35,100,3734,"StudyProc7","JOL","BlockProc1","Hunger - ?",35,"park","recallproc1","recall"
"READ_JOL A",13,1,3,"BlockProc1","Sleep - Drowsy","B",36,100,3041,"StudyProc7","JOL","BlockProc1","Sleep - ?",36,"tired","recallproc1","recall"
"READ_JOL A",13,1,3,"BlockProc1","Smell - Stench","B",37,100,3485,"StudyProc7","JOL","BlockProc1","Smell - ?",37,"stench","recallproc1","recall"
"READ_JOL A",13,1,3,"BlockProc1","Clothes - Attire","B",38,100,2723,"StudyProc7","JOL","BlockProc1","Clothes - ?",38,"shirt","recallproc1","recall"
"READ_JOL A",13,1,3,"BlockProc1","Plane - Pilot","B",39,100,7548,"StudyProc7","JOL","BlockProc1","Plane - ?",39,"pilot","recallproc1","recall"
"READ_JOL A",13,1,3,"BlockProc1","Fire - Blaze","B",40,95,6191,"StudyProc7","JOL","BlockProc1","Fire - ?",40,"blaze","recallproc1","recall"
"READ_JOL A",13,1,3,"BlockProc1","Due - Assignment","S",41,100,2997,"StudyProc3","JOL","BlockProc1","Due - ?",41,"assignment","recallproc1","recall"
"READ_JOL A",13,1,3,"BlockProc1","Number - Amount","S",42,100,3223,"StudyProc3","JOL","BlockProc1","Number - ?",42,"amount","recallproc1","recall"
"READ_JOL A",13,1,3,"BlockProc1","Location - Site","S",43,100,3463,"StudyProc3","JOL","BlockProc1","Location - ?",43,"place","recallproc1","recall"
"READ_JOL A",13,1,3,"BlockProc1","Dump - Waste","S",44,100,3364,"StudyProc3","JOL","BlockProc1","Dump - ?",44,"truck","recallproc1","recall"
"READ_JOL A",13,1,3,"BlockProc1","Trial - Jury","S",45,100,2879,"StudyProc3","JOL","BlockProc1","Trial - ?",45,"end","recallproc1","recall"
"READ_JOL A",13,1,3,"BlockProc1","Architecture - Design","S",46,98,5790,"StudyProc3","JOL","BlockProc1","Architecture - ?",46,"design","recallproc1","recall"
"READ_JOL A",13,1,3,"BlockProc1","Grill - Bar","S",47,100,3690,"StudyProc3","JOL","BlockProc1","Grill - ?",47,"bar","recallproc1","recall"
"READ_JOL A",13,1,3,"BlockProc1","Kidney - Liver","S",48,90,5511,"StudyProc3","JOL","BlockProc1","Kidney - ?",48,"liver","recallproc1","recall"
"READ_JOL A",13,1,3,"BlockProc1","Begin - End","S",49,78,8497,"StudyProc3","JOL","BlockProc1","Begin - ?",49,"end","recallproc1","recall"
"READ_JOL A",13,1,3,"BlockProc1","Blow - Wind","S",50,100,6320,"StudyProc3","JOL","BlockProc1","Blow - ?",50,"wind","recallproc1","recall"
"READ_JOL A",13,1,3,"BlockProc1","Pop - Soda","S",51,100,2694,"StudyProc3","JOL","BlockProc1","Pop - ?",51,"soda","recallproc1","recall"
"READ_JOL A",13,1,3,"BlockProc1","Wine - Cheese","S",52,100,2615,"StudyProc3","JOL","BlockProc1","Wine - ?",52,"cheese","recallproc1","recall"
"READ_JOL A",13,1,3,"BlockProc1","Bathroom - Toilet","S",53,100,2545,"StudyProc3","JOL","BlockProc1","Bathroom - ?",53,"toilet","recallproc1","recall"
"READ_JOL A",13,1,3,"BlockProc1","Lettuce - Salad","S",54,100,2455,"StudyProc3","JOL","BlockProc1","Lettuce - ?",54,"salad","recallproc1","recall"
"READ_JOL A",13,1,3,"BlockProc1","Shoe - Foot","S",55,90,4236,"StudyProc3","JOL","BlockProc1","Shoe - ?",55,"foot","recallproc1","recall"
"READ_JOL A",13,1,3,"BlockProc1","Past - Future","S",56,100,2506,"StudyProc3","JOL","BlockProc1","Past - ?",56,"end","recallproc1","recall"
"READ_JOL A",13,1,3,"BlockProc1","Choice - Decision","S",57,100,2918,"StudyProc3","JOL","BlockProc1","Choice - ?",57,"decide","recallproc1","recall"
"READ_JOL A",13,1,3,"BlockProc1","Honey - Bee","S",58,100,2857,"StudyProc3","JOL","BlockProc1","Honey - ?",58,"bee","recallproc1","recall"
"READ_JOL A",13,1,3,"BlockProc1","Baby - Child","S",59,100,3071,"StudyProc3","JOL","BlockProc1","Baby - ?",59,"child","recallproc1","recall"
"READ_JOL A",13,1,3,"BlockProc1","Circle - Round","S",60,100,6473,"StudyProc3","JOL","BlockProc1","Circle - ?",60,"round","recallproc1","recall"
"READ_JOL A",13,1,3,"BlockProc1","Pusher - Clutter","U",61,0,7110,"StudyProc3","JOL","BlockProc1","Pusher - ?",61,"clutter","recallproc1","recall"
"READ_JOL A",13,1,3,"BlockProc1","Dietary - Slacking","U",62,15,12339,"StudyProc3","JOL","BlockProc1","Dietary - ?",62,"sugar","recallproc1","recall"
"READ_JOL A",13,1,3,"BlockProc1","Park - Hungry","U",63,0,4352,"StudyProc3","JOL","BlockProc1","Park - ?",63,"hungry","recallproc1","recall"
"READ_JOL A",13,1,3,"BlockProc1","Lift - Woman","U",64,0,4044,"StudyProc3","JOL","BlockProc1","Lift - ?",64,"weight","recallproc1","recall"
"READ_JOL A",13,1,3,"BlockProc1","Soon - Belt","U",65,0,5722,"StudyProc3","JOL","BlockProc1","Soon - ?",65,"later","recallproc1","recall"
"READ_JOL A",13,1,3,"BlockProc1","Discover - Floor","U",66,20,5768,"StudyProc3","JOL","BlockProc1","Discover - ?",66,"find","recallproc1","recall"
"READ_JOL A",13,1,3,"BlockProc1","Death - Business","U",67,0,3936,"StudyProc3","JOL","BlockProc1","Death - ?",67,"hear","recallproc1","recall"
"READ_JOL A",13,1,3,"BlockProc1","Debate - Sight","U",68,30,9435,"StudyProc3","JOL","BlockProc1","Debate - ?",68,"talk","recallproc1","recall"
"READ_JOL A",13,1,3,"BlockProc1","Artery - Bronze","U",69,10,5987,"StudyProc3","JOL","BlockProc1","Artery - ?",69,"liver","recallproc1","recall"
"READ_JOL A",13,1,3,"BlockProc1","Fix - Hand","U",70,75,9912,"StudyProc3","JOL","BlockProc1","Fix - ?",70,"hand","recallproc1","recall"
"READ_JOL A",13,1,3,"BlockProc1","Machine - Position","U",71,30,16560,"StudyProc3","JOL","BlockProc1","Machine - ?",71,"lift","recallproc1","recall"
"READ_JOL A",13,1,3,"BlockProc1","Happy - Car","U",72,15,11650,"StudyProc3","JOL","BlockProc1","Happy - ?",72,"end","recallproc1","recall"
"READ_JOL A",13,1,3,"BlockProc1","Allow - Tuck","U",73,0,4621,"StudyProc3","JOL","BlockProc1","Allow - ?",73,"let","recallproc1","recall"
"READ_JOL A",13,1,3,"BlockProc1","Art - Lion","U",74,40,7240,"StudyProc3","JOL","BlockProc1","Art - ?",74,"lion","recallproc1","recall"
"READ_JOL A",13,1,3,"BlockProc1","Strong - Accident","U",75,0,7488,"StudyProc3","JOL","BlockProc1","Strong - ?",75,"lift","recallproc1","recall"
"READ_JOL A",13,1,3,"BlockProc1","Sugar - Riddle","U",76,10,4490,"StudyProc3","JOL","BlockProc1","Sugar - ?",76,"sweet","recallproc1","recall"
"READ_JOL A",13,1,3,"BlockProc1","Valley - Add","U",77,10,6197,"StudyProc3","JOL","BlockProc1","Valley - ?",77,"hide","recallproc1","recall"
"READ_JOL A",13,1,3,"BlockProc1","Cash - Would","U",78,10,12233,"StudyProc3","JOL","BlockProc1","Cash - ?",78,"amount","recallproc1","recall"
"READ_JOL A",13,1,3,"BlockProc1","Hide - Sick","U",79,15,10162,"StudyProc3","JOL","BlockProc1","Hide - ?",79,"out","recallproc1","recall"
"READ_JOL A",13,1,3,"BlockProc1","King - Vase","U",80,0,8234,"StudyProc3","JOL","BlockProc1","King - ?",80,"vase","recallproc1","recall"
"IS_JOL A",17,1,3,"BlockProc1","Hornet - Sting","F",6,75,9596,"StudyProc7","JOL","BlockProc1","Hornet - ?",6,"wasp","recallproc1","recall"
"IS_JOL A",17,1,3,"BlockProc1","Bitter - Cold","F",7,40,24982,"StudyProc7","JOL","BlockProc1","Bitter - ?",7,"good","recallproc1","recall"
"IS_JOL A",17,1,3,"BlockProc1","Root - Plant","F",8,75,20615,"StudyProc7","JOL","BlockProc1","Root - ?",8,"plant","recallproc1","recall"
"IS_JOL A",17,1,3,"BlockProc1","Swan - Bird","F",9,80,5855,"StudyProc7","JOL","BlockProc1","Swan - ?",9,"bird","recallproc1","recall"
"IS_JOL A",17,1,3,"BlockProc1","Paw - Dog","F",10,80,22491,"StudyProc7","JOL","BlockProc1","Paw - ?",10,"dog","recallproc1","recall"
"IS_JOL A",17,1,3,"BlockProc1","Way - Out","F",11,50,7878,"StudyProc7","JOL","BlockProc1","Way - ?",11,"out","recallproc1","recall"
"IS_JOL A",17,1,3,"BlockProc1","Hygiene - Clean","F",12,85,7440,"StudyProc7","JOL","BlockProc1","Hygiene - ?",12,"clean","recallproc1","recall"
"IS_JOL A",17,1,3,"BlockProc1","Bridge - Water","F",13,90,11166,"StudyProc7","JOL","BlockProc1","Bridge - ?",13,"wat","recallproc1","recall"
"IS_JOL A",17,1,3,"BlockProc1","Geology - Rock","F",14,15,21323,"StudyProc7","JOL","BlockProc1","Geology - ?",14,"rock","recallproc1","recall"
"IS_JOL A",17,1,3,"BlockProc1","Revolution - War","F",15,70,28183,"StudyProc7","JOL","BlockProc1","Revolution - ?",15,"war","recallproc1","recall"
"IS_JOL A",17,1,3,"BlockProc1","Discussion - Talk","F",16,80,7305,"StudyProc7","JOL","BlockProc1","Discussion - ?",16,"talk","recallproc1","recall"
"IS_JOL A",17,1,3,"BlockProc1","Herd - Cow","F",17,70,23277,"StudyProc7","JOL","BlockProc1","Herd - ?",17,"cow","recallproc1","recall"
"IS_JOL A",17,1,3,"BlockProc1","Credit - Card","F",18,80,11021,"StudyProc7","JOL","BlockProc1","Credit - ?",18,"card","recallproc1","recall"
"IS_JOL A",17,1,3,"BlockProc1","Orchid - Flower","F",19,90,20787,"StudyProc7","JOL","BlockProc1","Orchid - ?",19,"flowe","recallproc1","recall"
"IS_JOL A",17,1,3,"BlockProc1","Tuna - Fish","F",20,70,9394,"StudyProc7","JOL","BlockProc1","Tuna - ?",20,"fish","recallproc1","recall"
"IS_JOL A",17,1,3,"BlockProc1","Full - Enough","B",21,76,24719,"StudyProc7","JOL","BlockProc1","Full - ?",21,"enough","recallproc1","recall"
"IS_JOL A",17,1,3,"BlockProc1","Drink - Sip","B",22,90,21270,"StudyProc7","JOL","BlockProc1","Drink - ?",22,"sip","recallproc1","recall"
"IS_JOL A",17,1,3,"BlockProc1","Dark - Cave","B",23,50,15890,"StudyProc7","JOL","BlockProc1","Dark - ?",23,"cave","recallproc1","recall"
"IS_JOL A",17,1,3,"BlockProc1","Take - Seize","B",24,85,9005,"StudyProc7","JOL","BlockProc1","Take - ?",24,"grab","recallproc1","recall"
"IS_JOL A",17,1,3,"BlockProc1","Height - Growth","B",25,100,8844,"StudyProc7","JOL","BlockProc1","Height - ?",25,"growth","recallproc1","recall"
"IS_JOL A",17,1,3,"BlockProc1","Sentence - Word","B",26,80,24556,"StudyProc7","JOL","BlockProc1","Sentence - ?",26,"word","recallproc1","recall"
"IS_JOL A",17,1,3,"BlockProc1","Bug - Wasp","B",27,90,6715,"StudyProc7","JOL","BlockProc1","Bug - ?",27,"idk","recallproc1","recall"
"IS_JOL A",17,1,3,"BlockProc1","Math - Division","B",28,90,10423,"StudyProc7","JOL","BlockProc1","Math - ?",28,"division","recallproc1","recall"
"IS_JOL A",17,1,3,"BlockProc1","Law - Attorney","B",29,90,3418,"StudyProc7","JOL","BlockProc1","Law - ?",29,"attorney","recallproc1","recall"
"IS_JOL A",17,1,3,"BlockProc1","Great - Fantastic","B",30,60,6627,"StudyProc7","JOL","BlockProc1","Great - ?",30,"nic","recallproc1","recall"
"IS_JOL A",17,1,3,"BlockProc1","Key - Latch","B",31,56,7003,"StudyProc7","JOL","BlockProc1","Key - ?",31,"latch","recallproc1","recall"
"IS_JOL A",17,1,3,"BlockProc1","Hot - Chili","B",32,90,11817,"StudyProc7","JOL","BlockProc1","Hot - ?",32,"chili","recallproc1","recall"
"IS_JOL A",17,1,3,"BlockProc1","Ball - Racket","B",33,60,6933,"StudyProc7","JOL","BlockProc1","Ball - ?",33,"baseball","recallproc1","recall"
"IS_JOL A",17,1,3,"BlockProc1","Work - Chore","B",34,85,22856,"StudyProc7","JOL","BlockProc1","Work - ?",34,"chore","recallproc1","recall"
"IS_JOL A",17,1,3,"BlockProc1","Hunger - Famine","B",35,45,29120,"StudyProc7","JOL","BlockProc1","Hunger - ?",35,"starve","recallproc1","recall"
"IS_JOL A",17,1,3,"BlockProc1","Sleep - Drowsy","B",36,80,35698,"StudyProc7","JOL","BlockProc1","Sleep - ?",36,"tired","recallproc1","recall"
"IS_JOL A",17,1,3,"BlockProc1","Smell - Stench","B",37,85,6243,"StudyProc7","JOL","BlockProc1","Smell - ?",37,"sting","recallproc1","recall"
"IS_JOL A",17,1,3,"BlockProc1","Clothes - Attire","B",38,95,6377,"StudyProc7","JOL","BlockProc1","Clothes - ?",38,"attire","recallproc1","recall"
"IS_JOL A",17,1,3,"BlockProc1","Plane - Pilot","B",39,95,9337,"StudyProc7","JOL","BlockProc1","Plane - ?",39,"pilot","recallproc1","recall"
"IS_JOL A",17,1,3,"BlockProc1","Fire - Blaze","B",40,78,17871,"StudyProc7","JOL","BlockProc1","Fire - ?",40,"blaze","recallproc1","recall"
"IS_JOL A",17,1,3,"BlockProc1","Due - Assignment","S",41,89,7883,"StudyProc3","JOL","BlockProc1","Due - ?",41,"assignment","recallproc1","recall"
"IS_JOL A",17,1,3,"BlockProc1","Number - Amount","S",42,67,6525,"StudyProc3","JOL","BlockProc1","Number - ?",42,"bank","recallproc1","recall"
"IS_JOL A",17,1,3,"BlockProc1","Location - Site","S",43,60,13735,"StudyProc3","JOL","BlockProc1","Location - ?",43,"site","recallproc1","recall"
"IS_JOL A",17,1,3,"BlockProc1","Dump - Waste","S",44,80,12575,"StudyProc3","JOL","BlockProc1","Dump - ?",44,"waste","recallproc1","recall"
"IS_JOL A",17,1,3,"BlockProc1","Trial - Jury","S",45,76,5976,"StudyProc3","JOL","BlockProc1","Trial - ?",45,"jury","recallproc1","recall"
"IS_JOL A",17,1,3,"BlockProc1","Architecture - Design","S",46,85,14951,"StudyProc3","JOL","BlockProc1","Architecture - ?",46,"design","recallproc1","recall"
"IS_JOL A",17,1,3,"BlockProc1","Grill - Bar","S",47,60,8424,"StudyProc3","JOL","BlockProc1","Grill - ?",47,"bar","recallproc1","recall"
"IS_JOL A",17,1,3,"BlockProc1","Kidney - Liver","S",48,76,12201,"StudyProc3","JOL","BlockProc1","Kidney - ?",48,"liver","recallproc1","recall"
"IS_JOL A",17,1,3,"BlockProc1","Begin - End","S",49,95,6494,"StudyProc3","JOL","BlockProc1","Begin - ?",49,"end","recallproc1","recall"
"IS_JOL A",17,1,3,"BlockProc1","Blow - Wind","S",50,70,5278,"StudyProc3","JOL","BlockProc1","Blow - ?",50,"wind","recallproc1","recall"
"IS_JOL A",17,1,3,"BlockProc1","Pop - Soda","S",51,100,6270,"StudyProc3","JOL","BlockProc1","Pop - ?",51,"music","recallproc1","recall"
"IS_JOL A",17,1,3,"BlockProc1","Wine - Cheese","S",52,67,14299,"StudyProc3","JOL","BlockProc1","Wine - ?",52,"cheese","recallproc1","recall"
"IS_JOL A",17,1,3,"BlockProc1","Bathroom - Toilet","S",53,80,15423,"StudyProc3","JOL","BlockProc1","Bathroom - ?",53,"toliet","recallproc1","recall"
"IS_JOL A",17,1,3,"BlockProc1","Lettuce - Salad","S",54,86,6291,"StudyProc3","JOL","BlockProc1","Lettuce - ?",54,"salad","recallproc1","recall"
"IS_JOL A",17,1,3,"BlockProc1","Shoe - Foot","S",55,90,4217,"StudyProc3","JOL","BlockProc1","Shoe - ?",55,"foot","recallproc1","recall"
"IS_JOL A",17,1,3,"BlockProc1","Past - Future","S",56,90,10091,"StudyProc3","JOL","BlockProc1","Past - ?",56,"future","recallproc1","recall"
"IS_JOL A",17,1,3,"BlockProc1","Choice - Decision","S",57,89,11462,"StudyProc3","JOL","BlockProc1","Choice - ?",57,"deision","recallproc1","recall"
"IS_JOL A",17,1,3,"BlockProc1","Honey - Bee","S",58,90,10581,"StudyProc3","JOL","BlockProc1","Honey - ?",58,"bee","recallproc1","recall"
"IS_JOL A",17,1,3,"BlockProc1","Baby - Child","S",59,80,4776,"StudyProc3","JOL","BlockProc1","Baby - ?",59,"child","recallproc1","recall"
"IS_JOL A",17,1,3,"BlockProc1","Circle - Round","S",60,95,6997,"StudyProc3","JOL","BlockProc1","Circle - ?",60,"round","recallproc1","recall"
"IS_JOL A",17,1,3,"BlockProc1","Pusher - Clutter","U",61,34,12593,"StudyProc3","JOL","BlockProc1","Pusher - ?",61,"fixer","recallproc1","recall"
"IS_JOL A",17,1,3,"BlockProc1","Dietary - Slacking","U",62,45,10109,"StudyProc3","JOL","BlockProc1","Dietary - ?",62,"slacking","recallproc1","recall"
"IS_JOL A",17,1,3,"BlockProc1","Park - Hungry","U",63,34,9062,"StudyProc3","JOL","BlockProc1","Park - ?",63,"drive","recallproc1","recall"
"IS_JOL A",17,1,3,"BlockProc1","Lift - Woman","U",64,30,20605,"StudyProc3","JOL","BlockProc1","Lift - ?",64,"woman","recallproc1","recall"
"IS_JOL A",17,1,3,"BlockProc1","Soon - Belt","U",65,10,12863,"StudyProc3","JOL","BlockProc1","Soon - ?",65,"take","recallproc1","recall"
"IS_JOL A",17,1,3,"BlockProc1","Discover - Floor","U",66,35,7155,"StudyProc3","JOL","BlockProc1","Discover - ?",66,"find","recallproc1","recall"
"IS_JOL A",17,1,3,"BlockProc1","Death - Business","U",67,15,5787,"StudyProc3","JOL","BlockProc1","Death - ?",67,"life","recallproc1","recall"
"IS_JOL A",17,1,3,"BlockProc1","Debate - Sight","U",68,30,10153,"StudyProc3","JOL","BlockProc1","Debate - ?",68,"write","recallproc1","recall"
"IS_JOL A",17,1,3,"BlockProc1","Artery - Bronze","U",69,24,9552,"StudyProc3","JOL","BlockProc1","Artery - ?",69,"food","recallproc1","recall"
"IS_JOL A",17,1,3,"BlockProc1","Fix - Hand","U",70,70,11392,"StudyProc3","JOL","BlockProc1","Fix - ?",70,"hand","recallproc1","recall"
"IS_JOL A",17,1,3,"BlockProc1","Machine - Position","U",71,45,18576,"StudyProc3","JOL","BlockProc1","Machine - ?",71,"sit","recallproc1","recall"
"IS_JOL A",17,1,3,"BlockProc1","Happy - Car","U",72,55,16080,"StudyProc3","JOL","BlockProc1","Happy - ?",72,"jpy","recallproc1","recall"
"IS_JOL A",17,1,3,"BlockProc1","Allow - Tuck","U",73,23,14365,"StudyProc3","JOL","BlockProc1","Allow - ?",73,"stp","recallproc1","recall"
"IS_JOL A",17,1,3,"BlockProc1","Art - Lion","U",74,65,22267,"StudyProc3","JOL","BlockProc1","Art - ?",74,"ban","recallproc1","recall"
"IS_JOL A",17,1,3,"BlockProc1","Strong - Accident","U",75,45,21821,"StudyProc3","JOL","BlockProc1","Strong - ?",75,"lift","recallproc1","recall"
"IS_JOL A",17,1,3,"BlockProc1","Sugar - Riddle","U",76,40,31137,"StudyProc3","JOL","BlockProc1","Sugar - ?",76,"cane","recallproc1","recall"
"IS_JOL A",17,1,3,"BlockProc1","Valley - Add","U",77,25,10884,"StudyProc3","JOL","BlockProc1","Valley - ?",77,"math","recallproc1","recall"
"IS_JOL A",17,1,3,"BlockProc1","Cash - Would","U",78,15,7834,"StudyProc3","JOL","BlockProc1","Cash - ?",78,"money","recallproc1","recall"
"IS_JOL A",17,1,3,"BlockProc1","Hide - Sick","U",79,20,26070,"StudyProc3","JOL","BlockProc1","Hide - ?",79,"site","recallproc1","recall"
"IS_JOL A",17,1,3,"BlockProc1","King - Vase","U",80,10,7704,"StudyProc3","JOL","BlockProc1","King - ?",80,"vase","recallproc1","recall"
"RL_JOL A",21,1,3,"BlockProc1","Hornet - Sting","F",6,100,3871,"StudyProc7","JOL","BlockProc1","Hornet - ?",6,"bug","recallproc1","recall"
"RL_JOL A",21,1,3,"BlockProc1","Bitter - Cold","F",7,15,9747,"StudyProc7","JOL","BlockProc1","Bitter - ?",7,"cold","recallproc1","recall"
"RL_JOL A",21,1,3,"BlockProc1","Root - Plant","F",8,85,5815,"StudyProc7","JOL","BlockProc1","Root - ?",8,"plant","recallproc1","recall"
"RL_JOL A",21,1,3,"BlockProc1","Swan - Bird","F",9,100,4517,"StudyProc7","JOL","BlockProc1","Swan - ?",9,"bird","recallproc1","recall"
"RL_JOL A",21,1,3,"BlockProc1","Paw - Dog","F",10,100,3836,"StudyProc7","JOL","BlockProc1","Paw - ?",10,"dog","recallproc1","recall"
"RL_JOL A",21,1,3,"BlockProc1","Way - Out","F",11,50,8858,"StudyProc7","JOL","BlockProc1","Way - ?",11,"out","recallproc1","recall"
"RL_JOL A",21,1,3,"BlockProc1","Hygiene - Clean","F",12,90,3484,"StudyProc7","JOL","BlockProc1","Hygiene - ?",12,"clean","recallproc1","recall"
"RL_JOL A",21,1,3,"BlockProc1","Bridge - Water","F",13,100,3607,"StudyProc7","JOL","BlockProc1","Bridge - ?",13,"water","recallproc1","recall"
"RL_JOL A",21,1,3,"BlockProc1","Geology - Rock","F",14,55,5730,"StudyProc7","JOL","BlockProc1","Geology - ?",14,"rocks","recallproc1","recall"
"RL_JOL A",21,1,3,"BlockProc1","Revolution - War","F",15,100,10957,"StudyProc7","JOL","BlockProc1","Revolution - ?",15,"war","recallproc1","recall"
"RL_JOL A",21,1,3,"BlockProc1","Discussion - Talk","F",16,100,4326,"StudyProc7","JOL","BlockProc1","Discussion - ?",16,"talk","recallproc1","recall"
"RL_JOL A",21,1,3,"BlockProc1","Herd - Cow","F",17,95,6844,"StudyProc7","JOL","BlockProc1","Herd - ?",17,"cow","recallproc1","recall"
"RL_JOL A",21,1,3,"BlockProc1","Credit - Card","F",18,100,5248,"StudyProc7","JOL","BlockProc1","Credit - ?",18,"card","recallproc1","recall"
"RL_JOL A",21,1,3,"BlockProc1","Orchid - Flower","F",19,100,4360,"StudyProc7","JOL","BlockProc1","Orchid - ?",19,"flower","recallproc1","recall"
"RL_JOL A",21,1,3,"BlockProc1","Tuna - Fish","F",20,75,6388,"StudyProc7","JOL","BlockProc1","Tuna - ?",20,"fish","recallproc1","recall"
"RL_JOL A",21,1,3,"BlockProc1","Full - Enough","B",21,80,5301,"StudyProc7","JOL","BlockProc1","Full - ?",21,"enough","recallproc1","recall"
"RL_JOL A",21,1,3,"BlockProc1","Drink - Sip","B",22,75,5185,"StudyProc7","JOL","BlockProc1","Drink - ?",22,"sip","recallproc1","recall"
"RL_JOL A",21,1,3,"BlockProc1","Dark - Cave","B",23,100,4858,"StudyProc7","JOL","BlockProc1","Dark - ?",23,"cave","recallproc1","recall"
"RL_JOL A",21,1,3,"BlockProc1","Take - Seize","B",24,65,6480,"StudyProc7","JOL","BlockProc1","Take - ?",24,"grab","recallproc1","recall"
"RL_JOL A",21,1,3,"BlockProc1","Height - Growth","B",25,100,4569,"StudyProc7","JOL","BlockProc1","Height - ?",25,"growth","recallproc1","recall"
"RL_JOL A",21,1,3,"BlockProc1","Sentence - Word","B",26,100,4565,"StudyProc7","JOL","BlockProc1","Sentence - ?",26,"words","recallproc1","recall"
"RL_JOL A",21,1,3,"BlockProc1","Bug - Wasp","B",27,100,5420,"StudyProc7","JOL","BlockProc1","Bug - ?",27,"wasp","recallproc1","recall"
"RL_JOL A",21,1,3,"BlockProc1","Math - Division","B",28,100,4818,"StudyProc7","JOL","BlockProc1","Math - ?",28,"division","recallproc1","recall"
"RL_JOL A",21,1,3,"BlockProc1","Law - Attorney","B",29,95,7989,"StudyProc7","JOL","BlockProc1","Law - ?",29,"attorney","recallproc1","recall"
"RL_JOL A",21,1,3,"BlockProc1","Great - Fantastic","B",30,100,6792,"StudyProc7","JOL","BlockProc1","Great - ?",30,"fantastic","recallproc1","recall"
"RL_JOL A",21,1,3,"BlockProc1","Key - Latch","B",31,45,11252,"StudyProc7","JOL","BlockProc1","Key - ?",31,"latch","recallproc1","recall"
"RL_JOL A",21,1,3,"BlockProc1","Hot - Chili","B",32,100,4405,"StudyProc7","JOL","BlockProc1","Hot - ?",32,"heat","recallproc1","recall"
"RL_JOL A",21,1,3,"BlockProc1","Ball - Racket","B",33,67,5901,"StudyProc7","JOL","BlockProc1","Ball - ?",33,"bat","recallproc1","recall"
"RL_JOL A",21,1,3,"BlockProc1","Work - Chore","B",34,95,9139,"StudyProc7","JOL","BlockProc1","Work - ?",34,"wage","recallproc1","recall"
"RL_JOL A",21,1,3,"BlockProc1","Hunger - Famine","B",35,100,7476,"StudyProc7","JOL","BlockProc1","Hunger - ?",35,"famine","recallproc1","recall"
"RL_JOL A",21,1,3,"BlockProc1","Sleep - Drowsy","B",36,100,4973,"StudyProc7","JOL","BlockProc1","Sleep - ?",36,"drousy","recallproc1","recall"
"RL_JOL A",21,1,3,"BlockProc1","Smell - Stench","B",37,75,5946,"StudyProc7","JOL","BlockProc1","Smell - ?",37,"stench","recallproc1","recall"
"RL_JOL A",21,1,3,"BlockProc1","Clothes - Attire","B",38,100,3860,"StudyProc7","JOL","BlockProc1","Clothes - ?",38,"attire","recallproc1","recall"
"RL_JOL A",21,1,3,"BlockProc1","Plane - Pilot","B",39,100,4945,"StudyProc7","JOL","BlockProc1","Plane - ?",39,"pilot","recallproc1","recall"
"RL_JOL A",21,1,3,"BlockProc1","Fire - Blaze","B",40,100,3495,"StudyProc7","JOL","BlockProc1","Fire - ?",40,"blaze","recallproc1","recall"
"RL_JOL A",21,1,3,"BlockProc1","Due - Assignment","S",41,100,4119,"StudyProc3","JOL","BlockProc1","Due - ?",41,"assignment","recallproc1","recall"
"RL_JOL A",21,1,3,"BlockProc1","Number - Amount","S",42,100,5149,"StudyProc3","JOL","BlockProc1","Number - ?",42,"amount","recallproc1","recall"
"RL_JOL A",21,1,3,"BlockProc1","Location - Site","S",43,67,4611,"StudyProc3","JOL","BlockProc1","Location - ?",43,"site","recallproc1","recall"
"RL_JOL A",21,1,3,"BlockProc1","Dump - Waste","S",44,100,4253,"StudyProc3","JOL","BlockProc1","Dump - ?",44,"waste","recallproc1","recall"
"RL_JOL A",21,1,3,"BlockProc1","Trial - Jury","S",45,100,3950,"StudyProc3","JOL","BlockProc1","Trial - ?",45,"jury","recallproc1","recall"
"RL_JOL A",21,1,3,"BlockProc1","Architecture - Design","S",46,100,6758,"StudyProc3","JOL","BlockProc1","Architecture - ?",46,"design","recallproc1","recall"
"RL_JOL A",21,1,3,"BlockProc1","Grill - Bar","S",47,85,7855,"StudyProc3","JOL","BlockProc1","Grill - ?",47,"bar","recallproc1","recall"
"RL_JOL A",21,1,3,"BlockProc1","Kidney - Liver","S",48,75,4929,"StudyProc3","JOL","BlockProc1","Kidney - ?",48,"liver","recallproc1","recall"
"RL_JOL A",21,1,3,"BlockProc1","Begin - End","S",49,100,4144,"StudyProc3","JOL","BlockProc1","Begin - ?",49,"end","recallproc1","recall"
"RL_JOL A",21,1,3,"BlockProc1","Blow - Wind","S",50,100,5340,"StudyProc3","JOL","BlockProc1","Blow - ?",50,"","recallproc1","recall"
"RL_JOL A",21,1,3,"BlockProc1","Pop - Soda","S",51,100,2620,"StudyProc3","JOL","BlockProc1","Pop - ?",51,"soda","recallproc1","recall"
"RL_JOL A",21,1,3,"BlockProc1","Wine - Cheese","S",52,100,3650,"StudyProc3","JOL","BlockProc1","Wine - ?",52,"cheese","recallproc1","recall"
"RL_JOL A",21,1,3,"BlockProc1","Bathroom - Toilet","S",53,100,5198,"StudyProc3","JOL","BlockProc1","Bathroom - ?",53,"toilet","recallproc1","recall"
"RL_JOL A",21,1,3,"BlockProc1","Lettuce - Salad","S",54,100,4168,"StudyProc3","JOL","BlockProc1","Lettuce - ?",54,"salad","recallproc1","recall"
"RL_JOL A",21,1,3,"BlockProc1","Shoe - Foot","S",55,100,4541,"StudyProc3","JOL","BlockProc1","Shoe - ?",55,"foot","recallproc1","recall"
"RL_JOL A",21,1,3,"BlockProc1","Past - Future","S",56,100,3346,"StudyProc3","JOL","BlockProc1","Past - ?",56,"future","recallproc1","recall"
"RL_JOL A",21,1,3,"BlockProc1","Choice - Decision","S",57,100,5175,"StudyProc3","JOL","BlockProc1","Choice - ?",57,"decision","recallproc1","recall"
"RL_JOL A",21,1,3,"BlockProc1","Honey - Bee","S",58,100,4438,"StudyProc3","JOL","BlockProc1","Honey - ?",58,"bee","recallproc1","recall"
"RL_JOL A",21,1,3,"BlockProc1","Baby - Child","S",59,100,3644,"StudyProc3","JOL","BlockProc1","Baby - ?",59,"child","recallproc1","recall"
"RL_JOL A",21,1,3,"BlockProc1","Circle - Round","S",60,90,4813,"StudyProc3","JOL","BlockProc1","Circle - ?",60,"round","recallproc1","recall"
"RL_JOL A",21,1,3,"BlockProc1","Pusher - Clutter","U",61,25,7159,"StudyProc3","JOL","BlockProc1","Pusher - ?",61,"staller","recallproc1","recall"
"RL_JOL A",21,1,3,"BlockProc1","Dietary - Slacking","U",62,25,6333,"StudyProc3","JOL","BlockProc1","Dietary - ?",62,"lack","recallproc1","recall"
"RL_JOL A",21,1,3,"BlockProc1","Park - Hungry","U",63,50,5886,"StudyProc3","JOL","BlockProc1","Park - ?",63,"hunger","recallproc1","recall"
"RL_JOL A",21,1,3,"BlockProc1","Lift - Woman","U",64,45,9542,"StudyProc3","JOL","BlockProc1","Lift - ?",64,"woman","recallproc1","recall"
"RL_JOL A",21,1,3,"BlockProc1","Soon - Belt","U",65,10,7614,"StudyProc3","JOL","BlockProc1","Soon - ?",65,"later","recallproc1","recall"
"RL_JOL A",21,1,3,"BlockProc1","Discover - Floor","U",66,30,11006,"StudyProc3","JOL","BlockProc1","Discover - ?",66,"floor","recallproc1","recall"
"RL_JOL A",21,1,3,"BlockProc1","Death - Business","U",67,25,13059,"StudyProc3","JOL","BlockProc1","Death - ?",67,"business","recallproc1","recall"
"RL_JOL A",21,1,3,"BlockProc1","Debate - Sight","U",68,50,7210,"StudyProc3","JOL","BlockProc1","Debate - ?",68,"see","recallproc1","recall"
"RL_JOL A",21,1,3,"BlockProc1","Artery - Bronze","U",69,10,8784,"StudyProc3","JOL","BlockProc1","Artery - ?",69,"","recallproc1","recall"
"RL_JOL A",21,1,3,"BlockProc1","Fix - Hand","U",70,100,4639,"StudyProc3","JOL","BlockProc1","Fix - ?",70,"hands","recallproc1","recall"
"RL_JOL A",21,1,3,"BlockProc1","Machine - Position","U",71,65,6848,"StudyProc3","JOL","BlockProc1","Machine - ?",71,"position","recallproc1","recall"
"RL_JOL A",21,1,3,"BlockProc1","Happy - Car","U",72,35,5614,"StudyProc3","JOL","BlockProc1","Happy - ?",72,"","recallproc1","recall"
"RL_JOL A",21,1,3,"BlockProc1","Allow - Tuck","U",73,45,13679,"StudyProc3","JOL","BlockProc1","Allow - ?",73,"","recallproc1","recall"
"RL_JOL A",21,1,3,"BlockProc1","Art - Lion","U",74,45,16353,"StudyProc3","JOL","BlockProc1","Art - ?",74,"lion","recallproc1","recall"
"RL_JOL A",21,1,3,"BlockProc1","Strong - Accident","U",75,10,5961,"StudyProc3","JOL","BlockProc1","Strong - ?",75,"","recallproc1","recall"
"RL_JOL A",21,1,3,"BlockProc1","Sugar - Riddle","U",76,35,11742,"StudyProc3","JOL","BlockProc1","Sugar - ?",76,"","recallproc1","recall"
"RL_JOL A",21,1,3,"BlockProc1","Valley - Add","U",77,15,9416,"StudyProc3","JOL","BlockProc1","Valley - ?",77,"add","recallproc1","recall"
"RL_JOL A",21,1,3,"BlockProc1","Cash - Would","U",78,50,8883,"StudyProc3","JOL","BlockProc1","Cash - ?",78,"wage","recallproc1","recall"
"RL_JOL A",21,1,3,"BlockProc1","Hide - Sick","U",79,45,8651,"StudyProc3","JOL","BlockProc1","Hide - ?",79,"side","recallproc1","recall"
"RL_JOL A",21,1,3,"BlockProc1","King - Vase","U",80,10,5338,"StudyProc3","JOL","BlockProc1","King - ?",80,"crown","recallproc1","recall"
"READ_JOL A",25,1,3,"BlockProc1","Hornet - Sting","F",6,66,4166,"StudyProc7","JOL","BlockProc1","Hornet - ?",6,"sting","recallproc1","recall"
"READ_JOL A",25,1,3,"BlockProc1","Bitter - Cold","F",7,88,2835,"StudyProc7","JOL","BlockProc1","Bitter - ?",7,"sweet","recallproc1","recall"
"READ_JOL A",25,1,3,"BlockProc1","Root - Plant","F",8,77,2361,"StudyProc7","JOL","BlockProc1","Root - ?",8,"tree","recallproc1","recall"
"READ_JOL A",25,1,3,"BlockProc1","Swan - Bird","F",9,55,3723,"StudyProc7","JOL","BlockProc1","Swan - ?",9,"duck","recallproc1","recall"
"READ_JOL A",25,1,3,"BlockProc1","Paw - Dog","F",10,99,3085,"StudyProc7","JOL","BlockProc1","Paw - ?",10,"dog","recallproc1","recall"
"READ_JOL A",25,1,3,"BlockProc1","Way - Out","F",11,99,9041,"StudyProc7","JOL","BlockProc1","Way - ?",11,"maker","recallproc1","recall"
"READ_JOL A",25,1,3,"BlockProc1","Hygiene - Clean","F",12,100,5301,"StudyProc7","JOL","BlockProc1","Hygiene - ?",12,"clean","recallproc1","recall"
"READ_JOL A",25,1,3,"BlockProc1","Bridge - Water","F",13,100,11812,"StudyProc7","JOL","BlockProc1","Bridge - ?",13,"water","recallproc1","recall"
"READ_JOL A",25,1,3,"BlockProc1","Geology - Rock","F",14,66,2536,"StudyProc7","JOL","BlockProc1","Geology - ?",14,"rock","recallproc1","recall"
"READ_JOL A",25,1,3,"BlockProc1","Revolution - War","F",15,99,2454,"StudyProc7","JOL","BlockProc1","Revolution - ?",15,"evolve","recallproc1","recall"
"READ_JOL A",25,1,3,"BlockProc1","Discussion - Talk","F",16,66,4339,"StudyProc7","JOL","BlockProc1","Discussion - ?",16,"board","recallproc1","recall"
"READ_JOL A",25,1,3,"BlockProc1","Herd - Cow","F",17,88,4665,"StudyProc7","JOL","BlockProc1","Herd - ?",17,"lion","recallproc1","recall"
"READ_JOL A",25,1,3,"BlockProc1","Credit - Card","F",18,NA,64,"StudyProc7","JOL","BlockProc1","Credit - ?",18,"debit","recallproc1","recall"
"READ_JOL A",25,1,3,"BlockProc1","Orchid - Flower","F",19,55,5767,"StudyProc7","JOL","BlockProc1","Orchid - ?",19,"flower","recallproc1","recall"
"READ_JOL A",25,1,3,"BlockProc1","Tuna - Fish","F",20,99,4198,"StudyProc7","JOL","BlockProc1","Tuna - ?",20,"fish","recallproc1","recall"
"READ_JOL A",25,1,3,"BlockProc1","Full - Enough","B",21,99,4159,"StudyProc7","JOL","BlockProc1","Full - ?",21,"empty","recallproc1","recall"
"READ_JOL A",25,1,3,"BlockProc1","Drink - Sip","B",22,99,3017,"StudyProc7","JOL","BlockProc1","Drink - ?",22,"water","recallproc1","recall"
"READ_JOL A",25,1,3,"BlockProc1","Dark - Cave","B",23,88,5714,"StudyProc7","JOL","BlockProc1","Dark - ?",23,"light","recallproc1","recall"
"READ_JOL A",25,1,3,"BlockProc1","Take - Seize","B",24,44,3872,"StudyProc7","JOL","BlockProc1","Take - ?",24,"choose","recallproc1","recall"
"READ_JOL A",25,1,3,"BlockProc1","Height - Growth","B",25,66,3962,"StudyProc7","JOL","BlockProc1","Height - ?",25,"tall","recallproc1","recall"
"READ_JOL A",25,1,3,"BlockProc1","Sentence - Word","B",26,99,5129,"StudyProc7","JOL","BlockProc1","Sentence - ?",26,"complet","recallproc1","recall"
"READ_JOL A",25,1,3,"BlockProc1","Bug - Wasp","B",27,55,1847,"StudyProc7","JOL","BlockProc1","Bug - ?",27,"wasp","recallproc1","recall"
"READ_JOL A",25,1,3,"BlockProc1","Math - Division","B",28,77,6126,"StudyProc7","JOL","BlockProc1","Math - ?",28,"english","recallproc1","recall"
"READ_JOL A",25,1,3,"BlockProc1","Law - Attorney","B",29,88,4274,"StudyProc7","JOL","BlockProc1","Law - ?",29,"rights","recallproc1","recall"
"READ_JOL A",25,1,3,"BlockProc1","Great - Fantastic","B",30,88,3326,"StudyProc7","JOL","BlockProc1","Great - ?",30,"boring","recallproc1","recall"
"READ_JOL A",25,1,3,"BlockProc1","Key - Latch","B",31,66,4929,"StudyProc7","JOL","BlockProc1","Key - ?",31,"word","recallproc1","recall"
"READ_JOL A",25,1,3,"BlockProc1","Hot - Chili","B",32,99,2294,"StudyProc7","JOL","BlockProc1","Hot - ?",32,"chill","recallproc1","recall"
"READ_JOL A",25,1,3,"BlockProc1","Ball - Racket","B",33,99,7304,"StudyProc7","JOL","BlockProc1","Ball - ?",33,"soccer","recallproc1","recall"
"READ_JOL A",25,1,3,"BlockProc1","Work - Chore","B",34,77,3215,"StudyProc7","JOL","BlockProc1","Work - ?",34,"harder","recallproc1","recall"
"READ_JOL A",25,1,3,"BlockProc1","Hunger - Famine","B",35,88,8060,"StudyProc7","JOL","BlockProc1","Hunger - ?",35,"eat","recallproc1","recall"
"READ_JOL A",25,1,3,"BlockProc1","Sleep - Drowsy","B",36,99,4871,"StudyProc7","JOL","BlockProc1","Sleep - ?",36,"wake","recallproc1","recall"
"READ_JOL A",25,1,3,"BlockProc1","Smell - Stench","B",37,88,3256,"StudyProc7","JOL","BlockProc1","Smell - ?",37,"stink","recallproc1","recall"
"READ_JOL A",25,1,3,"BlockProc1","Clothes - Attire","B",38,88,5826,"StudyProc7","JOL","BlockProc1","Clothes - ?",38,"pant","recallproc1","recall"
"READ_JOL A",25,1,3,"BlockProc1","Plane - Pilot","B",39,99,4078,"StudyProc7","JOL","BlockProc1","Plane - ?",39,"crash","recallproc1","recall"
"READ_JOL A",25,1,3,"BlockProc1","Fire - Blaze","B",40,88,1618,"StudyProc7","JOL","BlockProc1","Fire - ?",40,"wall","recallproc1","recall"
"READ_JOL A",25,1,3,"BlockProc1","Due - Assignment","S",41,99,2466,"StudyProc3","JOL","BlockProc1","Due - ?",41,"assignmentt","recallproc1","recall"
"READ_JOL A",25,1,3,"BlockProc1","Number - Amount","S",42,99,3064,"StudyProc3","JOL","BlockProc1","Number - ?",42,"letter","recallproc1","recall"
"READ_JOL A",25,1,3,"BlockProc1","Location - Site","S",43,88,3706,"StudyProc3","JOL","BlockProc1","Location - ?",43,"place","recallproc1","recall"
"READ_JOL A",25,1,3,"BlockProc1","Dump - Waste","S",44,88,3040,"StudyProc3","JOL","BlockProc1","Dump - ?",44,"waste","recallproc1","recall"
"READ_JOL A",25,1,3,"BlockProc1","Trial - Jury","S",45,78,3709,"StudyProc3","JOL","BlockProc1","Trial - ?",45,"law","recallproc1","recall"
"READ_JOL A",25,1,3,"BlockProc1","Architecture - Design","S",46,50,4661,"StudyProc3","JOL","BlockProc1","Architecture - ?",46,"business","recallproc1","recall"
"READ_JOL A",25,1,3,"BlockProc1","Grill - Bar","S",47,74,3890,"StudyProc3","JOL","BlockProc1","Grill - ?",47,"cook","recallproc1","recall"
"READ_JOL A",25,1,3,"BlockProc1","Kidney - Liver","S",48,88,5215,"StudyProc3","JOL","BlockProc1","Kidney - ?",48,"liver","recallproc1","recall"
"READ_JOL A",25,1,3,"BlockProc1","Begin - End","S",49,89,3237,"StudyProc3","JOL","BlockProc1","Begin - ?",49,"end","recallproc1","recall"
"READ_JOL A",25,1,3,"BlockProc1","Blow - Wind","S",50,99,3104,"StudyProc3","JOL","BlockProc1","Blow - ?",50,"whistle","recallproc1","recall"
"READ_JOL A",25,1,3,"BlockProc1","Pop - Soda","S",51,99,2826,"StudyProc3","JOL","BlockProc1","Pop - ?",51,"soda","recallproc1","recall"
"READ_JOL A",25,1,3,"BlockProc1","Wine - Cheese","S",52,67,2937,"StudyProc3","JOL","BlockProc1","Wine - ?",52,"drink","recallproc1","recall"
"READ_JOL A",25,1,3,"BlockProc1","Bathroom - Toilet","S",53,99,2928,"StudyProc3","JOL","BlockProc1","Bathroom - ?",53,"toilet","recallproc1","recall"
"READ_JOL A",25,1,3,"BlockProc1","Lettuce - Salad","S",54,99,2723,"StudyProc3","JOL","BlockProc1","Lettuce - ?",54,"fruit","recallproc1","recall"
"READ_JOL A",25,1,3,"BlockProc1","Shoe - Foot","S",55,99,3318,"StudyProc3","JOL","BlockProc1","Shoe - ?",55,"fit","recallproc1","recall"
"READ_JOL A",25,1,3,"BlockProc1","Past - Future","S",56,89,3720,"StudyProc3","JOL","BlockProc1","Past - ?",56,"future","recallproc1","recall"
"READ_JOL A",25,1,3,"BlockProc1","Choice - Decision","S",57,97,6930,"StudyProc3","JOL","BlockProc1","Choice - ?",57,"allow","recallproc1","recall"
"READ_JOL A",25,1,3,"BlockProc1","Honey - Bee","S",58,99,3133,"StudyProc3","JOL","BlockProc1","Honey - ?",58,"bee","recallproc1","recall"
"READ_JOL A",25,1,3,"BlockProc1","Baby - Child","S",59,99,6255,"StudyProc3","JOL","BlockProc1","Baby - ?",59,"cry","recallproc1","recall"
"READ_JOL A",25,1,3,"BlockProc1","Circle - Round","S",60,99,2408,"StudyProc3","JOL","BlockProc1","Circle - ?",60,"round","recallproc1","recall"
"READ_JOL A",25,1,3,"BlockProc1","Pusher - Clutter","U",61,66,8152,"StudyProc3","JOL","BlockProc1","Pusher - ?",61,"runner","recallproc1","recall"
"READ_JOL A",25,1,3,"BlockProc1","Dietary - Slacking","U",62,8,4371,"StudyProc3","JOL","BlockProc1","Dietary - ?",62,"slacking","recallproc1","recall"
"READ_JOL A",25,1,3,"BlockProc1","Park - Hungry","U",63,99,6469,"StudyProc3","JOL","BlockProc1","Park - ?",63,"zoo","recallproc1","recall"
"READ_JOL A",25,1,3,"BlockProc1","Lift - Woman","U",64,67,3895,"StudyProc3","JOL","BlockProc1","Lift - ?",64,"throw","recallproc1","recall"
"READ_JOL A",25,1,3,"BlockProc1","Soon - Belt","U",65,77,6429,"StudyProc3","JOL","BlockProc1","Soon - ?",65,"later","recallproc1","recall"
"READ_JOL A",25,1,3,"BlockProc1","Discover - Floor","U",66,67,4973,"StudyProc3","JOL","BlockProc1","Discover - ?",66,"wish","recallproc1","recall"
"READ_JOL A",25,1,3,"BlockProc1","Death - Business","U",67,89,4211,"StudyProc3","JOL","BlockProc1","Death - ?",67,"business","recallproc1","recall"
"READ_JOL A",25,1,3,"BlockProc1","Debate - Sight","U",68,88,1745,"StudyProc3","JOL","BlockProc1","Debate - ?",68,"argue","recallproc1","recall"
"READ_JOL A",25,1,3,"BlockProc1","Artery - Bronze","U",69,2,9597,"StudyProc3","JOL","BlockProc1","Artery - ?",69,"geology","recallproc1","recall"
"READ_JOL A",25,1,3,"BlockProc1","Fix - Hand","U",70,33,8689,"StudyProc3","JOL","BlockProc1","Fix - ?",70,"machine","recallproc1","recall"
"READ_JOL A",25,1,3,"BlockProc1","Machine - Position","U",71,67,6652,"StudyProc3","JOL","BlockProc1","Machine - ?",71,"board","recallproc1","recall"
"READ_JOL A",25,1,3,"BlockProc1","Happy - Car","U",72,77,3256,"StudyProc3","JOL","BlockProc1","Happy - ?",72,"said","recallproc1","recall"
"READ_JOL A",25,1,3,"BlockProc1","Allow - Tuck","U",73,67,5972,"StudyProc3","JOL","BlockProc1","Allow - ?",73,"choose","recallproc1","recall"
"READ_JOL A",25,1,3,"BlockProc1","Art - Lion","U",74,68,3688,"StudyProc3","JOL","BlockProc1","Art - ?",74,"model","recallproc1","recall"
"READ_JOL A",25,1,3,"BlockProc1","Strong - Accident","U",75,99,4307,"StudyProc3","JOL","BlockProc1","Strong - ?",75,"weak","recallproc1","recall"
"READ_JOL A",25,1,3,"BlockProc1","Sugar - Riddle","U",76,6,6800,"StudyProc3","JOL","BlockProc1","Sugar - ?",76,"water","recallproc1","recall"
"READ_JOL A",25,1,3,"BlockProc1","Valley - Add","U",77,56,3954,"StudyProc3","JOL","BlockProc1","Valley - ?",77,"way","recallproc1","recall"
"READ_JOL A",25,1,3,"BlockProc1","Cash - Would","U",78,77,4647,"StudyProc3","JOL","BlockProc1","Cash - ?",78,"money","recallproc1","recall"
"READ_JOL A",25,1,3,"BlockProc1","Hide - Sick","U",79,55,6599,"StudyProc3","JOL","BlockProc1","Hide - ?",79,"sick","recallproc1","recall"
"READ_JOL A",25,1,3,"BlockProc1","King - Vase","U",80,87,3198,"StudyProc3","JOL","BlockProc1","King - ?",80,"lion","recallproc1","recall"
"IS_JOL A",29,1,3,"BlockProc1","Hornet - Sting","F",6,50,4747,"StudyProc7","JOL","BlockProc1","Hornet - ?",6,"sting","recallproc1","recall"
"IS_JOL A",29,1,3,"BlockProc1","Bitter - Cold","F",7,70,10076,"StudyProc7","JOL","BlockProc1","Bitter - ?",7,"cold","recallproc1","recall"
"IS_JOL A",29,1,3,"BlockProc1","Root - Plant","F",8,70,14044,"StudyProc7","JOL","BlockProc1","Root - ?",8,"plant","recallproc1","recall"
"IS_JOL A",29,1,3,"BlockProc1","Swan - Bird","F",9,70,6134,"StudyProc7","JOL","BlockProc1","Swan - ?",9,"bird","recallproc1","recall"
"IS_JOL A",29,1,3,"BlockProc1","Paw - Dog","F",10,80,6117,"StudyProc7","JOL","BlockProc1","Paw - ?",10,"dog","recallproc1","recall"
"IS_JOL A",29,1,3,"BlockProc1","Way - Out","F",11,70,8851,"StudyProc7","JOL","BlockProc1","Way - ?",11,"out","recallproc1","recall"
"IS_JOL A",29,1,3,"BlockProc1","Hygiene - Clean","F",12,70,13419,"StudyProc7","JOL","BlockProc1","Hygiene - ?",12,"clean","recallproc1","recall"
"IS_JOL A",29,1,3,"BlockProc1","Bridge - Water","F",13,68,10123,"StudyProc7","JOL","BlockProc1","Bridge - ?",13,"water","recallproc1","recall"
"IS_JOL A",29,1,3,"BlockProc1","Geology - Rock","F",14,70,7495,"StudyProc7","JOL","BlockProc1","Geology - ?",14,"rock","recallproc1","recall"
"IS_JOL A",29,1,3,"BlockProc1","Revolution - War","F",15,60,23258,"StudyProc7","JOL","BlockProc1","Revolution - ?",15,"war","recallproc1","recall"
"IS_JOL A",29,1,3,"BlockProc1","Discussion - Talk","F",16,70,15090,"StudyProc7","JOL","BlockProc1","Discussion - ?",16,"talk","recallproc1","recall"
"IS_JOL A",29,1,3,"BlockProc1","Herd - Cow","F",17,60,9543,"StudyProc7","JOL","BlockProc1","Herd - ?",17,"cow","recallproc1","recall"
"IS_JOL A",29,1,3,"BlockProc1","Credit - Card","F",18,90,7367,"StudyProc7","JOL","BlockProc1","Credit - ?",18,"card","recallproc1","recall"
"IS_JOL A",29,1,3,"BlockProc1","Orchid - Flower","F",19,60,9371,"StudyProc7","JOL","BlockProc1","Orchid - ?",19,"flower","recallproc1","recall"
"IS_JOL A",29,1,3,"BlockProc1","Tuna - Fish","F",20,70,7307,"StudyProc7","JOL","BlockProc1","Tuna - ?",20,"fish","recallproc1","recall"
"IS_JOL A",29,1,3,"BlockProc1","Full - Enough","B",21,60,12712,"StudyProc7","JOL","BlockProc1","Full - ?",21,"enough","recallproc1","recall"
"IS_JOL A",29,1,3,"BlockProc1","Drink - Sip","B",22,70,8922,"StudyProc7","JOL","BlockProc1","Drink - ?",22,"","recallproc1","recall"
"IS_JOL A",29,1,3,"BlockProc1","Dark - Cave","B",23,60,4473,"StudyProc7","JOL","BlockProc1","Dark - ?",23,"cave","recallproc1","recall"
"IS_JOL A",29,1,3,"BlockProc1","Take - Seize","B",24,70,10861,"StudyProc7","JOL","BlockProc1","Take - ?",24,"grab","recallproc1","recall"
"IS_JOL A",29,1,3,"BlockProc1","Height - Growth","B",25,80,11991,"StudyProc7","JOL","BlockProc1","Height - ?",25,"growth","recallproc1","recall"
"IS_JOL A",29,1,3,"BlockProc1","Sentence - Word","B",26,60,8617,"StudyProc7","JOL","BlockProc1","Sentence - ?",26,"word","recallproc1","recall"
"IS_JOL A",29,1,3,"BlockProc1","Bug - Wasp","B",27,45,15175,"StudyProc7","JOL","BlockProc1","Bug - ?",27,"wasp","recallproc1","recall"
"IS_JOL A",29,1,3,"BlockProc1","Math - Division","B",28,60,6410,"StudyProc7","JOL","BlockProc1","Math - ?",28,"","recallproc1","recall"
"IS_JOL A",29,1,3,"BlockProc1","Law - Attorney","B",29,60,11897,"StudyProc7","JOL","BlockProc1","Law - ?",29,"attourney","recallproc1","recall"
"IS_JOL A",29,1,3,"BlockProc1","Great - Fantastic","B",30,70,12591,"StudyProc7","JOL","BlockProc1","Great - ?",30,"fatastic","recallproc1","recall"
"IS_JOL A",29,1,3,"BlockProc1","Key - Latch","B",31,70,11749,"StudyProc7","JOL","BlockProc1","Key - ?",31,"latch","recallproc1","recall"
"IS_JOL A",29,1,3,"BlockProc1","Hot - Chili","B",32,60,18104,"StudyProc7","JOL","BlockProc1","Hot - ?",32,"chili","recallproc1","recall"
"IS_JOL A",29,1,3,"BlockProc1","Ball - Racket","B",33,65,8234,"StudyProc7","JOL","BlockProc1","Ball - ?",33,"racket","recallproc1","recall"
"IS_JOL A",29,1,3,"BlockProc1","Work - Chore","B",34,50,9425,"StudyProc7","JOL","BlockProc1","Work - ?",34,"chore","recallproc1","recall"
"IS_JOL A",29,1,3,"BlockProc1","Hunger - Famine","B",35,70,17086,"StudyProc7","JOL","BlockProc1","Hunger - ?",35,"famine","recallproc1","recall"
"IS_JOL A",29,1,3,"BlockProc1","Sleep - Drowsy","B",36,45,11416,"StudyProc7","JOL","BlockProc1","Sleep - ?",36,"drowsy","recallproc1","recall"
"IS_JOL A",29,1,3,"BlockProc1","Smell - Stench","B",37,0,13119,"StudyProc7","JOL","BlockProc1","Smell - ?",37,"stench","recallproc1","recall"
"IS_JOL A",29,1,3,"BlockProc1","Clothes - Attire","B",38,600,12199,"StudyProc7","JOL","BlockProc1","Clothes - ?",38,"attirer","recallproc1","recall"
"IS_JOL A",29,1,3,"BlockProc1","Plane - Pilot","B",39,90,9271,"StudyProc7","JOL","BlockProc1","Plane - ?",39,"pilot","recallproc1","recall"
"IS_JOL A",29,1,3,"BlockProc1","Fire - Blaze","B",40,69,6258,"StudyProc7","JOL","BlockProc1","Fire - ?",40,"blaze","recallproc1","recall"
"IS_JOL A",29,1,3,"BlockProc1","Due - Assignment","S",41,70,26719,"StudyProc3","JOL","BlockProc1","Due - ?",41,"assignment","recallproc1","recall"
"IS_JOL A",29,1,3,"BlockProc1","Number - Amount","S",42,67,9171,"StudyProc3","JOL","BlockProc1","Number - ?",42,"amount","recallproc1","recall"
"IS_JOL A",29,1,3,"BlockProc1","Location - Site","S",43,60,14428,"StudyProc3","JOL","BlockProc1","Location - ?",43,"site","recallproc1","recall"
"IS_JOL A",29,1,3,"BlockProc1","Dump - Waste","S",44,30,20709,"StudyProc3","JOL","BlockProc1","Dump - ?",44,"waste","recallproc1","recall"
"IS_JOL A",29,1,3,"BlockProc1","Trial - Jury","S",45,35,15271,"StudyProc3","JOL","BlockProc1","Trial - ?",45,"jury","recallproc1","recall"
"IS_JOL A",29,1,3,"BlockProc1","Architecture - Design","S",46,80,6470,"StudyProc3","JOL","BlockProc1","Architecture - ?",46,"design","recallproc1","recall"
"IS_JOL A",29,1,3,"BlockProc1","Grill - Bar","S",47,50,13999,"StudyProc3","JOL","BlockProc1","Grill - ?",47,"bar","recallproc1","recall"
"IS_JOL A",29,1,3,"BlockProc1","Kidney - Liver","S",48,40,17979,"StudyProc3","JOL","BlockProc1","Kidney - ?",48,"liver","recallproc1","recall"
"IS_JOL A",29,1,3,"BlockProc1","Begin - End","S",49,90,24587,"StudyProc3","JOL","BlockProc1","Begin - ?",49,"end","recallproc1","recall"
"IS_JOL A",29,1,3,"BlockProc1","Blow - Wind","S",50,80,24542,"StudyProc3","JOL","BlockProc1","Blow - ?",50,"wind","recallproc1","recall"
"IS_JOL A",29,1,3,"BlockProc1","Pop - Soda","S",51,80,7813,"StudyProc3","JOL","BlockProc1","Pop - ?",51,"soda","recallproc1","recall"
"IS_JOL A",29,1,3,"BlockProc1","Wine - Cheese","S",52,80,8394,"StudyProc3","JOL","BlockProc1","Wine - ?",52,"cheese","recallproc1","recall"
"IS_JOL A",29,1,3,"BlockProc1","Bathroom - Toilet","S",53,70,6967,"StudyProc3","JOL","BlockProc1","Bathroom - ?",53,"toilet","recallproc1","recall"
"IS_JOL A",29,1,3,"BlockProc1","Lettuce - Salad","S",54,50,12852,"StudyProc3","JOL","BlockProc1","Lettuce - ?",54,"salad","recallproc1","recall"
"IS_JOL A",29,1,3,"BlockProc1","Shoe - Foot","S",55,90,6661,"StudyProc3","JOL","BlockProc1","Shoe - ?",55,"foot","recallproc1","recall"
"IS_JOL A",29,1,3,"BlockProc1","Past - Future","S",56,97,7555,"StudyProc3","JOL","BlockProc1","Past - ?",56,"future","recallproc1","recall"
"IS_JOL A",29,1,3,"BlockProc1","Choice - Decision","S",57,70,16892,"StudyProc3","JOL","BlockProc1","Choice - ?",57,"decision","recallproc1","recall"
"IS_JOL A",29,1,3,"BlockProc1","Honey - Bee","S",58,70,10836,"StudyProc3","JOL","BlockProc1","Honey - ?",58,"bee","recallproc1","recall"
"IS_JOL A",29,1,3,"BlockProc1","Baby - Child","S",59,90,10770,"StudyProc3","JOL","BlockProc1","Baby - ?",59,"child","recallproc1","recall"
"IS_JOL A",29,1,3,"BlockProc1","Circle - Round","S",60,75,10610,"StudyProc3","JOL","BlockProc1","Circle - ?",60,"round","recallproc1","recall"
"IS_JOL A",29,1,3,"BlockProc1","Pusher - Clutter","U",61,70,9521,"StudyProc3","JOL","BlockProc1","Pusher - ?",61,"","recallproc1","recall"
"IS_JOL A",29,1,3,"BlockProc1","Dietary - Slacking","U",62,65,17506,"StudyProc3","JOL","BlockProc1","Dietary - ?",62,"","recallproc1","recall"
"IS_JOL A",29,1,3,"BlockProc1","Park - Hungry","U",63,90,7895,"StudyProc3","JOL","BlockProc1","Park - ?",63,"","recallproc1","recall"
"IS_JOL A",29,1,3,"BlockProc1","Lift - Woman","U",64,65,7337,"StudyProc3","JOL","BlockProc1","Lift - ?",64,"woman","recallproc1","recall"
"IS_JOL A",29,1,3,"BlockProc1","Soon - Belt","U",65,60,10009,"StudyProc3","JOL","BlockProc1","Soon - ?",65,"","recallproc1","recall"
"IS_JOL A",29,1,3,"BlockProc1","Discover - Floor","U",66,80,10613,"StudyProc3","JOL","BlockProc1","Discover - ?",66,"","recallproc1","recall"
"IS_JOL A",29,1,3,"BlockProc1","Death - Business","U",67,40,22127,"StudyProc3","JOL","BlockProc1","Death - ?",67,"","recallproc1","recall"
"IS_JOL A",29,1,3,"BlockProc1","Debate - Sight","U",68,90,6283,"StudyProc3","JOL","BlockProc1","Debate - ?",68,"","recallproc1","recall"
"IS_JOL A",29,1,3,"BlockProc1","Artery - Bronze","U",69,70,18867,"StudyProc3","JOL","BlockProc1","Artery - ?",69,"bronze","recallproc1","recall"
"IS_JOL A",29,1,3,"BlockProc1","Fix - Hand","U",70,60,9981,"StudyProc3","JOL","BlockProc1","Fix - ?",70,"","recallproc1","recall"
"IS_JOL A",29,1,3,"BlockProc1","Machine - Position","U",71,78,13336,"StudyProc3","JOL","BlockProc1","Machine - ?",71,"","recallproc1","recall"
"IS_JOL A",29,1,3,"BlockProc1","Happy - Car","U",72,70,5905,"StudyProc3","JOL","BlockProc1","Happy - ?",72,"","recallproc1","recall"
"IS_JOL A",29,1,3,"BlockProc1","Allow - Tuck","U",73,50,11101,"StudyProc3","JOL","BlockProc1","Allow - ?",73,"","recallproc1","recall"
"IS_JOL A",29,1,3,"BlockProc1","Art - Lion","U",74,90,13096,"StudyProc3","JOL","BlockProc1","Art - ?",74,"","recallproc1","recall"
"IS_JOL A",29,1,3,"BlockProc1","Strong - Accident","U",75,68,24837,"StudyProc3","JOL","BlockProc1","Strong - ?",75,"","recallproc1","recall"
"IS_JOL A",29,1,3,"BlockProc1","Sugar - Riddle","U",76,60,10191,"StudyProc3","JOL","BlockProc1","Sugar - ?",76,"","recallproc1","recall"
"IS_JOL A",29,1,3,"BlockProc1","Valley - Add","U",77,60,5595,"StudyProc3","JOL","BlockProc1","Valley - ?",77,"","recallproc1","recall"
"IS_JOL A",29,1,3,"BlockProc1","Cash - Would","U",78,67,7285,"StudyProc3","JOL","BlockProc1","Cash - ?",78,"wage","recallproc1","recall"
"IS_JOL A",29,1,3,"BlockProc1","Hide - Sick","U",79,80,12443,"StudyProc3","JOL","BlockProc1","Hide - ?",79,"","recallproc1","recall"
"IS_JOL A",29,1,3,"BlockProc1","King - Vase","U",80,90,17959,"StudyProc3","JOL","BlockProc1","King - ?",80,"","recallproc1","recall"
"RL_JOL A",33,1,3,"BlockProc1","Hornet - Sting","F",6,90,11173,"StudyProc7","JOL","BlockProc1","Hornet - ?",6,"Sting","recallproc1","recall"
"RL_JOL A",33,1,3,"BlockProc1","Bitter - Cold","F",7,70,10674,"StudyProc7","JOL","BlockProc1","Bitter - ?",7,"Sour","recallproc1","recall"
"RL_JOL A",33,1,3,"BlockProc1","Root - Plant","F",8,50,11757,"StudyProc7","JOL","BlockProc1","Root - ?",8,"Plant","recallproc1","recall"
"RL_JOL A",33,1,3,"BlockProc1","Swan - Bird","F",9,30,8968,"StudyProc7","JOL","BlockProc1","Swan - ?",9,"Bird","recallproc1","recall"
"RL_JOL A",33,1,3,"BlockProc1","Paw - Dog","F",10,30,8188,"StudyProc7","JOL","BlockProc1","Paw - ?",10,"Dog","recallproc1","recall"
"RL_JOL A",33,1,3,"BlockProc1","Way - Out","F",11,40,6576,"StudyProc7","JOL","BlockProc1","Way - ?",11,"Find","recallproc1","recall"
"RL_JOL A",33,1,3,"BlockProc1","Hygiene - Clean","F",12,50,10729,"StudyProc7","JOL","BlockProc1","Hygiene - ?",12,"Shower","recallproc1","recall"
"RL_JOL A",33,1,3,"BlockProc1","Bridge - Water","F",13,80,13932,"StudyProc7","JOL","BlockProc1","Bridge - ?",13,"Water","recallproc1","recall"
"RL_JOL A",33,1,3,"BlockProc1","Geology - Rock","F",14,70,8562,"StudyProc7","JOL","BlockProc1","Geology - ?",14,"Rock","recallproc1","recall"
"RL_JOL A",33,1,3,"BlockProc1","Revolution - War","F",15,70,7940,"StudyProc7","JOL","BlockProc1","Revolution - ?",15,"War","recallproc1","recall"
"RL_JOL A",33,1,3,"BlockProc1","Discussion - Talk","F",16,50,10094,"StudyProc7","JOL","BlockProc1","Discussion - ?",16,"Talk","recallproc1","recall"
"RL_JOL A",33,1,3,"BlockProc1","Herd - Cow","F",17,70,12144,"StudyProc7","JOL","BlockProc1","Herd - ?",17,"Cow","recallproc1","recall"
"RL_JOL A",33,1,3,"BlockProc1","Credit - Card","F",18,60,11457,"StudyProc7","JOL","BlockProc1","Credit - ?",18,"Card","recallproc1","recall"
"RL_JOL A",33,1,3,"BlockProc1","Orchid - Flower","F",19,60,9127,"StudyProc7","JOL","BlockProc1","Orchid - ?",19,"Flower","recallproc1","recall"
"RL_JOL A",33,1,3,"BlockProc1","Tuna - Fish","F",20,70,3796,"StudyProc7","JOL","BlockProc1","Tuna - ?",20,"Fish","recallproc1","recall"
"RL_JOL A",33,1,3,"BlockProc1","Full - Enough","B",21,50,11089,"StudyProc7","JOL","BlockProc1","Full - ?",21,"Enough","recallproc1","recall"
"RL_JOL A",33,1,3,"BlockProc1","Drink - Sip","B",22,30,8864,"StudyProc7","JOL","BlockProc1","Drink - ?",22,"Sip","recallproc1","recall"
"RL_JOL A",33,1,3,"BlockProc1","Dark - Cave","B",23,40,8810,"StudyProc7","JOL","BlockProc1","Dark - ?",23,"Room","recallproc1","recall"
"RL_JOL A",33,1,3,"BlockProc1","Take - Seize","B",24,50,14330,"StudyProc7","JOL","BlockProc1","Take - ?",24,"Grab","recallproc1","recall"
"RL_JOL A",33,1,3,"BlockProc1","Height - Growth","B",25,50,12246,"StudyProc7","JOL","BlockProc1","Height - ?",25,"Growth","recallproc1","recall"
"RL_JOL A",33,1,3,"BlockProc1","Sentence - Word","B",26,60,7860,"StudyProc7","JOL","BlockProc1","Sentence - ?",26,"Word","recallproc1","recall"
"RL_JOL A",33,1,3,"BlockProc1","Bug - Wasp","B",27,20,6425,"StudyProc7","JOL","BlockProc1","Bug - ?",27,"Hornet","recallproc1","recall"
"RL_JOL A",33,1,3,"BlockProc1","Math - Division","B",28,60,14649,"StudyProc7","JOL","BlockProc1","Math - ?",28,"Division","recallproc1","recall"
"RL_JOL A",33,1,3,"BlockProc1","Law - Attorney","B",29,40,6497,"StudyProc7","JOL","BlockProc1","Law - ?",29,"Jury","recallproc1","recall"
"RL_JOL A",33,1,3,"BlockProc1","Great - Fantastic","B",30,50,6915,"StudyProc7","JOL","BlockProc1","Great - ?",30,"Fantastic","recallproc1","recall"
"RL_JOL A",33,1,3,"BlockProc1","Key - Latch","B",31,40,10842,"StudyProc7","JOL","BlockProc1","Key - ?",31,"Latch","recallproc1","recall"
"RL_JOL A",33,1,3,"BlockProc1","Hot - Chili","B",32,40,8368,"StudyProc7","JOL","BlockProc1","Hot - ?",32,"Cold","recallproc1","recall"
"RL_JOL A",33,1,3,"BlockProc1","Ball - Racket","B",33,60,12490,"StudyProc7","JOL","BlockProc1","Ball - ?",33,"Racket","recallproc1","recall"
"RL_JOL A",33,1,3,"BlockProc1","Work - Chore","B",34,40,15894,"StudyProc7","JOL","BlockProc1","Work - ?",34,"Construction","recallproc1","recall"
"RL_JOL A",33,1,3,"BlockProc1","Hunger - Famine","B",35,60,17394,"StudyProc7","JOL","BlockProc1","Hunger - ?",35,"Strave","recallproc1","recall"
"RL_JOL A",33,1,3,"BlockProc1","Sleep - Drowsy","B",36,60,5408,"StudyProc7","JOL","BlockProc1","Sleep - ?",36,"Night","recallproc1","recall"
"RL_JOL A",33,1,3,"BlockProc1","Smell - Stench","B",37,50,12958,"StudyProc7","JOL","BlockProc1","Smell - ?",37,"Stench","recallproc1","recall"
"RL_JOL A",33,1,3,"BlockProc1","Clothes - Attire","B",38,40,9890,"StudyProc7","JOL","BlockProc1","Clothes - ?",38,"Atire","recallproc1","recall"
"RL_JOL A",33,1,3,"BlockProc1","Plane - Pilot","B",39,50,11175,"StudyProc7","JOL","BlockProc1","Plane - ?",39,"Down","recallproc1","recall"
"RL_JOL A",33,1,3,"BlockProc1","Fire - Blaze","B",40,60,8389,"StudyProc7","JOL","BlockProc1","Fire - ?",40,"Blaze","recallproc1","recall"
"RL_JOL A",33,1,3,"BlockProc1","Due - Assignment","S",41,80,12202,"StudyProc3","JOL","BlockProc1","Due - ?",41,"Assignment","recallproc1","recall"
"RL_JOL A",33,1,3,"BlockProc1","Number - Amount","S",42,80,13488,"StudyProc3","JOL","BlockProc1","Number - ?",42,"Money","recallproc1","recall"
"RL_JOL A",33,1,3,"BlockProc1","Location - Site","S",43,50,5602,"StudyProc3","JOL","BlockProc1","Location - ?",43,"Site","recallproc1","recall"
"RL_JOL A",33,1,3,"BlockProc1","Dump - Waste","S",44,50,12242,"StudyProc3","JOL","BlockProc1","Dump - ?",44,"Waste","recallproc1","recall"
"RL_JOL A",33,1,3,"BlockProc1","Trial - Jury","S",45,50,9127,"StudyProc3","JOL","BlockProc1","Trial - ?",45,"Jury","recallproc1","recall"
"RL_JOL A",33,1,3,"BlockProc1","Architecture - Design","S",46,70,11405,"StudyProc3","JOL","BlockProc1","Architecture - ?",46,"Art","recallproc1","recall"
"RL_JOL A",33,1,3,"BlockProc1","Grill - Bar","S",47,50,13021,"StudyProc3","JOL","BlockProc1","Grill - ?",47,"Bar","recallproc1","recall"
"RL_JOL A",33,1,3,"BlockProc1","Kidney - Liver","S",48,0,8233,"StudyProc3","JOL","BlockProc1","Kidney - ?",48,"Liver","recallproc1","recall"
"RL_JOL A",33,1,3,"BlockProc1","Begin - End","S",49,60,7898,"StudyProc3","JOL","BlockProc1","Begin - ?",49,"End","recallproc1","recall"
"RL_JOL A",33,1,3,"BlockProc1","Blow - Wind","S",50,70,8959,"StudyProc3","JOL","BlockProc1","Blow - ?",50,"Wind","recallproc1","recall"
"RL_JOL A",33,1,3,"BlockProc1","Pop - Soda","S",51,60,6287,"StudyProc3","JOL","BlockProc1","Pop - ?",51,"Soda","recallproc1","recall"
"RL_JOL A",33,1,3,"BlockProc1","Wine - Cheese","S",52,80,10719,"StudyProc3","JOL","BlockProc1","Wine - ?",52,"Cheese","recallproc1","recall"
"RL_JOL A",33,1,3,"BlockProc1","Bathroom - Toilet","S",53,50,8065,"StudyProc3","JOL","BlockProc1","Bathroom - ?",53,"Toliet","recallproc1","recall"
"RL_JOL A",33,1,3,"BlockProc1","Lettuce - Salad","S",54,40,9296,"StudyProc3","JOL","BlockProc1","Lettuce - ?",54,"Salad","recallproc1","recall"
"RL_JOL A",33,1,3,"BlockProc1","Shoe - Foot","S",55,40,8703,"StudyProc3","JOL","BlockProc1","Shoe - ?",55,"Foot","recallproc1","recall"
"RL_JOL A",33,1,3,"BlockProc1","Past - Future","S",56,70,7008,"StudyProc3","JOL","BlockProc1","Past - ?",56,"Present","recallproc1","recall"
"RL_JOL A",33,1,3,"BlockProc1","Choice - Decision","S",57,40,20718,"StudyProc3","JOL","BlockProc1","Choice - ?",57,"Desicion","recallproc1","recall"
"RL_JOL A",33,1,3,"BlockProc1","Honey - Bee","S",58,70,13212,"StudyProc3","JOL","BlockProc1","Honey - ?",58,"Bee","recallproc1","recall"
"RL_JOL A",33,1,3,"BlockProc1","Baby - Child","S",59,40,7817,"StudyProc3","JOL","BlockProc1","Baby - ?",59,"Child","recallproc1","recall"
"RL_JOL A",33,1,3,"BlockProc1","Circle - Round","S",60,40,9804,"StudyProc3","JOL","BlockProc1","Circle - ?",60,"Round","recallproc1","recall"
"RL_JOL A",33,1,3,"BlockProc1","Pusher - Clutter","U",61,40,9676,"StudyProc3","JOL","BlockProc1","Pusher - ?",61,"Strenght","recallproc1","recall"
"RL_JOL A",33,1,3,"BlockProc1","Dietary - Slacking","U",62,40,13109,"StudyProc3","JOL","BlockProc1","Dietary - ?",62,"Bad","recallproc1","recall"
"RL_JOL A",33,1,3,"BlockProc1","Park - Hungry","U",63,50,6409,"StudyProc3","JOL","BlockProc1","Park - ?",63,"Day","recallproc1","recall"
"RL_JOL A",33,1,3,"BlockProc1","Lift - Woman","U",64,50,17735,"StudyProc3","JOL","BlockProc1","Lift - ?",64,"Pull","recallproc1","recall"
"RL_JOL A",33,1,3,"BlockProc1","Soon - Belt","U",65,80,28312,"StudyProc3","JOL","BlockProc1","Soon - ?",65,"Coming","recallproc1","recall"
"RL_JOL A",33,1,3,"BlockProc1","Discover - Floor","U",66,40,10271,"StudyProc3","JOL","BlockProc1","Discover - ?",66,"Find","recallproc1","recall"
"RL_JOL A",33,1,3,"BlockProc1","Death - Business","U",67,80,11119,"StudyProc3","JOL","BlockProc1","Death - ?",67,"Business","recallproc1","recall"
"RL_JOL A",33,1,3,"BlockProc1","Debate - Sight","U",68,30,9429,"StudyProc3","JOL","BlockProc1","Debate - ?",68,"Law","recallproc1","recall"
"RL_JOL A",33,1,3,"BlockProc1","Artery - Bronze","U",69,80,9409,"StudyProc3","JOL","BlockProc1","Artery - ?",69,"Art","recallproc1","recall"
"RL_JOL A",33,1,3,"BlockProc1","Fix - Hand","U",70,40,7999,"StudyProc3","JOL","BlockProc1","Fix - ?",70,"Work","recallproc1","recall"
"RL_JOL A",33,1,3,"BlockProc1","Machine - Position","U",71,20,10736,"StudyProc3","JOL","BlockProc1","Machine - ?",71,"Location","recallproc1","recall"
"RL_JOL A",33,1,3,"BlockProc1","Happy - Car","U",72,50,4486,"StudyProc3","JOL","BlockProc1","Happy - ?",72,"Fantastic","recallproc1","recall"
"RL_JOL A",33,1,3,"BlockProc1","Allow - Tuck","U",73,0,12059,"StudyProc3","JOL","BlockProc1","Allow - ?",73,"Accept","recallproc1","recall"
"RL_JOL A",33,1,3,"BlockProc1","Art - Lion","U",74,50,9230,"StudyProc3","JOL","BlockProc1","Art - ?",74,"Lion","recallproc1","recall"
"RL_JOL A",33,1,3,"BlockProc1","Strong - Accident","U",75,60,6233,"StudyProc3","JOL","BlockProc1","Strong - ?",75,"Weak","recallproc1","recall"
"RL_JOL A",33,1,3,"BlockProc1","Sugar - Riddle","U",76,70,20773,"StudyProc3","JOL","BlockProc1","Sugar - ?",76,"Mix","recallproc1","recall"
"RL_JOL A",33,1,3,"BlockProc1","Valley - Add","U",77,100,16289,"StudyProc3","JOL","BlockProc1","Valley - ?",77,"Add","recallproc1","recall"
"RL_JOL A",33,1,3,"BlockProc1","Cash - Would","U",78,50,7828,"StudyProc3","JOL","BlockProc1","Cash - ?",78,"Shift","recallproc1","recall"
"RL_JOL A",33,1,3,"BlockProc1","Hide - Sick","U",79,60,11630,"StudyProc3","JOL","BlockProc1","Hide - ?",79,"Sick","recallproc1","recall"
"RL_JOL A",33,1,3,"BlockProc1","King - Vase","U",80,40,8259,"StudyProc3","JOL","BlockProc1","King - ?",80,"Vase","recallproc1","recall"
"READ_JOL A",37,1,3,"BlockProc1","Hornet - Sting","F",6,100,3672,"StudyProc7","JOL","BlockProc1","Hornet - ?",6,"sting","recallproc1","recall"
"READ_JOL A",37,1,3,"BlockProc1","Bitter - Cold","F",7,75,5587,"StudyProc7","JOL","BlockProc1","Bitter - ?",7,"cold","recallproc1","recall"
"READ_JOL A",37,1,3,"BlockProc1","Root - Plant","F",8,100,7966,"StudyProc7","JOL","BlockProc1","Root - ?",8,"beer","recallproc1","recall"
"READ_JOL A",37,1,3,"BlockProc1","Swan - Bird","F",9,100,3124,"StudyProc7","JOL","BlockProc1","Swan - ?",9,"bird","recallproc1","recall"
"READ_JOL A",37,1,3,"BlockProc1","Paw - Dog","F",10,100,2981,"StudyProc7","JOL","BlockProc1","Paw - ?",10,"dog","recallproc1","recall"
"READ_JOL A",37,1,3,"BlockProc1","Way - Out","F",11,100,4762,"StudyProc7","JOL","BlockProc1","Way - ?",11,"out","recallproc1","recall"
"READ_JOL A",37,1,3,"BlockProc1","Hygiene - Clean","F",12,100,4220,"StudyProc7","JOL","BlockProc1","Hygiene - ?",12,"clean","recallproc1","recall"
"READ_JOL A",37,1,3,"BlockProc1","Bridge - Water","F",13,95,7391,"StudyProc7","JOL","BlockProc1","Bridge - ?",13,"water","recallproc1","recall"
"READ_JOL A",37,1,3,"BlockProc1","Geology - Rock","F",14,100,5491,"StudyProc7","JOL","BlockProc1","Geology - ?",14,"rock","recallproc1","recall"
"READ_JOL A",37,1,3,"BlockProc1","Revolution - War","F",15,100,3151,"StudyProc7","JOL","BlockProc1","Revolution - ?",15,"war","recallproc1","recall"
"READ_JOL A",37,1,3,"BlockProc1","Discussion - Talk","F",16,100,2734,"StudyProc7","JOL","BlockProc1","Discussion - ?",16,"class","recallproc1","recall"
"READ_JOL A",37,1,3,"BlockProc1","Herd - Cow","F",17,90,3399,"StudyProc7","JOL","BlockProc1","Herd - ?",17,"cow","recallproc1","recall"
"READ_JOL A",37,1,3,"BlockProc1","Credit - Card","F",18,100,4328,"StudyProc7","JOL","BlockProc1","Credit - ?",18,"card","recallproc1","recall"
"READ_JOL A",37,1,3,"BlockProc1","Orchid - Flower","F",19,90,4201,"StudyProc7","JOL","BlockProc1","Orchid - ?",19,"flower","recallproc1","recall"
"READ_JOL A",37,1,3,"BlockProc1","Tuna - Fish","F",20,0,4931,"StudyProc7","JOL","BlockProc1","Tuna - ?",20,"fish","recallproc1","recall"
"READ_JOL A",37,1,3,"BlockProc1","Full - Enough","B",21,50,5262,"StudyProc7","JOL","BlockProc1","Full - ?",21,"enough","recallproc1","recall"
"READ_JOL A",37,1,3,"BlockProc1","Drink - Sip","B",22,95,4254,"StudyProc7","JOL","BlockProc1","Drink - ?",22,"thirst","recallproc1","recall"
"READ_JOL A",37,1,3,"BlockProc1","Dark - Cave","B",23,100,2621,"StudyProc7","JOL","BlockProc1","Dark - ?",23,"cave","recallproc1","recall"
"READ_JOL A",37,1,3,"BlockProc1","Take - Seize","B",24,80,5001,"StudyProc7","JOL","BlockProc1","Take - ?",24,"grab","recallproc1","recall"
"READ_JOL A",37,1,3,"BlockProc1","Height - Growth","B",25,100,4379,"StudyProc7","JOL","BlockProc1","Height - ?",25,"growth","recallproc1","recall"
"READ_JOL A",37,1,3,"BlockProc1","Sentence - Word","B",26,95,6245,"StudyProc7","JOL","BlockProc1","Sentence - ?",26,"word","recallproc1","recall"
"READ_JOL A",37,1,3,"BlockProc1","Bug - Wasp","B",27,80,4761,"StudyProc7","JOL","BlockProc1","Bug - ?",27,"wasp","recallproc1","recall"
"READ_JOL A",37,1,3,"BlockProc1","Math - Division","B",28,100,2512,"StudyProc7","JOL","BlockProc1","Math - ?",28,"division","recallproc1","recall"
"READ_JOL A",37,1,3,"BlockProc1","Law - Attorney","B",29,100,4820,"StudyProc7","JOL","BlockProc1","Law - ?",29,"attorney","recallproc1","recall"
"READ_JOL A",37,1,3,"BlockProc1","Great - Fantastic","B",30,100,2816,"StudyProc7","JOL","BlockProc1","Great - ?",30,"fantastic","recallproc1","recall"
"READ_JOL A",37,1,3,"BlockProc1","Key - Latch","B",31,95,6965,"StudyProc7","JOL","BlockProc1","Key - ?",31,"latch","recallproc1","recall"
"READ_JOL A",37,1,3,"BlockProc1","Hot - Chili","B",32,100,3631,"StudyProc7","JOL","BlockProc1","Hot - ?",32,"dog","recallproc1","recall"
"READ_JOL A",37,1,3,"BlockProc1","Ball - Racket","B",33,100,3276,"StudyProc7","JOL","BlockProc1","Ball - ?",33,"basket","recallproc1","recall"
"READ_JOL A",37,1,3,"BlockProc1","Work - Chore","B",34,95,5327,"StudyProc7","JOL","BlockProc1","Work - ?",34,"hard","recallproc1","recall"
"READ_JOL A",37,1,3,"BlockProc1","Hunger - Famine","B",35,95,5324,"StudyProc7","JOL","BlockProc1","Hunger - ?",35,"famine","recallproc1","recall"
"READ_JOL A",37,1,3,"BlockProc1","Sleep - Drowsy","B",36,95,5037,"StudyProc7","JOL","BlockProc1","Sleep - ?",36,"drowsy","recallproc1","recall"
"READ_JOL A",37,1,3,"BlockProc1","Smell - Stench","B",37,100,2848,"StudyProc7","JOL","BlockProc1","Smell - ?",37,"scent","recallproc1","recall"
"READ_JOL A",37,1,3,"BlockProc1","Clothes - Attire","B",38,95,3261,"StudyProc7","JOL","BlockProc1","Clothes - ?",38,"attire","recallproc1","recall"
"READ_JOL A",37,1,3,"BlockProc1","Plane - Pilot","B",39,100,3757,"StudyProc7","JOL","BlockProc1","Plane - ?",39,"fly","recallproc1","recall"
"READ_JOL A",37,1,3,"BlockProc1","Fire - Blaze","B",40,8,9375,"StudyProc7","JOL","BlockProc1","Fire - ?",40,"blaze","recallproc1","recall"
"READ_JOL A",37,1,3,"BlockProc1","Due - Assignment","S",41,100,3086,"StudyProc3","JOL","BlockProc1","Due - ?",41,"assignment","recallproc1","recall"
"READ_JOL A",37,1,3,"BlockProc1","Number - Amount","S",42,100,4320,"StudyProc3","JOL","BlockProc1","Number - ?",42,"order","recallproc1","recall"
"READ_JOL A",37,1,3,"BlockProc1","Location - Site","S",43,90,3850,"StudyProc3","JOL","BlockProc1","Location - ?",43,"site","recallproc1","recall"
"READ_JOL A",37,1,3,"BlockProc1","Dump - Waste","S",44,100,2438,"StudyProc3","JOL","BlockProc1","Dump - ?",44,"waste","recallproc1","recall"
"READ_JOL A",37,1,3,"BlockProc1","Trial - Jury","S",45,100,3867,"StudyProc3","JOL","BlockProc1","Trial - ?",45,"attorney","recallproc1","recall"
"READ_JOL A",37,1,3,"BlockProc1","Architecture - Design","S",46,100,3636,"StudyProc3","JOL","BlockProc1","Architecture - ?",46,"design","recallproc1","recall"
"READ_JOL A",37,1,3,"BlockProc1","Grill - Bar","S",47,100,2757,"StudyProc3","JOL","BlockProc1","Grill - ?",47,"bar","recallproc1","recall"
"READ_JOL A",37,1,3,"BlockProc1","Kidney - Liver","S",48,80,4351,"StudyProc3","JOL","BlockProc1","Kidney - ?",48,"liver","recallproc1","recall"
"READ_JOL A",37,1,3,"BlockProc1","Begin - End","S",49,100,2726,"StudyProc3","JOL","BlockProc1","Begin - ?",49,"end","recallproc1","recall"
"READ_JOL A",37,1,3,"BlockProc1","Blow - Wind","S",50,95,6222,"StudyProc3","JOL","BlockProc1","Blow - ?",50,"wind","recallproc1","recall"
"READ_JOL A",37,1,3,"BlockProc1","Pop - Soda","S",51,100,3209,"StudyProc3","JOL","BlockProc1","Pop - ?",51,"soda","recallproc1","recall"
"READ_JOL A",37,1,3,"BlockProc1","Wine - Cheese","S",52,100,2792,"StudyProc3","JOL","BlockProc1","Wine - ?",52,"cheese","recallproc1","recall"
"READ_JOL A",37,1,3,"BlockProc1","Bathroom - Toilet","S",53,90,5147,"StudyProc3","JOL","BlockProc1","Bathroom - ?",53,"toilet","recallproc1","recall"
"READ_JOL A",37,1,3,"BlockProc1","Lettuce - Salad","S",54,100,5173,"StudyProc3","JOL","BlockProc1","Lettuce - ?",54,"salas","recallproc1","recall"
"READ_JOL A",37,1,3,"BlockProc1","Shoe - Foot","S",55,100,4311,"StudyProc3","JOL","BlockProc1","Shoe - ?",55,"foot","recallproc1","recall"
"READ_JOL A",37,1,3,"BlockProc1","Past - Future","S",56,100,2321,"StudyProc3","JOL","BlockProc1","Past - ?",56,"future","recallproc1","recall"
"READ_JOL A",37,1,3,"BlockProc1","Choice - Decision","S",57,100,5256,"StudyProc3","JOL","BlockProc1","Choice - ?",57,"option","recallproc1","recall"
"READ_JOL A",37,1,3,"BlockProc1","Honey - Bee","S",58,100,3054,"StudyProc3","JOL","BlockProc1","Honey - ?",58,"bee","recallproc1","recall"
"READ_JOL A",37,1,3,"BlockProc1","Baby - Child","S",59,100,2247,"StudyProc3","JOL","BlockProc1","Baby - ?",59,"cute","recallproc1","recall"
"READ_JOL A",37,1,3,"BlockProc1","Circle - Round","S",60,100,3564,"StudyProc3","JOL","BlockProc1","Circle - ?",60,"round","recallproc1","recall"
"READ_JOL A",37,1,3,"BlockProc1","Pusher - Clutter","U",61,1,3762,"StudyProc3","JOL","BlockProc1","Pusher - ?",61,"take","recallproc1","recall"
"READ_JOL A",37,1,3,"BlockProc1","Dietary - Slacking","U",62,20,4242,"StudyProc3","JOL","BlockProc1","Dietary - ?",62,"supplement","recallproc1","recall"
"READ_JOL A",37,1,3,"BlockProc1","Park - Hungry","U",63,50,3204,"StudyProc3","JOL","BlockProc1","Park - ?",63,"child","recallproc1","recall"
"READ_JOL A",37,1,3,"BlockProc1","Lift - Woman","U",64,10,6129,"StudyProc3","JOL","BlockProc1","Lift - ?",64,"woman","recallproc1","recall"
"READ_JOL A",37,1,3,"BlockProc1","Soon - Belt","U",65,1,3661,"StudyProc3","JOL","BlockProc1","Soon - ?",65,"later","recallproc1","recall"
"READ_JOL A",37,1,3,"BlockProc1","Discover - Floor","U",66,20,4653,"StudyProc3","JOL","BlockProc1","Discover - ?",66,"hand","recallproc1","recall"
"READ_JOL A",37,1,3,"BlockProc1","Death - Business","U",67,2,3882,"StudyProc3","JOL","BlockProc1","Death - ?",67,"law","recallproc1","recall"
"READ_JOL A",37,1,3,"BlockProc1","Debate - Sight","U",68,20,4606,"StudyProc3","JOL","BlockProc1","Debate - ?",68,"speech","recallproc1","recall"
"READ_JOL A",37,1,3,"BlockProc1","Artery - Bronze","U",69,1,5310,"StudyProc3","JOL","BlockProc1","Artery - ?",69,"vein","recallproc1","recall"
"READ_JOL A",37,1,3,"BlockProc1","Fix - Hand","U",70,35,5160,"StudyProc3","JOL","BlockProc1","Fix - ?",70,"hand","recallproc1","recall"
"READ_JOL A",37,1,3,"BlockProc1","Machine - Position","U",71,10,5055,"StudyProc3","JOL","BlockProc1","Machine - ?",71,"work","recallproc1","recall"
"READ_JOL A",37,1,3,"BlockProc1","Happy - Car","U",72,1,4783,"StudyProc3","JOL","BlockProc1","Happy - ?",72,"excited","recallproc1","recall"
"READ_JOL A",37,1,3,"BlockProc1","Allow - Tuck","U",73,5,6640,"StudyProc3","JOL","BlockProc1","Allow - ?",73,"permit","recallproc1","recall"
"READ_JOL A",37,1,3,"BlockProc1","Art - Lion","U",74,10,6972,"StudyProc3","JOL","BlockProc1","Art - ?",74,"show","recallproc1","recall"
"READ_JOL A",37,1,3,"BlockProc1","Strong - Accident","U",75,20,4146,"StudyProc3","JOL","BlockProc1","Strong - ?",75,"weak","recallproc1","recall"
"READ_JOL A",37,1,3,"BlockProc1","Sugar - Riddle","U",76,1,2622,"StudyProc3","JOL","BlockProc1","Sugar - ?",76,"sweet","recallproc1","recall"
"READ_JOL A",37,1,3,"BlockProc1","Valley - Add","U",77,1,7836,"StudyProc3","JOL","BlockProc1","Valley - ?",77,"river","recallproc1","recall"
"READ_JOL A",37,1,3,"BlockProc1","Cash - Would","U",78,50,8403,"StudyProc3","JOL","BlockProc1","Cash - ?",78,"check","recallproc1","recall"
"READ_JOL A",37,1,3,"BlockProc1","Hide - Sick","U",79,80,7671,"StudyProc3","JOL","BlockProc1","Hide - ?",79,"sick","recallproc1","recall"
"READ_JOL A",37,1,3,"BlockProc1","King - Vase","U",80,10,3938,"StudyProc3","JOL","BlockProc1","King - ?",80,"vase","recallproc1","recall"
"IS_JOL A",5,2,3,"BlockProc2","Adjourn - End","F",6,NA,2695,"StudyProc5","JOL","BlockProc2","Adjourn - ?",6,"","recallproc2","recall"
"IS_JOL A",5,2,3,"BlockProc2","Furry - Dog","F",7,90,2780,"StudyProc5","JOL","BlockProc2","Furry - ?",7,"dog","recallproc2","recall"
"IS_JOL A",5,2,3,"BlockProc2","Litter - Trash","F",8,60,6112,"StudyProc5","JOL","BlockProc2","Litter - ?",8,"trash","recallproc2","recall"
"IS_JOL A",5,2,3,"BlockProc2","Cherry - Red","F",9,70,2667,"StudyProc5","JOL","BlockProc2","Cherry - ?",9,"red","recallproc2","recall"
"IS_JOL A",5,2,3,"BlockProc2","Scalp - Head","F",10,80,8370,"StudyProc5","JOL","BlockProc2","Scalp - ?",10,"head","recallproc2","recall"
"IS_JOL A",5,2,3,"BlockProc2","Driver - Car","F",11,100,3453,"StudyProc5","JOL","BlockProc2","Driver - ?",11,"car","recallproc2","recall"
"IS_JOL A",5,2,3,"BlockProc2","Chop - Cut","F",12,90,2449,"StudyProc5","JOL","BlockProc2","Chop - ?",12,"cut","recallproc2","recall"
"IS_JOL A",5,2,3,"BlockProc2","Mule - Donkey","F",13,80,2612,"StudyProc5","JOL","BlockProc2","Mule - ?",13,"donkey","recallproc2","recall"
"IS_JOL A",5,2,3,"BlockProc2","Document - Paper","F",14,50,3690,"StudyProc5","JOL","BlockProc2","Document - ?",14,"paper","recallproc2","recall"
"IS_JOL A",5,2,3,"BlockProc2","Incense - Smell","F",15,60,3108,"StudyProc5","JOL","BlockProc2","Incense - ?",15,"smell","recallproc2","recall"
"IS_JOL A",5,2,3,"BlockProc2","Dine - Eat","F",16,80,2565,"StudyProc5","JOL","BlockProc2","Dine - ?",16,"eat","recallproc2","recall"
"IS_JOL A",5,2,3,"BlockProc2","Shears - Scissors","F",17,40,2341,"StudyProc5","JOL","BlockProc2","Shears - ?",17,"scissors","recallproc2","recall"
"IS_JOL A",5,2,3,"BlockProc2","Feud - Fight","F",18,50,5528,"StudyProc5","JOL","BlockProc2","Feud - ?",18,"","recallproc2","recall"
"IS_JOL A",5,2,3,"BlockProc2","Chill - Cold","F",19,60,3542,"StudyProc5","JOL","BlockProc2","Chill - ?",19,"cold","recallproc2","recall"
"IS_JOL A",5,2,3,"BlockProc2","Affection - Love","F",20,80,2985,"StudyProc5","JOL","BlockProc2","Affection - ?",20,"","recallproc2","recall"
"IS_JOL A",5,2,3,"BlockProc2","Turn - Flip","B",21,30,8548,"StudyProc5","JOL","BlockProc2","Turn - ?",21,"","recallproc2","recall"
"IS_JOL A",5,2,3,"BlockProc2","Car - Windshield","B",22,60,2728,"StudyProc5","JOL","BlockProc2","Car - ?",22,"driver","recallproc2","recall"
"IS_JOL A",5,2,3,"BlockProc2","Bad - Villain","B",23,90,2147,"StudyProc5","JOL","BlockProc2","Bad - ?",23,"","recallproc2","recall"
"IS_JOL A",5,2,3,"BlockProc2","Bird - Penguin","B",24,50,2060,"StudyProc5","JOL","BlockProc2","Bird - ?",24,"","recallproc2","recall"
"IS_JOL A",5,2,3,"BlockProc2","Star - Actress","B",25,80,3738,"StudyProc5","JOL","BlockProc2","Star - ?",25,"","recallproc2","recall"
"IS_JOL A",5,2,3,"BlockProc2","Thread - Thimble","B",26,75,5837,"StudyProc5","JOL","BlockProc2","Thread - ?",26,"thimble","recallproc2","recall"
"IS_JOL A",5,2,3,"BlockProc2","Even - Revenge","B",27,70,4516,"StudyProc5","JOL","BlockProc2","Even - ?",27,"","recallproc2","recall"
"IS_JOL A",5,2,3,"BlockProc2","Pop - Balloon","B",28,70,2492,"StudyProc5","JOL","BlockProc2","Pop - ?",28,"","recallproc2","recall"
"IS_JOL A",5,2,3,"BlockProc2","Fruit - Strawberry","B",29,80,3761,"StudyProc5","JOL","BlockProc2","Fruit - ?",29,"strawberry","recallproc2","recall"
"IS_JOL A",5,2,3,"BlockProc2","Best - Favorite","B",30,30,6769,"StudyProc5","JOL","BlockProc2","Best - ?",30,"","recallproc2","recall"
"IS_JOL A",5,2,3,"BlockProc2","Cat - Panther","B",31,80,4399,"StudyProc5","JOL","BlockProc2","Cat - ?",31,"","recallproc2","recall"
"IS_JOL A",5,2,3,"BlockProc2","Glass - Breakable","B",32,70,5228,"StudyProc5","JOL","BlockProc2","Glass - ?",32,"breakale","recallproc2","recall"
"IS_JOL A",5,2,3,"BlockProc2","Dead - Coffin","B",33,80,1922,"StudyProc5","JOL","BlockProc2","Dead - ?",33,"coffin","recallproc2","recall"
"IS_JOL A",5,2,3,"BlockProc2","Plane - Aircraft","B",34,80,8585,"StudyProc5","JOL","BlockProc2","Plane - ?",34,"pilot","recallproc2","recall"
"IS_JOL A",5,2,3,"BlockProc2","Fish - Sardine","B",35,0,7763,"StudyProc5","JOL","BlockProc2","Fish - ?",35,"sardine","recallproc2","recall"
"IS_JOL A",5,2,3,"BlockProc2","Baseball - League","B",36,80,4240,"StudyProc5","JOL","BlockProc2","Baseball - ?",36,"league","recallproc2","recall"
"IS_JOL A",5,2,3,"BlockProc2","Money - Banker","B",37,70,3372,"StudyProc5","JOL","BlockProc2","Money - ?",37,"","recallproc2","recall"
"IS_JOL A",5,2,3,"BlockProc2","Honest - Truthful","B",38,9,2281,"StudyProc5","JOL","BlockProc2","Honest - ?",38,"","recallproc2","recall"
"IS_JOL A",5,2,3,"BlockProc2","Sleep - Nap","B",39,80,2258,"StudyProc5","JOL","BlockProc2","Sleep - ?",39,"","recallproc2","recall"
"IS_JOL A",5,2,3,"BlockProc2","Fight - Brawl","B",40,96,3048,"StudyProc5","JOL","BlockProc2","Fight - ?",40,"","recallproc2","recall"
