ExperimentName,Subject,Block,list,Procedure[Block],cue_target,Direction,ListNum,pword3.RESP,pword3.RT,pword5.RESP,pword5.RT,Rword1.RESP,Rword1.RT,Rword2.RESP,pword8.RESP,pword8.RT,pword9.RESP,pword9.RT,Procedure[Trial]
RL_JOL C,83.5,1,,BlockProc1,Behavior-Social,,9,,,,,,,,,,,,Practice1
RL_JOL C,83.5,1,,BlockProc1,Deaf-Mute,,2,,,,,,,,,,,,Practice1
RL_JOL C,83.5,1,,BlockProc1,Chime-Music,,8,,,,,,,,,,,,Practice1
RL_JOL C,83.5,1,,BlockProc1,Hinge-Swing,,5,,,,,,,,,,,,Practice1
RL_JOL C,83.5,1,,BlockProc1,Chocolate-Bar,,7,,,,,,,,,,,,Practice1
RL_JOL C,83.5,1,,BlockProc1,Fashion-Model,,10,,,,,,,,,,,,Practice1
RL_JOL C,83.5,1,,BlockProc1,Aardvark-Zoo,,1,,,,,,,,,,,,Practice1
RL_JOL C,83.5,1,,BlockProc1,Ham-Bone,,3,,,,,,,,,,,,Practice1
RL_JOL C,83.5,1,,BlockProc1,Disbelieve-Skeptic,,6,,,,,,,,,,,,Practice1
RL_JOL C,83.5,1,,BlockProc1,Paddle-Row,,4,,,,,,,,,,,,Practice1
RL_JOL C,83.5,1,3,BlockProc1,Shrimp - Fish,,4,,,,,,,,,,,,StudyProc1
RL_JOL C,83.5,1,3,BlockProc1,Snow - Ice,,3,,,,,,,,,,,,StudyProc1
RL_JOL C,83.5,1,3,BlockProc1,Member - Group,,5,,,,,,,,,,,,StudyProc1
RL_JOL C,83.5,1,3,BlockProc1,Curtain - Drapes,,2,,,,,,,,,,,,StudyProc1
RL_JOL C,83.5,1,3,BlockProc1,Haircut-Scissors,,1,,,,,,,,,,,,StudyProc1
RL_JOL C,83.5,1,3,BlockProc1,Waste - Dump,S,44,50,12597,,,,,,,,,,StudyProc3
RL_JOL C,83.5,1,3,BlockProc1,Belt - Soon,U,65,0,17043,,,,,,,,,,StudyProc3
RL_JOL C,83.5,1,3,BlockProc1,Bar - Grill,S,47,50,8104,,,,,,,,,,StudyProc3
RL_JOL C,83.5,1,3,BlockProc1,Business - Death,U,67,10,6146,,,,,,,,,,StudyProc3
RL_JOL C,83.5,1,3,BlockProc1,Toilet - Bathroom,S,53,688,7411,,,,,,,,,,StudyProc3
RL_JOL C,83.5,1,3,BlockProc1,Liver - Kidney,S,48,0,23457,,,,,,,,,,StudyProc3
RL_JOL C,83.5,1,3,BlockProc1,Bee - Honey,S,58,78,6196,,,,,,,,,,StudyProc3
RL_JOL C,83.5,1,3,BlockProc1,Sacking -Dietary,U,62,15,6907,,,,,,,,,,StudyProc3
RL_JOL C,83.5,1,3,BlockProc1,Design - Architecture,S,46,50,11613,,,,,,,,,,StudyProc3
RL_JOL C,83.5,1,3,BlockProc1,Jury - Trial,S,45,65,7075,,,,,,,,,,StudyProc3
RL_JOL C,83.5,1,3,BlockProc1,Sick - Hide,U,79,25,7790,,,,,,,,,,StudyProc3
RL_JOL C,83.5,1,3,BlockProc1,Future - Past,S,56,90,6917,,,,,,,,,,StudyProc3
RL_JOL C,83.5,1,3,BlockProc1,Site - Location,S,43,65,8471,,,,,,,,,,StudyProc3
RL_JOL C,83.5,1,3,BlockProc1,Decision - Choise,S,57,50,22907,,,,,,,,,,StudyProc3
RL_JOL C,83.5,1,3,BlockProc1,Car - Happy,U,72,50,14748,,,,,,,,,,StudyProc3
RL_JOL C,83.5,1,3,BlockProc1,Vase - King,U,80,10,7020,,,,,,,,,,StudyProc3
RL_JOL C,83.5,1,3,BlockProc1,Cheese - Wine,S,52,50,6658,,,,,,,,,,StudyProc3
RL_JOL C,83.5,1,3,BlockProc1,Riddle - Sugar,U,76,17,24286,,,,,,,,,,StudyProc3
RL_JOL C,83.5,1,3,BlockProc1,Add - Valley,U,77,13,6176,,,,,,,,,,StudyProc3
RL_JOL C,83.5,1,3,BlockProc1,Assignment - Due,S,41,87,6247,,,,,,,,,,StudyProc3
RL_JOL C,83.5,1,3,BlockProc1,Foot - Shoe,S,55,80,6196,,,,,,,,,,StudyProc3
RL_JOL C,83.5,1,3,BlockProc1,Hungry - Park,U,63,90,7747,,,,,,,,,,StudyProc3
RL_JOL C,83.5,1,3,BlockProc1,Child - Baby,S,59,80,6436,,,,,,,,,,StudyProc3
RL_JOL C,83.5,1,3,BlockProc1,Bronze - Artery,U,69,0,21241,,,,,,,,,,StudyProc3
RL_JOL C,83.5,1,3,BlockProc1,Lion - Art,U,74,0,5829,,,,,,,,,,StudyProc3
RL_JOL C,83.5,1,3,BlockProc1,Amount - Number,S,42,50,7042,,,,,,,,,,StudyProc3
RL_JOL C,83.5,1,3,BlockProc1,Accident - Strong,U,75,10,5695,,,,,,,,,,StudyProc3
RL_JOL C,83.5,1,3,BlockProc1,Wind - Blow,S,50,64,6482,,,,,,,,,,StudyProc3
RL_JOL C,83.5,1,3,BlockProc1,Soda - Pop,S,51,90,6606,,,,,,,,,,StudyProc3
RL_JOL C,83.5,1,3,BlockProc1,Tuck - Allow,U,73,10,4612,,,,,,,,,,StudyProc3
RL_JOL C,83.5,1,3,BlockProc1,Position - Machine,U,71,11,5202,,,,,,,,,,StudyProc3
RL_JOL C,83.5,1,3,BlockProc1,Hand - Fix,U,70,90,4561,,,,,,,,,,StudyProc3
RL_JOL C,83.5,1,3,BlockProc1,End - Begin,S,49,25,13865,,,,,,,,,,StudyProc3
RL_JOL C,83.5,1,3,BlockProc1,Sight - Debate,U,68,14,5205,,,,,,,,,,StudyProc3
RL_JOL C,83.5,1,3,BlockProc1,Clutter - Pusher,U,61,12,6083.5,,,,,,,,,,StudyProc3
RL_JOL C,83.5,1,3,BlockProc1,Round - Circle,S,60,90,6551,,,,,,,,,,StudyProc3
RL_JOL C,83.5,1,3,BlockProc1,Woman - Lift,U,64,75,8744,,,,,,,,,,StudyProc3
RL_JOL C,83.5,1,3,BlockProc1,Floor - Discover,U,66,10,3496,,,,,,,,,,StudyProc3
RL_JOL C,83.5,1,3,BlockProc1,Salad - Lettuce,S,54,90,4444,,,,,,,,,,StudyProc3
RL_JOL C,83.5,1,3,BlockProc1,Would - Cash,U,78,10,4896,,,,,,,,,,StudyProc3
RL_JOL C,83.5,1,3,BlockProc1,Division - Math,B,28,,,,,,,,85,7040,,,StudyProc7
RL_JOL C,83.5,1,3,BlockProc1,Bird - Swan,F,9,,,,,,,,80,8733,,,StudyProc7
RL_JOL C,83.5,1,3,BlockProc1,Attire - Clothes,B,38,,,,,,,,75,7752,,,StudyProc7
RL_JOL C,83.5,1,3,BlockProc1,Drowsy - Sleep,B,36,,,,,,,,65,9023,,,StudyProc7
RL_JOL C,83.5,1,3,BlockProc1,Word - Sentence,B,26,,,,,,,,76,5884,,,StudyProc7
RL_JOL C,83.5,1,3,BlockProc1,Cow - Herd,F,17,,,,,,,,75,13399,,,StudyProc7
RL_JOL C,83.5,1,3,BlockProc1,Plant - Root,F,8,,,,,,,,65,8623,,,StudyProc7
RL_JOL C,83.5,1,3,BlockProc1,Sip - Drink,B,22,,,,,,,,90,3803,,,StudyProc7
RL_JOL C,83.5,1,3,BlockProc1,Chili - Hot,B,32,,,,,,,,85,4714,,,StudyProc7
RL_JOL C,83.5,1,3,BlockProc1,Attorney - Law,B,29,,,,,,,,90,6876,,,StudyProc7
RL_JOL C,83.5,1,3,BlockProc1,Seize - Take,B,24,,,,,,,,90,6639,,,StudyProc7
RL_JOL C,83.5,1,3,BlockProc1,Card - Credit,F,18,,,,,,,,75,6820,,,StudyProc7
RL_JOL C,83.5,1,3,BlockProc1,Blaze - Fire,B,40,,,,,,,,85,5858,,,StudyProc7
RL_JOL C,83.5,1,3,BlockProc1,Rock - Geology,F,14,,,,,,,,75,13510,,,StudyProc7
RL_JOL C,83.5,1,3,BlockProc1,Growth - Height,B,25,,,,,,,,75,5256,,,StudyProc7
RL_JOL C,83.5,1,3,BlockProc1,Out - Way,F,11,,,,,,,,10,6268,,,StudyProc7
RL_JOL C,83.5,1,3,BlockProc1,Water - Bridge,F,13,,,,,,,,89,5128,,,StudyProc7
RL_JOL C,83.5,1,3,BlockProc1,Cold - Bitter,F,7,,,,,,,,56,583.53,,,StudyProc7
RL_JOL C,83.5,1,3,BlockProc1,Cave - Dark,B,23,,,,,,,,90,3943,,,StudyProc7
RL_JOL C,83.5,1,3,BlockProc1,Wasp - Bug,B,27,,,,,,,,55,5136,,,StudyProc7
RL_JOL C,83.5,1,3,BlockProc1,Flower - Orchid,F,19,,,,,,,,76,7234,,,StudyProc7
RL_JOL C,83.5,1,3,BlockProc1,News - Editor,F,5,,,,,,,,65,9591,,,StudyProc7
RL_JOL C,83.5,1,3,BlockProc1,Fantastic - Great,B,30,,,,,,,,76,6397,,,StudyProc7
RL_JOL C,83.5,1,3,BlockProc1,Stomach - Digestion,F,2,,,,,,,,90,6636,,,StudyProc7
RL_JOL C,83.5,1,3,BlockProc1,Chore - Work,B,34,,,,,,,,65,4089,,,StudyProc7
RL_JOL C,83.5,1,3,BlockProc1,Money - Wage,F,3,,,,,,,,88,7500,,,StudyProc7
RL_JOL C,83.5,1,3,BlockProc1,Hammer - Chisel,F,4,,,,,,,,89,5407,,,StudyProc7
RL_JOL C,83.5,1,3,BlockProc1,Talk - Discussion,F,16,,,,,,,,65,5397,,,StudyProc7
RL_JOL C,83.5,1,3,BlockProc1,Stench - Smell,B,37,,,,,,,,78,7156,,,StudyProc7
RL_JOL C,83.5,1,3,BlockProc1,War - Revolution,F,15,,,,,,,,76,6076,,,StudyProc7
RL_JOL C,83.5,1,3,BlockProc1,Racket - Ball,B,33,,,,,,,,54,4840,,,StudyProc7
RL_JOL C,83.5,1,3,BlockProc1,Latch - Key,B,31,,,,,,,,87,11325,,,StudyProc7
RL_JOL C,83.5,1,3,BlockProc1,Sting - Hornet,F,6,,,,,,,,90,4366,,,StudyProc7
RL_JOL C,83.5,1,3,BlockProc1,Fish - Tuna,F,20,,,,,,,,65,6303,,,StudyProc7
RL_JOL C,83.5,1,3,BlockProc1,Famine - Hunger,B,35,,,,,,,,65,8577,,,StudyProc7
RL_JOL C,83.5,1,3,BlockProc1,Pilot - Plane,B,39,,,,,,,,90,3672,,,StudyProc7
RL_JOL C,83.5,1,3,BlockProc1,Dog - Paw,F,10,,,,,,,,90,5860,,,StudyProc7
RL_JOL C,83.5,1,3,BlockProc1,Enough - Full,B,21,,,,,,,,87,8472,,,StudyProc7
RL_JOL C,83.5,1,3,BlockProc1,Bad - Delinquent,F,1,,,,,,,,90,5868,,,StudyProc7
RL_JOL C,83.5,1,3,BlockProc1,Clean - Hygiene,F,12,,,,,,,,76,783.59,,,StudyProc7
RL_JOL C,83.5,1,3,BlockProc1,Grab - Take,,2,,,,,,,,,,,,StudyProc2
RL_JOL C,83.5,1,3,BlockProc1,Geese - Goose,,1,,,,,,,,,,,,StudyProc2
RL_JOL C,83.5,1,3,BlockProc1,Catcher - Baseball,,4,,,,,,,,,,,,StudyProc2
RL_JOL C,83.5,1,3,BlockProc1,Trees - Green,,5,,,,,,,,,,,,StudyProc2
RL_JOL C,83.5,1,3,BlockProc1,Friendliness - Nice,,3,,,,,,,,,,,,StudyProc2
RL_JOL C,83.5,1,3,BlockProc1,Chore - ?,,34,,,,,work,3882,,,,,,recallproc1
RL_JOL C,83.5,1,3,BlockProc1,Would - ?,,78,,,,,do,7781,,,,,,recallproc1
RL_JOL C,83.5,1,3,BlockProc1,Stench - ?,,37,,,,,smell,2853,,,,,,recallproc1
RL_JOL C,83.5,1,3,BlockProc1,Racket - ?,,33,,,,,ball,2561,,,,,,recallproc1
RL_JOL C,83.5,1,3,BlockProc1,Business - ?,,67,,,,,job,4890,,,,,,recallproc1
RL_JOL C,83.5,1,3,BlockProc1,Jury - ?,,45,,,,,trial,3429,,,,,,recallproc1
RL_JOL C,83.5,1,3,BlockProc1,Bronze - ?,,69,,,,,brown,5851,,,,,,recallproc1
RL_JOL C,83.5,1,3,BlockProc1,Attire - ?,,38,,,,,work,4271,,,,,,recallproc1
RL_JOL C,83.5,1,3,BlockProc1,Floor - ?,,66,,,,,level,5514,,,,,,recallproc1
RL_JOL C,83.5,1,3,BlockProc1,Latch - ?,,31,,,,,key,2533,,,,,,recallproc1
RL_JOL C,83.5,1,3,BlockProc1,Money - ?,,3,,,,,wage,4023,,,,,,recallproc1
RL_JOL C,83.5,1,3,BlockProc1,Clean - ?,,12,,,,,hygiene,4484,,,,,,recallproc1
RL_JOL C,83.5,1,3,BlockProc1,Liver - ?,,48,,,,,kidney,2799,,,,,,recallproc1
RL_JOL C,83.5,1,3,BlockProc1,Round - ?,,60,,,,,circle,3039,,,,,,recallproc1
RL_JOL C,83.5,1,3,BlockProc1,Dog - ?,,10,,,,,cat,4996,,,,,,recallproc1
RL_JOL C,83.5,1,3,BlockProc1,Riddle - ?,,76,,,,,new,9539,,,,,,recallproc1
RL_JOL C,83.5,1,3,BlockProc1,Sip - ?,,22,,,,,drink,2715,,,,,,recallproc1
RL_JOL C,83.5,1,3,BlockProc1,Enough - ?,,21,,,,,full,3582,,,,,,recallproc1
RL_JOL C,83.5,1,3,BlockProc1,Design - ?,,46,,,,,fashion,7094,,,,,,recallproc1
RL_JOL C,83.5,1,3,BlockProc1,Decision - ?,,57,,,,,final,6825,,,,,,recallproc1
RL_JOL C,83.5,1,3,BlockProc1,Clutter - ?,,61,,,,,messy,4542,,,,,,recallproc1
RL_JOL C,83.5,1,3,BlockProc1,Bar - ?,,47,,,,,grill,2519,,,,,,recallproc1
RL_JOL C,83.5,1,3,BlockProc1,Flower - ?,,19,,,,,orchid,2729,,,,,,recallproc1
RL_JOL C,83.5,1,3,BlockProc1,Woman - ?,,64,,,,,lift,83.547,,,,,,recallproc1
RL_JOL C,83.5,1,3,BlockProc1,Wind - ?,,50,,,,,blow,2372,,,,,,recallproc1
RL_JOL C,83.5,1,3,BlockProc1,Bad - ?,,1,,,,,delinquit,11155,,,,,,recallproc1
RL_JOL C,83.5,1,3,BlockProc1,Bird - ?,,9,,,,,swan,3115,,,,,,recallproc1
RL_JOL C,83.5,1,3,BlockProc1,Rock - ?,,14,,,,,geology,6966,,,,,,recallproc1
RL_JOL C,83.5,1,3,BlockProc1,Accident - ?,,75,,,,,strong,3718,,,,,,recallproc1
RL_JOL C,83.5,1,3,BlockProc1,Sick - ?,,79,,,,,sad,5296,,,,,,recallproc1
RL_JOL C,83.5,1,3,BlockProc1,War - ?,,15,,,,,revolution,7123,,,,,,recallproc1
RL_JOL C,83.5,1,3,BlockProc1,Fantastic - ?,,30,,,,,great,2900,,,,,,recallproc1
RL_JOL C,83.5,1,3,BlockProc1,Hungry - ?,,63,,,,,mad,7647,,,,,,recallproc1
RL_JOL C,83.5,1,3,BlockProc1,Cheese - ?,,52,,,,,wine,2540,,,,,,recallproc1
RL_JOL C,83.5,1,3,BlockProc1,End - ?,,49,,,,,begin,3605,,,,,,recallproc1
RL_JOL C,83.5,1,3,BlockProc1,Add - ?,,77,,,,,substract,5364,,,,,,recallproc1
RL_JOL C,83.5,1,3,BlockProc1,Plant - ?,,8,,,,,root,2700,,,,,,recallproc1
RL_JOL C,83.5,1,3,BlockProc1,Child - ?,,59,,,,,children,5543,,,,,,recallproc1
RL_JOL C,83.5,1,3,BlockProc1,Cow - ?,,17,,,,,herd,2624,,,,,,recallproc1
RL_JOL C,83.5,1,3,BlockProc1,Famine - ?,,35,,,,,hunger,4534,,,,,,recallproc1
RL_JOL C,83.5,1,3,BlockProc1,Chili - ?,,32,,,,,hot,1928,,,,,,recallproc1
RL_JOL C,83.5,1,3,BlockProc1,Site - ?,,43,,,,,location,4370,,,,,,recallproc1
RL_JOL C,83.5,1,3,BlockProc1,Waste - ?,,44,,,,,dump,2545,,,,,,recallproc1
RL_JOL C,83.5,1,3,BlockProc1,Vase - ?,,80,,,,,flower,3322,,,,,,recallproc1
RL_JOL C,83.5,1,3,BlockProc1,Foot - ?,,55,,,,,shoe,2668,,,,,,recallproc1
RL_JOL C,83.5,1,3,BlockProc1,Position - ?,,71,,,,,level,2984,,,,,,recallproc1
RL_JOL C,83.5,1,3,BlockProc1,Cave - ?,,23,,,,,dark,2496,,,,,,recallproc1
RL_JOL C,83.5,1,3,BlockProc1,Water - ?,,13,,,,,thirsty,5443,,,,,,recallproc1
RL_JOL C,83.5,1,3,BlockProc1,Future - ?,,56,,,,,past,4304,,,,,,recallproc1
RL_JOL C,83.5,1,3,BlockProc1,Stomach - ?,,2,,,,,digestion,5418,,,,,,recallproc1
RL_JOL C,83.5,1,3,BlockProc1,Assignment - ?,,41,,,,,due,2400,,,,,,recallproc1
RL_JOL C,83.5,1,3,BlockProc1,Lion - ?,,74,,,,,cub,2623,,,,,,recallproc1
RL_JOL C,83.5,1,3,BlockProc1,Hammer - ?,,4,,,,,chisel,5045,,,,,,recallproc1
RL_JOL C,83.5,1,3,BlockProc1,Tuck - ?,,73,,,,,away,2626,,,,,,recallproc1
RL_JOL C,83.5,1,3,BlockProc1,Out - ?,,11,,,,,in,2288,,,,,,recallproc1
RL_JOL C,83.5,1,3,BlockProc1,Attorney - ?,,29,,,,,law,2691,,,,,,recallproc1
RL_JOL C,83.5,1,3,BlockProc1,Bee - ?,,58,,,,,honey,5150,,,,,,recallproc1
RL_JOL C,83.5,1,3,BlockProc1,Card - ?,,18,,,,,credit,3575,,,,,,recallproc1
RL_JOL C,83.5,1,3,BlockProc1,Cold - ?,,7,,,,,bitter,3167,,,,,,recallproc1
RL_JOL C,83.5,1,3,BlockProc1,Car - ?,,72,,,,,happy,3799,,,,,,recallproc1
RL_JOL C,83.5,1,3,BlockProc1,Blaze - ?,,40,,,,,fire,3502,,,,,,recallproc1
RL_JOL C,83.5,1,3,BlockProc1,Salad - ?,,54,,,,,lettuce,3193,,,,,,recallproc1
RL_JOL C,83.5,1,3,BlockProc1,Division - ?,,28,,,,,math,2136,,,,,,recallproc1
RL_JOL C,83.5,1,3,BlockProc1,Seize - ?,,24,,,,,stp,4129,,,,,,recallproc1
RL_JOL C,83.5,1,3,BlockProc1,Sacking - ?,,62,,,,,level,4747,,,,,,recallproc1
RL_JOL C,83.5,1,3,BlockProc1,Sight - ?,,68,,,,,look,2460,,,,,,recallproc1
RL_JOL C,83.5,1,3,BlockProc1,Sting - ?,,6,,,,,hornet,3096,,,,,,recallproc1
RL_JOL C,83.5,1,3,BlockProc1,News - ?,,5,,,,,editor,3676,,,,,,recallproc1
RL_JOL C,83.5,1,3,BlockProc1,Amount - ?,,42,,,,,money,3119,,,,,,recallproc1
RL_JOL C,83.5,1,3,BlockProc1,Growth - ?,,25,,,,,height,2681,,,,,,recallproc1
RL_JOL C,83.5,1,3,BlockProc1,Drowsy - ?,,36,,,,,sleep,2269,,,,,,recallproc1
RL_JOL C,83.5,1,3,BlockProc1,Belt - ?,,65,,,,,loose,2705,,,,,,recallproc1
RL_JOL C,83.5,1,3,BlockProc1,Word - ?,,26,,,,,puzzle,4387,,,,,,recallproc1
RL_JOL C,83.5,1,3,BlockProc1,Toilet - ?,,53,,,,,bathroom,483.54,,,,,,recallproc1
RL_JOL C,83.5,1,3,BlockProc1,Hand - ?,,70,,,,,work,9384,,,,,,recallproc1
RL_JOL C,83.5,1,3,BlockProc1,Soda - ?,,51,,,,,pop,2999,,,,,,recallproc1
RL_JOL C,83.5,1,3,BlockProc1,Fish - ?,,20,,,,,tuna,2414,,,,,,recallproc1
RL_JOL C,83.5,1,3,BlockProc1,Wasp - ?,,27,,,,,sting,2373,,,,,,recallproc1
RL_JOL C,83.5,1,3,BlockProc1,Talk - ?,,16,,,,,loud,3205,,,,,,recallproc1
RL_JOL C,83.5,1,3,BlockProc1,Pilot - ?,,39,,,,,plane,2275,,,,,,recallproc1
RL_JOL C,83.5,2,3,BlockProc2,Malt - Chocolate,,5,,,,,,,,,,,,StudyProc4
RL_JOL C,83.5,2,3,BlockProc2,Disintegrate - Disappear,,3,,,,,,,,,,,,StudyProc4
RL_JOL C,83.5,2,3,BlockProc2,Essay - Write,,4,,,,,,,,,,,,StudyProc4
RL_JOL C,83.5,2,3,BlockProc2,Sheriff - Police,,1,,,,,,,,,,,,StudyProc4
RL_JOL C,83.5,2,3,BlockProc2,Hide - Scare,,2,,,,,,,,,,,,StudyProc4
RL_JOL C,83.5,2,3,BlockProc2,Fiction - Listen,U,69,,,10,4774,,,,,,,,StudyProc5
RL_JOL C,83.5,2,3,BlockProc2,Charm - Vehicle,U,65,,,54,7062,,,,,,,,StudyProc5
RL_JOL C,83.5,2,3,BlockProc2,Tick - Flea,S,56,,,50,6258,,,,,,,,StudyProc5
RL_JOL C,83.5,2,3,BlockProc2,Tan - Sun,S,60,,,55,4446,,,,,,,,StudyProc5
RL_JOL C,83.5,2,3,BlockProc2,Drink - Water,S,48,,,89,4147,,,,,,,,StudyProc5
RL_JOL C,83.5,2,3,BlockProc2,Steak - Give,U,63,,,10,3924,,,,,,,,StudyProc5
RL_JOL C,83.5,2,3,BlockProc2,Shave - Razor,S,41,,,,94,,,,,,,,StudyProc5
RL_JOL C,83.5,2,3,BlockProc2,Maroon - Justice,U,61,,,0,7745,,,,,,,,StudyProc5
RL_JOL C,83.5,2,3,BlockProc2,Wet - Dry,S,51,,,89,7098,,,,,,,,StudyProc5
RL_JOL C,83.5,2,3,BlockProc2,Clothes - Cake,U,71,,,10,5693,,,,,,,,StudyProc5
RL_JOL C,83.5,2,3,BlockProc2,Obtain - Meat,U,66,,,15,5520,,,,,,,,StudyProc5
RL_JOL C,83.5,2,3,BlockProc2,Seatbelt - Safety,S,52,,,67,4210,,,,,,,,StudyProc5
RL_JOL C,83.5,2,3,BlockProc2,Communication - Phone,S,54,,,87,3880,,,,,,,,StudyProc5
RL_JOL C,83.5,2,3,BlockProc2,Cloth - Stretch,U,62,,,87,5108,,,,,,,,StudyProc5
RL_JOL C,83.5,2,3,BlockProc2,Carbon - Element,S,46,,,76,3614,,,,,,,,StudyProc5
RL_JOL C,83.5,2,3,BlockProc2,Have - Own,S,58,,,76,5005,,,,,,,,StudyProc5
RL_JOL C,83.5,2,3,BlockProc2,Wax - Candle,S,44,,,87,4739,,,,,,,,StudyProc5
RL_JOL C,83.5,2,3,BlockProc2,Hate - Name,U,72,,,25,4524,,,,,,,,StudyProc5
RL_JOL C,83.5,2,3,BlockProc2,Lie - Truth,S,53,,,87,6382,,,,,,,,StudyProc5
RL_JOL C,83.5,2,3,BlockProc2,Ounce - Both,U,77,,,26,4485,,,,,,,,StudyProc5
RL_JOL C,83.5,2,3,BlockProc2,Ground - Earth,S,49,,,76,5016,,,,,,,,StudyProc5
RL_JOL C,83.5,2,3,BlockProc2,Equal - Rights,S,42,,,87,8974,,,,,,,,StudyProc5
RL_JOL C,83.5,2,3,BlockProc2,Bracelet - Wrist,S,45,,,77,3733,,,,,,,,StudyProc5
RL_JOL C,83.5,2,3,BlockProc2,Election - Maze,U,64,,,20,3927,,,,,,,,StudyProc5
RL_JOL C,83.5,2,3,BlockProc2,Away - Gone,S,47,,,87,5673,,,,,,,,StudyProc5
RL_JOL C,83.5,2,3,BlockProc2,Shake - Shell,U,68,,,16,6756,,,,,,,,StudyProc5
RL_JOL C,83.5,2,3,BlockProc2,Joke - Keys,U,70,,,20,5093,,,,,,,,StudyProc5
RL_JOL C,83.5,2,3,BlockProc2,Sign - Loan,U,76,,,89,3872,,,,,,,,StudyProc5
RL_JOL C,83.5,2,3,BlockProc2,Scar - Main,U,80,,,16,4563,,,,,,,,StudyProc5
RL_JOL C,83.5,2,3,BlockProc2,Noise - Loud,S,57,,,65,6340,,,,,,,,StudyProc5
RL_JOL C,83.5,2,3,BlockProc2,Temper - Tantrum,S,59,,,65,7749,,,,,,,,StudyProc5
RL_JOL C,83.5,2,3,BlockProc2,Toil - Lease,U,75,,,25,5565,,,,,,,,StudyProc5
RL_JOL C,83.5,2,3,BlockProc2,Reel - Rod,S,55,,,20,5958,,,,,,,,StudyProc5
RL_JOL C,83.5,2,3,BlockProc2,Able - Crackle,U,67,,,76,6534,,,,,,,,StudyProc5
RL_JOL C,83.5,2,3,BlockProc2,Bang - Fuzzy,U,73,,,10,3991,,,,,,,,StudyProc5
RL_JOL C,83.5,2,3,BlockProc2,Clear - Moat,U,74,,,10,4415,,,,,,,,StudyProc5
RL_JOL C,83.5,2,3,BlockProc2,Morning - Temperature,U,78,,,65,8069,,,,,,,,StudyProc5
RL_JOL C,83.5,2,3,BlockProc2,Jar - Mason,S,43,,,89,4704,,,,,,,,StudyProc5
RL_JOL C,83.5,2,3,BlockProc2,Lonely - Alone,S,50,,,56,5482,,,,,,,,StudyProc5
RL_JOL C,83.5,2,3,BlockProc2,Children - Mirror,U,79,,,10,3701,,,,,,,,StudyProc5
RL_JOL C,83.5,2,3,BlockProc2,Scissors - Shears,B,17,,,,,,,,,,10,9246,StudyProc8
RL_JOL C,83.5,2,3,BlockProc2,Cold - Chill,B,19,,,,,,,,,,20,5554,StudyProc8
RL_JOL C,83.5,2,3,BlockProc2,Dog - Furry,B,7,,,,,,,,,,75,4450,StudyProc8
RL_JOL C,83.5,2,3,BlockProc2,Plant - Cactus,B,3,,,,,,,,,,76,3102,StudyProc8
RL_JOL C,83.5,2,3,BlockProc2,Flip - Turn,F,21,,,,,,,,,,66,5145,StudyProc8
RL_JOL C,83.5,2,3,BlockProc2,Donkey - Mule,B,13,,,,,,,,,,65,5699,StudyProc8
RL_JOL C,83.5,2,3,BlockProc2,End - Adjourn,B,6,,,,,,,,,,87,5422,StudyProc8
RL_JOL C,83.5,2,3,BlockProc2,Actress - Star,F,25,,,,,,,,,,90,6196,StudyProc8
RL_JOL C,83.5,2,3,BlockProc2,Villain - Bad,F,23,,,,,,,,,,65,3794,StudyProc8
RL_JOL C,83.5,2,3,BlockProc2,Balloon - Pop,F,28,,,,,,,,,,90,3506,StudyProc8
RL_JOL C,83.5,2,3,BlockProc2,Head - Scalp,B,10,,,,,,,,,,98,4348,StudyProc8
RL_JOL C,83.5,2,3,BlockProc2,Smell - Incense,B,15,,,,,,,,,,76,4324,StudyProc8
RL_JOL C,83.5,2,3,BlockProc2,Brawl - Fight,F,40,,,,,,,,,,67,6614,StudyProc8
RL_JOL C,83.5,2,3,BlockProc2,Windshield - Car,F,22,,,,,,,,,,89,2852,StudyProc8
RL_JOL C,83.5,2,3,BlockProc2,Red - Cherry,B,9,,,,,,,,,,65,3144,StudyProc8
RL_JOL C,83.5,2,3,BlockProc2,Strawberry - Fruit,F,29,,,,,,,,,,87,4986,StudyProc8
RL_JOL C,83.5,2,3,BlockProc2,Long - Extension,B,1,,,,,,,,,,87,7881,StudyProc8
RL_JOL C,83.5,2,3,BlockProc2,Nap - Sleep,F,39,,,,,,,,,,37,4308,StudyProc8
RL_JOL C,83.5,2,3,BlockProc2,Penguin - Bird,F,24,,,,,,,,,,65,4326,StudyProc8
RL_JOL C,83.5,2,3,BlockProc2,Sardine - Fish,F,35,,,,,,,,,,78,4200,StudyProc8
RL_JOL C,83.5,2,3,BlockProc2,Aircraft - Plane,F,34,,,,,,,,,,76,4815,StudyProc8
RL_JOL C,83.5,2,3,BlockProc2,Love - Affection,B,20,,,,,,,,,,76,4061,StudyProc8
RL_JOL C,83.5,2,3,BlockProc2,Coffin - Dead,F,33,,,,,,,,,,87,3329,StudyProc8
RL_JOL C,83.5,2,3,BlockProc2,League - Baseball,F,36,,,,,,,,,,76,9763,StudyProc8
RL_JOL C,83.5,2,3,BlockProc2,Fight - Feud,B,18,,,,,,,,,,78,6323,StudyProc8
RL_JOL C,83.5,2,3,BlockProc2,Eat - Dine,B,16,,,,,,,,,,54,3941,StudyProc8
RL_JOL C,83.5,2,3,BlockProc2,Tie - Shoelace,B,4,,,,,,,,,,87,3486,StudyProc8
RL_JOL C,83.5,2,3,BlockProc2,Revenge - Even,F,27,,,,,,,,,,76,4737,StudyProc8
RL_JOL C,83.5,2,3,BlockProc2,Cut - Chop,B,12,,,,,,,,,,76,6034,StudyProc8
RL_JOL C,83.5,2,3,BlockProc2,Paper - Document,B,14,,,,,,,,,,87,5647,StudyProc8
RL_JOL C,83.5,2,3,BlockProc2,Favorite - Best,F,30,,,,,,,,,,79,6988,StudyProc8
RL_JOL C,83.5,2,3,BlockProc2,Mystery - Detective,B,5,,,,,,,,,,98,5635,StudyProc8
RL_JOL C,83.5,2,3,BlockProc2,Breakable - Glass,F,32,,,,,,,,,,76,3288,StudyProc8
RL_JOL C,83.5,2,3,BlockProc2,Banker - Money,F,37,,,,,,,,,,88,4659,StudyProc8
RL_JOL C,83.5,2,3,BlockProc2,Thimble - Thread,F,26,,,,,,,,,,10,4791,StudyProc8
RL_JOL C,83.5,2,3,BlockProc2,Panther - Cat,F,31,,,,,,,,,,90,7342,StudyProc8
RL_JOL C,83.5,2,3,BlockProc2,Car - Driver,B,11,,,,,,,,,,65,4151,StudyProc8
RL_JOL C,83.5,2,3,BlockProc2,Game - Clue,B,2,,,,,,,,,,65,4271,StudyProc8
RL_JOL C,83.5,2,3,BlockProc2,Truthful - Honest,F,38,,,,,,,,,,54,5723,StudyProc8
RL_JOL C,83.5,2,3,BlockProc2,Trash - Litter,B,8,,,,,,,,,,89,4285,StudyProc8
RL_JOL C,83.5,2,3,BlockProc2,Deaf - Hear,,3,,,,,,,,,,,,StudyProc6
RL_JOL C,83.5,2,3,BlockProc2,Deciet - Cheat,,1,,,,,,,,,,,,StudyProc6
RL_JOL C,83.5,2,3,BlockProc2,Mind - Matter,,2,,,,,,,,,,,,StudyProc6
RL_JOL C,83.5,2,3,BlockProc2,Contest - Competition,,5,,,,,,,,,,,,StudyProc6
RL_JOL C,83.5,2,3,BlockProc2,Magician - Magic,,4,,,,,,,,,,,,StudyProc6
RL_JOL C,83.5,2,3,BlockProc2,Balloon - ?,,28,,,,,,,pop,,,,,recallproc2
RL_JOL C,83.5,2,3,BlockProc2,Shave - ?,,41,,,,,,,hair,,,,,recallproc2
RL_JOL C,83.5,2,3,BlockProc2,Shake - ?,,68,,,,,,,hand,,,,,recallproc2
RL_JOL C,83.5,2,3,BlockProc2,Aircraft - ?,,34,,,,,,,plane,,,,,recallproc2
RL_JOL C,83.5,2,3,BlockProc2,Scar - ?,,80,,,,,,,skin,,,,,recallproc2
RL_JOL C,83.5,2,3,BlockProc2,Scissors - ?,,17,,,,,,,cut,,,,,recallproc2
RL_JOL C,83.5,2,3,BlockProc2,Banker - ?,,37,,,,,,,money,,,,,recallproc2
RL_JOL C,83.5,2,3,BlockProc2,Smell - ?,,15,,,,,,,stench,,,,,recallproc2
RL_JOL C,83.5,2,3,BlockProc2,Panther - ?,,31,,,,,,,cat,,,,,recallproc2
RL_JOL C,83.5,2,3,BlockProc2,Car - ?,,11,,,,,,,windsheild,,,,,recallproc2
RL_JOL C,83.5,2,3,BlockProc2,Election - ?,,64,,,,,,,president,,,,,recallproc2
RL_JOL C,83.5,2,3,BlockProc2,Clear - ?,,74,,,,,,,mind,,,,,recallproc2
RL_JOL C,83.5,2,3,BlockProc2,Children - ?,,79,,,,,,,child,,,,,recallproc2
RL_JOL C,83.5,2,3,BlockProc2,Equal - ?,,42,,,,,,,amount,,,,,recallproc2
RL_JOL C,83.5,2,3,BlockProc2,Morning - ?,,78,,,,,,,weather,,,,,recallproc2
RL_JOL C,83.5,2,3,BlockProc2,Favorite - ?,,30,,,,,,,best,,,,,recallproc2
RL_JOL C,83.5,2,3,BlockProc2,Cold - ?,,19,,,,,,,drink,,,,,recallproc2
RL_JOL C,83.5,2,3,BlockProc2,Love - ?,,20,,,,,,,affection,,,,,recallproc2
RL_JOL C,83.5,2,3,BlockProc2,Donkey - ?,,13,,,,,,,mule,,,,,recallproc2
RL_JOL C,83.5,2,3,BlockProc2,Sardine - ?,,35,,,,,,,fish,,,,,recallproc2
RL_JOL C,83.5,2,3,BlockProc2,Jar - ?,,43,,,,,,,mason,,,,,recallproc2
RL_JOL C,83.5,2,3,BlockProc2,Carbon - ?,,46,,,,,,,element,,,,,recallproc2
RL_JOL C,83.5,2,3,BlockProc2,Temper - ?,,59,,,,,,,tantrum,,,,,recallproc2
RL_JOL C,83.5,2,3,BlockProc2,Nap - ?,,39,,,,,,,sleep,,,,,recallproc2
RL_JOL C,83.5,2,3,BlockProc2,Windshield - ?,,22,,,,,,,car,,,,,recallproc2
RL_JOL C,83.5,2,3,BlockProc2,Ground - ?,,49,,,,,,,earth,,,,,recallproc2
RL_JOL C,83.5,2,3,BlockProc2,Truthful - ?,,38,,,,,,,honest,,,,,recallproc2
RL_JOL C,83.5,2,3,BlockProc2,Fiction - ?,,69,,,,,,,story,,,,,recallproc2
RL_JOL C,83.5,2,3,BlockProc2,Tick - ?,,56,,,,,,,flea,,,,,recallproc2
RL_JOL C,83.5,2,3,BlockProc2,Penguin - ?,,24,,,,,,,bird,,,,,recallproc2
RL_JOL C,83.5,2,3,BlockProc2,Coffin - ?,,33,,,,,,,dead,,,,,recallproc2
RL_JOL C,83.5,2,3,BlockProc2,Seatbelt - ?,,52,,,,,,,safety,,,,,recallproc2
RL_JOL C,83.5,2,3,BlockProc2,Cloth - ?,,62,,,,,,,stretchy,,,,,recallproc2
RL_JOL C,83.5,2,3,BlockProc2,Wax - ?,,44,,,,,,,hair,,,,,recallproc2
RL_JOL C,83.5,2,3,BlockProc2,Clothes - ?,,71,,,,,,,shirt,,,,,recallproc2
RL_JOL C,83.5,2,3,BlockProc2,Able - ?,,67,,,,,,,willing,,,,,recallproc2
RL_JOL C,83.5,2,3,BlockProc2,Strawberry - ?,,29,,,,,,,fruit,,,,,recallproc2
RL_JOL C,83.5,2,3,BlockProc2,Paper - ?,,14,,,,,,,document,,,,,recallproc2
RL_JOL C,83.5,2,3,BlockProc2,Long - ?,,1,,,,,,,extension,,,,,recallproc2
RL_JOL C,83.5,2,3,BlockProc2,Reel - ?,,55,,,,,,,rod,,,,,recallproc2
RL_JOL C,83.5,2,3,BlockProc2,Trash - ?,,8,,,,,,,dump,,,,,recallproc2
RL_JOL C,83.5,2,3,BlockProc2,Cut - ?,,12,,,,,,,chp,,,,,recallproc2
RL_JOL C,83.5,2,3,BlockProc2,Lie - ?,,53,,,,,,,deceit,,,,,recallproc2
RL_JOL C,83.5,2,3,BlockProc2,Red - ?,,9,,,,,,,cherry,,,,,recallproc2
RL_JOL C,83.5,2,3,BlockProc2,Have - ?,,58,,,,,,,own,,,,,recallproc2
RL_JOL C,83.5,2,3,BlockProc2,League - ?,,36,,,,,,,baseball,,,,,recallproc2
RL_JOL C,83.5,2,3,BlockProc2,Actress - ?,,25,,,,,,,star,,,,,recallproc2
RL_JOL C,83.5,2,3,BlockProc2,Breakable - ?,,32,,,,,,,glass,,,,,recallproc2
RL_JOL C,83.5,2,3,BlockProc2,Flip - ?,,21,,,,,,,turn,,,,,recallproc2
RL_JOL C,83.5,2,3,BlockProc2,Wet - ?,,51,,,,,,,dry,,,,,recallproc2
RL_JOL C,83.5,2,3,BlockProc2,End - ?,,6,,,,,,,begin,,,,,recallproc2
RL_JOL C,83.5,2,3,BlockProc2,Villain - ?,,23,,,,,,,bad,,,,,recallproc2
RL_JOL C,83.5,2,3,BlockProc2,Hate - ?,,72,,,,,,,love,,,,,recallproc2
RL_JOL C,83.5,2,3,BlockProc2,Tan - ?,,60,,,,,,,sun,,,,,recallproc2
RL_JOL C,83.5,2,3,BlockProc2,Obtain - ?,,66,,,,,,,have,,,,,recallproc2
RL_JOL C,83.5,2,3,BlockProc2,Eat - ?,,16,,,,,,,park,,,,,recallproc2
RL_JOL C,83.5,2,3,BlockProc2,Plant - ?,,3,,,,,,,cactud,,,,,recallproc2
RL_JOL C,83.5,2,3,BlockProc2,Away - ?,,47,,,,,,,gone,,,,,recallproc2
RL_JOL C,83.5,2,3,BlockProc2,Charm - ?,,65,,,,,,,bracelet,,,,,recallproc2
RL_JOL C,83.5,2,3,BlockProc2,Drink - ?,,48,,,,,,,water,,,,,recallproc2
RL_JOL C,83.5,2,3,BlockProc2,Tie - ?,,4,,,,,,,knot,,,,,recallproc2
RL_JOL C,83.5,2,3,BlockProc2,Bang - ?,,73,,,,,,,break,,,,,recallproc2
RL_JOL C,83.5,2,3,BlockProc2,Lonely - ?,,50,,,,,,,alone,,,,,recallproc2
RL_JOL C,83.5,2,3,BlockProc2,Steak - ?,,63,,,,,,,grill,,,,,recallproc2
RL_JOL C,83.5,2,3,BlockProc2,Revenge - ?,,27,,,,,,,even,,,,,recallproc2
RL_JOL C,83.5,2,3,BlockProc2,Toil - ?,,75,,,,,,,turn,,,,,recallproc2
RL_JOL C,83.5,2,3,BlockProc2,Noise - ?,,57,,,,,,,loud,,,,,recallproc2
RL_JOL C,83.5,2,3,BlockProc2,Head - ?,,10,,,,,,,feet,,,,,recallproc2
RL_JOL C,83.5,2,3,BlockProc2,Ounce - ?,,77,,,,,,,rock,,,,,recallproc2
RL_JOL C,83.5,2,3,BlockProc2,Sign - ?,,76,,,,,,,paper,,,,,recallproc2
RL_JOL C,83.5,2,3,BlockProc2,Bracelet - ?,,45,,,,,,,wrist,,,,,recallproc2
RL_JOL C,83.5,2,3,BlockProc2,Game - ?,,2,,,,,,,clue,,,,,recallproc2
RL_JOL C,83.5,2,3,BlockProc2,Maroon - ?,,61,,,,,,,shirt,,,,,recallproc2
RL_JOL C,83.5,2,3,BlockProc2,Fight - ?,,18,,,,,,,battle,,,,,recallproc2
RL_JOL C,83.5,2,3,BlockProc2,Mystery - ?,,5,,,,,,,detective,,,,,recallproc2
RL_JOL C,83.5,2,3,BlockProc2,Communication - ?,,54,,,,,,,talk,,,,,recallproc2
RL_JOL C,83.5,2,3,BlockProc2,Thimble - ?,,26,,,,,,,thin,,,,,recallproc2
RL_JOL C,83.5,2,3,BlockProc2,Dog - ?,,7,,,,,,,puppy,,,,,recallproc2
RL_JOL C,83.5,2,3,BlockProc2,Brawl - ?,,40,,,,,,,fight,,,,,recallproc2
RL_JOL C,83.5,2,3,BlockProc2,Joke - ?,,70,,,,,,,laugh,,,,,recallproc2
RL_JOL C,83,1,,BlockProc1,Chime-Music,,8,,,,,,,,,,,,Practice1
RL_JOL C,83,1,,BlockProc1,Behavior-Social,,9,,,,,,,,,,,,Practice1
RL_JOL C,83,1,,BlockProc1,Chocolate-Bar,,7,,,,,,,,,,,,Practice1
RL_JOL C,83,1,,BlockProc1,Ham-Bone,,3,,,,,,,,,,,,Practice1
RL_JOL C,83,1,,BlockProc1,Disbelieve-Skeptic,,6,,,,,,,,,,,,Practice1
RL_JOL C,83,1,,BlockProc1,Paddle-Row,,4,,,,,,,,,,,,Practice1
RL_JOL C,83,1,,BlockProc1,Fashion-Model,,10,,,,,,,,,,,,Practice1
RL_JOL C,83,1,,BlockProc1,Deaf-Mute,,2,,,,,,,,,,,,Practice1
RL_JOL C,83,1,,BlockProc1,Hinge-Swing,,5,,,,,,,,,,,,Practice1
RL_JOL C,83,1,,BlockProc1,Aardvark-Zoo,,1,,,,,,,,,,,,Practice1
RL_JOL C,83,1,3,BlockProc1,Curtain - Drapes,,2,,,,,,,,,,,,StudyProc1
RL_JOL C,83,1,3,BlockProc1,Snow - Ice,,3,,,,,,,,,,,,StudyProc1
RL_JOL C,83,1,3,BlockProc1,Member - Group,,5,,,,,,,,,,,,StudyProc1
RL_JOL C,83,1,3,BlockProc1,Haircut-Scissors,,1,,,,,,,,,,,,StudyProc1
RL_JOL C,83,1,3,BlockProc1,Shrimp - Fish,,4,,,,,,,,,,,,StudyProc1
RL_JOL C,83,1,3,BlockProc1,Sick - Hide,U,79,78,8239,,,,,,,,,,StudyProc3
RL_JOL C,83,1,3,BlockProc1,Liver - Kidney,S,48,90,8573,,,,,,,,,,StudyProc3
RL_JOL C,83,1,3,BlockProc1,Design - Architecture,S,46,89,9941,,,,,,,,,,StudyProc3
RL_JOL C,83,1,3,BlockProc1,Toilet - Bathroom,S,53,90,5877,,,,,,,,,,StudyProc3
RL_JOL C,83,1,3,BlockProc1,Business - Death,U,67,35,22923,,,,,,,,,,StudyProc3
RL_JOL C,83,1,3,BlockProc1,Waste - Dump,S,44,89,5152,,,,,,,,,,StudyProc3
RL_JOL C,83,1,3,BlockProc1,Add - Valley,U,77,12,24691,,,,,,,,,,StudyProc3
RL_JOL C,83,1,3,BlockProc1,Sight - Debate,U,68,78,8143,,,,,,,,,,StudyProc3
RL_JOL C,83,1,3,BlockProc1,Woman - Lift,U,64,70,8064,,,,,,,,,,StudyProc3
RL_JOL C,83,1,3,BlockProc1,Lion - Art,U,74,80,11997,,,,,,,,,,StudyProc3
RL_JOL C,83,1,3,BlockProc1,Assignment - Due,S,41,100,6248,,,,,,,,,,StudyProc3
RL_JOL C,83,1,3,BlockProc1,Riddle - Sugar,U,76,12,28071,,,,,,,,,,StudyProc3
RL_JOL C,83,1,3,BlockProc1,Hand - Fix,U,70,76,9384,,,,,,,,,,StudyProc3
RL_JOL C,83,1,3,BlockProc1,Position - Machine,U,71,87,10815,,,,,,,,,,StudyProc3
RL_JOL C,83,1,3,BlockProc1,Round - Circle,S,60,99,4019,,,,,,,,,,StudyProc3
RL_JOL C,83,1,3,BlockProc1,Soda - Pop,S,51,100,7421,,,,,,,,,,StudyProc3
RL_JOL C,83,1,3,BlockProc1,Sacking -Dietary,U,62,97,18493,,,,,,,,,,StudyProc3
RL_JOL C,83,1,3,BlockProc1,Bee - Honey,S,58,100,4566,,,,,,,,,,StudyProc3
RL_JOL C,83,1,3,BlockProc1,Amount - Number,S,42,98,3994,,,,,,,,,,StudyProc3
RL_JOL C,83,1,3,BlockProc1,Bronze - Artery,U,69,0,7031,,,,,,,,,,StudyProc3
RL_JOL C,83,1,3,BlockProc1,Hungry - Park,U,63,98,6197,,,,,,,,,,StudyProc3
RL_JOL C,83,1,3,BlockProc1,Decision - Choise,S,57,87,7638,,,,,,,,,,StudyProc3
RL_JOL C,83,1,3,BlockProc1,Tuck - Allow,U,73,90,5540,,,,,,,,,,StudyProc3
RL_JOL C,83,1,3,BlockProc1,Would - Cash,U,78,96,6168,,,,,,,,,,StudyProc3
RL_JOL C,83,1,3,BlockProc1,Future - Past,S,56,100,5962,,,,,,,,,,StudyProc3
RL_JOL C,83,1,3,BlockProc1,Accident - Strong,U,75,98,5317,,,,,,,,,,StudyProc3
RL_JOL C,83,1,3,BlockProc1,Belt - Soon,U,65,67,13506,,,,,,,,,,StudyProc3
RL_JOL C,83,1,3,BlockProc1,Salad - Lettuce,S,54,98,8600,,,,,,,,,,StudyProc3
RL_JOL C,83,1,3,BlockProc1,Cheese - Wine,S,52,90,5487,,,,,,,,,,StudyProc3
RL_JOL C,83,1,3,BlockProc1,Vase - King,U,80,0,21133,,,,,,,,,,StudyProc3
RL_JOL C,83,1,3,BlockProc1,Site - Location,S,43,98,5211,,,,,,,,,,StudyProc3
RL_JOL C,83,1,3,BlockProc1,Car - Happy,U,72,87,4436,,,,,,,,,,StudyProc3
RL_JOL C,83,1,3,BlockProc1,Wind - Blow,S,50,99,5694,,,,,,,,,,StudyProc3
RL_JOL C,83,1,3,BlockProc1,Child - Baby,S,59,100,4028,,,,,,,,,,StudyProc3
RL_JOL C,83,1,3,BlockProc1,End - Begin,S,49,100,11389,,,,,,,,,,StudyProc3
RL_JOL C,83,1,3,BlockProc1,Jury - Trial,S,45,100,6994,,,,,,,,,,StudyProc3
RL_JOL C,83,1,3,BlockProc1,Floor - Discover,U,66,45,14618,,,,,,,,,,StudyProc3
RL_JOL C,83,1,3,BlockProc1,Clutter - Pusher,U,61,90,6050,,,,,,,,,,StudyProc3
RL_JOL C,83,1,3,BlockProc1,Bar - Grill,S,47,90,22938,,,,,,,,,,StudyProc3
RL_JOL C,83,1,3,BlockProc1,Foot - Shoe,S,55,100,5485,,,,,,,,,,StudyProc3
RL_JOL C,83,1,3,BlockProc1,Famine - Hunger,B,35,,,,,,,,22,24068,,,StudyProc7
RL_JOL C,83,1,3,BlockProc1,Bird - Swan,F,9,,,,,,,,65,8649,,,StudyProc7
RL_JOL C,83,1,3,BlockProc1,Growth - Height,B,25,,,,,,,,87,9406,,,StudyProc7
RL_JOL C,83,1,3,BlockProc1,Cow - Herd,F,17,,,,,,,,45,8820,,,StudyProc7
RL_JOL C,83,1,3,BlockProc1,Clean - Hygiene,F,12,,,,,,,,87,7698,,,StudyProc7
RL_JOL C,83,1,3,BlockProc1,Chili - Hot,B,32,,,,,,,,87,8094,,,StudyProc7
RL_JOL C,83,1,3,BlockProc1,Cold - Bitter,F,7,,,,,,,,87,10113,,,StudyProc7
RL_JOL C,83,1,3,BlockProc1,Talk - Discussion,F,16,,,,,,,,67,8593,,,StudyProc7
RL_JOL C,83,1,3,BlockProc1,Cave - Dark,B,23,,,,,,,,87,8424,,,StudyProc7
RL_JOL C,83,1,3,BlockProc1,Pilot - Plane,B,39,,,,,,,,89,8558,,,StudyProc7
RL_JOL C,83,1,3,BlockProc1,Attire - Clothes,B,38,,,,,,,,90,15855,,,StudyProc7
RL_JOL C,83,1,3,BlockProc1,Attorney - Law,B,29,,,,,,,,98,12517,,,StudyProc7
RL_JOL C,83,1,3,BlockProc1,Plant - Root,F,8,,,,,,,,80,25643,,,StudyProc7
RL_JOL C,83,1,3,BlockProc1,Hammer - Chisel,F,4,,,,,,,,90,9175,,,StudyProc7
RL_JOL C,83,1,3,BlockProc1,Sip - Drink,B,22,,,,,,,,89,15319,,,StudyProc7
RL_JOL C,83,1,3,BlockProc1,Division - Math,B,28,,,,,,,,70,5682,,,StudyProc7
RL_JOL C,83,1,3,BlockProc1,Dog - Paw,F,10,,,,,,,,100,4320,,,StudyProc7
RL_JOL C,83,1,3,BlockProc1,Wasp - Bug,B,27,,,,,,,,90,7159,,,StudyProc7
RL_JOL C,83,1,3,BlockProc1,Flower - Orchid,F,19,,,,,,,,90,5424,,,StudyProc7
RL_JOL C,83,1,3,BlockProc1,Enough - Full,B,21,,,,,,,,100,13689,,,StudyProc7
RL_JOL C,83,1,3,BlockProc1,Stomach - Digestion,F,2,,,,,,,,90,5831,,,StudyProc7
RL_JOL C,83,1,3,BlockProc1,Racket - Ball,B,33,,,,,,,,90,12535,,,StudyProc7
RL_JOL C,83,1,3,BlockProc1,Latch - Key,B,31,,,,,,,,23,19565,,,StudyProc7
RL_JOL C,83,1,3,BlockProc1,Seize - Take,B,24,,,,,,,,78,7474,,,StudyProc7
RL_JOL C,83,1,3,BlockProc1,News - Editor,F,5,,,,,,,,76,9832,,,StudyProc7
RL_JOL C,83,1,3,BlockProc1,Sting - Hornet,F,6,,,,,,,,,124,,,StudyProc7
RL_JOL C,83,1,3,BlockProc1,Rock - Geology,F,14,,,,,,,,76,9949,,,StudyProc7
RL_JOL C,83,1,3,BlockProc1,Word - Sentence,B,26,,,,,,,,90,14509,,,StudyProc7
RL_JOL C,83,1,3,BlockProc1,Stench - Smell,B,37,,,,,,,,88,10010,,,StudyProc7
RL_JOL C,83,1,3,BlockProc1,Money - Wage,F,3,,,,,,,,90,8887,,,StudyProc7
RL_JOL C,83,1,3,BlockProc1,Drowsy - Sleep,B,36,,,,,,,,98,12650,,,StudyProc7
RL_JOL C,83,1,3,BlockProc1,Blaze - Fire,B,40,,,,,,,,76,9507,,,StudyProc7
RL_JOL C,83,1,3,BlockProc1,War - Revolution,F,15,,,,,,,,98,11973,,,StudyProc7
RL_JOL C,83,1,3,BlockProc1,Card - Credit,F,18,,,,,,,,78,9585,,,StudyProc7
RL_JOL C,83,1,3,BlockProc1,Out - Way,F,11,,,,,,,,20,17312,,,StudyProc7
RL_JOL C,83,1,3,BlockProc1,Fish - Tuna,F,20,,,,,,,,90,5538,,,StudyProc7
RL_JOL C,83,1,3,BlockProc1,Fantastic - Great,B,30,,,,,,,,76,12918,,,StudyProc7
RL_JOL C,83,1,3,BlockProc1,Bad - Delinquent,F,1,,,,,,,,89,10668,,,StudyProc7
RL_JOL C,83,1,3,BlockProc1,Water - Bridge,F,13,,,,,,,,65,8310,,,StudyProc7
RL_JOL C,83,1,3,BlockProc1,Chore - Work,B,34,,,,,,,,89,13112,,,StudyProc7
RL_JOL C,83,1,3,BlockProc1,Trees - Green,,5,,,,,,,,,,,,StudyProc2
RL_JOL C,83,1,3,BlockProc1,Geese - Goose,,1,,,,,,,,,,,,StudyProc2
RL_JOL C,83,1,3,BlockProc1,Friendliness - Nice,,3,,,,,,,,,,,,StudyProc2
RL_JOL C,83,1,3,BlockProc1,Grab - Take,,2,,,,,,,,,,,,StudyProc2
RL_JOL C,83,1,3,BlockProc1,Catcher - Baseball,,4,,,,,,,,,,,,StudyProc2
RL_JOL C,83,1,3,BlockProc1,Cow - ?,,17,,,,,Herd,4641,,,,,,recallproc1
RL_JOL C,83,1,3,BlockProc1,Sight - ?,,68,,,,,Vision,12385,,,,,,recallproc1
RL_JOL C,83,1,3,BlockProc1,Word - ?,,26,,,,,Pair,6581,,,,,,recallproc1
RL_JOL C,83,1,3,BlockProc1,Foot - ?,,55,,,,,Shoe,5174,,,,,,recallproc1
RL_JOL C,83,1,3,BlockProc1,Vase - ?,,80,,,,,King,2073,,,,,,recallproc1
RL_JOL C,83,1,3,BlockProc1,Liver - ?,,48,,,,,Kidney,2203,,,,,,recallproc1
RL_JOL C,83,1,3,BlockProc1,Car - ?,,72,,,,,Happy,2512,,,,,,recallproc1
RL_JOL C,83,1,3,BlockProc1,Card - ?,,18,,,,,Credit,15096,,,,,,recallproc1
RL_JOL C,83,1,3,BlockProc1,Hungry - ?,,63,,,,,Food,12957,,,,,,recallproc1
RL_JOL C,83,1,3,BlockProc1,Woman - ?,,64,,,,,Nice,14512,,,,,,recallproc1
RL_JOL C,83,1,3,BlockProc1,Child - ?,,59,,,,,Toddler,16054,,,,,,recallproc1
RL_JOL C,83,1,3,BlockProc1,Riddle - ?,,76,,,,,idk,33050,,,,,,recallproc1
RL_JOL C,83,1,3,BlockProc1,Wasp - ?,,27,,,,,Bug,2327,,,,,,recallproc1
RL_JOL C,83,1,3,BlockProc1,Cave - ?,,23,,,,,Dark,4431,,,,,,recallproc1
RL_JOL C,83,1,3,BlockProc1,Attire - ?,,38,,,,,Clothes,3721,,,,,,recallproc1
RL_JOL C,83,1,3,BlockProc1,Amount - ?,,42,,,,,Wage,16887,,,,,,recallproc1
RL_JOL C,83,1,3,BlockProc1,Decision - ?,,57,,,,,Choise,2850,,,,,,recallproc1
RL_JOL C,83,1,3,BlockProc1,Chili - ?,,32,,,,,Hot,1732,,,,,,recallproc1
RL_JOL C,83,1,3,BlockProc1,Hand - ?,,70,,,,,soap,18788,,,,,,recallproc1
RL_JOL C,83,1,3,BlockProc1,Seize - ?,,24,,,,,Take,3378,,,,,,recallproc1
RL_JOL C,83,1,3,BlockProc1,Business - ?,,67,,,,,Death,2542,,,,,,recallproc1
RL_JOL C,83,1,3,BlockProc1,Toilet - ?,,53,,,,,Bathroom,2661,,,,,,recallproc1
RL_JOL C,83,1,3,BlockProc1,Talk - ?,,16,,,,,discussion,14920,,,,,,recallproc1
RL_JOL C,83,1,3,BlockProc1,Fish - ?,,20,,,,,Tuna,4571,,,,,,recallproc1
RL_JOL C,83,1,3,BlockProc1,Attorney - ?,,29,,,,,Law,1927,,,,,,recallproc1
RL_JOL C,83,1,3,BlockProc1,Tuck - ?,,73,,,,,Allow,2399,,,,,,recallproc1
RL_JOL C,83,1,3,BlockProc1,Sip - ?,,22,,,,,Drink,2876,,,,,,recallproc1
RL_JOL C,83,1,3,BlockProc1,Jury - ?,,45,,,,,Trial,11525,,,,,,recallproc1
RL_JOL C,83,1,3,BlockProc1,Clean - ?,,12,,,,,Hygiene,9620,,,,,,recallproc1
RL_JOL C,83,1,3,BlockProc1,Design - ?,,46,,,,,Clothes,12673,,,,,,recallproc1
RL_JOL C,83,1,3,BlockProc1,News - ?,,5,,,,,flash,13921,,,,,,recallproc1
RL_JOL C,83,1,3,BlockProc1,Salad - ?,,54,,,,,Lettuce,3126,,,,,,recallproc1
RL_JOL C,83,1,3,BlockProc1,Sick - ?,,79,,,,,Hide,8869,,,,,,recallproc1
RL_JOL C,83,1,3,BlockProc1,Bee - ?,,58,,,,,Honey,4360,,,,,,recallproc1
RL_JOL C,83,1,3,BlockProc1,Add - ?,,77,,,,,math,22541,,,,,,recallproc1
RL_JOL C,83,1,3,BlockProc1,Bird - ?,,9,,,,,Swan,9080,,,,,,recallproc1
RL_JOL C,83,1,3,BlockProc1,Cheese - ?,,52,,,,,Wine,2851,,,,,,recallproc1
RL_JOL C,83,1,3,BlockProc1,Soda - ?,,51,,,,,Pop,2918,,,,,,recallproc1
RL_JOL C,83,1,3,BlockProc1,Floor - ?,,66,,,,,,25901,,,,,,recallproc1
RL_JOL C,83,1,3,BlockProc1,Water - ?,,13,,,,,drink,12167,,,,,,recallproc1
RL_JOL C,83,1,3,BlockProc1,Flower - ?,,19,,,,,Orchid,6260,,,,,,recallproc1
RL_JOL C,83,1,3,BlockProc1,Sting - ?,,6,,,,,Bee,5154,,,,,,recallproc1
RL_JOL C,83,1,3,BlockProc1,Wind - ?,,50,,,,,Blow,3079,,,,,,recallproc1
RL_JOL C,83,1,3,BlockProc1,Site - ?,,43,,,,,Location,3831,,,,,,recallproc1
RL_JOL C,83,1,3,BlockProc1,Money - ?,,3,,,,,Wage,2994,,,,,,recallproc1
RL_JOL C,83,1,3,BlockProc1,Fantastic - ?,,30,,,,,Great,2814,,,,,,recallproc1
RL_JOL C,83,1,3,BlockProc1,Belt - ?,,65,,,,,Soon,2234,,,,,,recallproc1
RL_JOL C,83,1,3,BlockProc1,Stomach - ?,,2,,,,,full,17693,,,,,,recallproc1
RL_JOL C,83,1,3,BlockProc1,Blaze - ?,,40,,,,,Fire,2000,,,,,,recallproc1
RL_JOL C,83,1,3,BlockProc1,War - ?,,15,,,,,Revolution,7573,,,,,,recallproc1
RL_JOL C,83,1,3,BlockProc1,End - ?,,49,,,,,Begin,2054,,,,,,recallproc1
RL_JOL C,83,1,3,BlockProc1,Famine - ?,,35,,,,,Flower,8273,,,,,,recallproc1
RL_JOL C,83,1,3,BlockProc1,Growth - ?,,25,,,,,Height,1989,,,,,,recallproc1
RL_JOL C,83,1,3,BlockProc1,Cold - ?,,7,,,,,idk,21603,,,,,,recallproc1
RL_JOL C,83,1,3,BlockProc1,Hammer - ?,,4,,,,,Chisel,3341,,,,,,recallproc1
RL_JOL C,83,1,3,BlockProc1,Latch - ?,,31,,,,,Key,2115,,,,,,recallproc1
RL_JOL C,83,1,3,BlockProc1,Pilot - ?,,39,,,,,Plane,1667,,,,,,recallproc1
RL_JOL C,83,1,3,BlockProc1,Waste - ?,,44,,,,,Dump,3070,,,,,,recallproc1
RL_JOL C,83,1,3,BlockProc1,Bar - ?,,47,,,,,Gril,3495,,,,,,recallproc1
RL_JOL C,83,1,3,BlockProc1,Position - ?,,71,,,,,Place,4631,,,,,,recallproc1
RL_JOL C,83,1,3,BlockProc1,Rock - ?,,14,,,,,Geology,4961,,,,,,recallproc1
RL_JOL C,83,1,3,BlockProc1,Future - ?,,56,,,,,Past,10468,,,,,,recallproc1
RL_JOL C,83,1,3,BlockProc1,Sacking - ?,,62,,,,,Dietary,5606,,,,,,recallproc1
RL_JOL C,83,1,3,BlockProc1,Chore - ?,,34,,,,,Work,1929,,,,,,recallproc1
RL_JOL C,83,1,3,BlockProc1,Division - ?,,28,,,,,Math,2063,,,,,,recallproc1
RL_JOL C,83,1,3,BlockProc1,Lion - ?,,74,,,,,Art,4490,,,,,,recallproc1
RL_JOL C,83,1,3,BlockProc1,Assignment - ?,,41,,,,,Due,2657,,,,,,recallproc1
RL_JOL C,83,1,3,BlockProc1,Clutter - ?,,61,,,,,Pusher,13667,,,,,,recallproc1
RL_JOL C,83,1,3,BlockProc1,Bronze - ?,,69,,,,,Gold,3266,,,,,,recallproc1
RL_JOL C,83,1,3,BlockProc1,Drowsy - ?,,36,,,,,Sleep,3451,,,,,,recallproc1
RL_JOL C,83,1,3,BlockProc1,Round - ?,,60,,,,,Circle,3885,,,,,,recallproc1
RL_JOL C,83,1,3,BlockProc1,Stench - ?,,37,,,,,Smell,3429,,,,,,recallproc1
RL_JOL C,83,1,3,BlockProc1,Out - ?,,11,,,,,Way,3008,,,,,,recallproc1
RL_JOL C,83,1,3,BlockProc1,Enough - ?,,21,,,,,Full,1987,,,,,,recallproc1
RL_JOL C,83,1,3,BlockProc1,Bad - ?,,1,,,,,good,9857,,,,,,recallproc1
RL_JOL C,83,1,3,BlockProc1,Dog - ?,,10,,,,,pet,5868,,,,,,recallproc1
RL_JOL C,83,1,3,BlockProc1,Racket - ?,,33,,,,,Ball,2187,,,,,,recallproc1
RL_JOL C,83,1,3,BlockProc1,Plant - ?,,8,,,,,Root,3176,,,,,,recallproc1
RL_JOL C,83,1,3,BlockProc1,Accident - ?,,75,,,,,Purpose,6973,,,,,,recallproc1
RL_JOL C,83,1,3,BlockProc1,Would - ?,,78,,,,,could,4479,,,,,,recallproc1
RL_JOL C,83,2,3,BlockProc2,Essay - Write,,4,,,,,,,,,,,,StudyProc4
RL_JOL C,83,2,3,BlockProc2,Disintegrate - Disappear,,3,,,,,,,,,,,,StudyProc4
RL_JOL C,83,2,3,BlockProc2,Hide - Scare,,2,,,,,,,,,,,,StudyProc4
RL_JOL C,83,2,3,BlockProc2,Sheriff - Police,,1,,,,,,,,,,,,StudyProc4
RL_JOL C,83,2,3,BlockProc2,Malt - Chocolate,,5,,,,,,,,,,,,StudyProc4
RL_JOL C,83,2,3,BlockProc2,Tan - Sun,S,60,,,8,7434,,,,,,,,StudyProc5
RL_JOL C,83,2,3,BlockProc2,Ounce - Both,U,77,,,12,6808,,,,,,,,StudyProc5
RL_JOL C,83,2,3,BlockProc2,Cloth - Stretch,U,62,,,43,6448,,,,,,,,StudyProc5
RL_JOL C,83,2,3,BlockProc2,Maroon - Justice,U,61,,,0,3943,,,,,,,,StudyProc5
RL_JOL C,83,2,3,BlockProc2,Tick - Flea,S,56,,,87,19316,,,,,,,,StudyProc5
RL_JOL C,83,2,3,BlockProc2,Toil - Lease,U,75,,,10,5316,,,,,,,,StudyProc5
RL_JOL C,83,2,3,BlockProc2,Noise - Loud,S,57,,,90,7210,,,,,,,,StudyProc5
RL_JOL C,83,2,3,BlockProc2,Wet - Dry,S,51,,,56,4969,,,,,,,,StudyProc5
RL_JOL C,83,2,3,BlockProc2,Shave - Razor,S,41,,,67,3221,,,,,,,,StudyProc5
RL_JOL C,83,2,3,BlockProc2,Sign - Loan,U,76,,,76,3408,,,,,,,,StudyProc5
RL_JOL C,83,2,3,BlockProc2,Lie - Truth,S,53,,,87,4027,,,,,,,,StudyProc5
RL_JOL C,83,2,3,BlockProc2,Carbon - Element,S,46,,,43,4685,,,,,,,,StudyProc5
RL_JOL C,83,2,3,BlockProc2,Hate - Name,U,72,,,98,4724,,,,,,,,StudyProc5
RL_JOL C,83,2,3,BlockProc2,Bracelet - Wrist,S,45,,,87,3009,,,,,,,,StudyProc5
RL_JOL C,83,2,3,BlockProc2,Ground - Earth,S,49,,,90,4037,,,,,,,,StudyProc5
RL_JOL C,83,2,3,BlockProc2,Joke - Keys,U,70,,,54,3583,,,,,,,,StudyProc5
RL_JOL C,83,2,3,BlockProc2,Morning - Temperature,U,78,,,87,5499,,,,,,,,StudyProc5
RL_JOL C,83,2,3,BlockProc2,Bang - Fuzzy,U,73,,,0,6577,,,,,,,,StudyProc5
RL_JOL C,83,2,3,BlockProc2,Jar - Mason,S,43,,,76,5194,,,,,,,,StudyProc5
RL_JOL C,83,2,3,BlockProc2,Clear - Moat,U,74,,,0,5829,,,,,,,,StudyProc5
RL_JOL C,83,2,3,BlockProc2,Have - Own,S,58,,,76,4133,,,,,,,,StudyProc5
RL_JOL C,83,2,3,BlockProc2,Wax - Candle,S,44,,,54,4723,,,,,,,,StudyProc5
RL_JOL C,83,2,3,BlockProc2,Steak - Give,U,63,,,56,5696,,,,,,,,StudyProc5
RL_JOL C,83,2,3,BlockProc2,Scar - Main,U,80,,,87,3821,,,,,,,,StudyProc5
RL_JOL C,83,2,3,BlockProc2,Children - Mirror,U,79,,,87,5616,,,,,,,,StudyProc5
RL_JOL C,83,2,3,BlockProc2,Equal - Rights,S,42,,,99,5305,,,,,,,,StudyProc5
RL_JOL C,83,2,3,BlockProc2,Lonely - Alone,S,50,,,100,3199,,,,,,,,StudyProc5
RL_JOL C,83,2,3,BlockProc2,Charm - Vehicle,U,65,,,87,5091,,,,,,,,StudyProc5
RL_JOL C,83,2,3,BlockProc2,Communication - Phone,S,54,,,99,3481,,,,,,,,StudyProc5
RL_JOL C,83,2,3,BlockProc2,Seatbelt - Safety,S,52,,,76,7946,,,,,,,,StudyProc5
RL_JOL C,83,2,3,BlockProc2,Reel - Rod,S,55,,,56,5059,,,,,,,,StudyProc5
RL_JOL C,83,2,3,BlockProc2,Fiction - Listen,U,69,,,87,6507,,,,,,,,StudyProc5
RL_JOL C,83,2,3,BlockProc2,Away - Gone,S,47,,,9,3719,,,,,,,,StudyProc5
RL_JOL C,83,2,3,BlockProc2,Election - Maze,U,64,,,54,4374,,,,,,,,StudyProc5
RL_JOL C,83,2,3,BlockProc2,Clothes - Cake,U,71,,,87,5226,,,,,,,,StudyProc5
RL_JOL C,83,2,3,BlockProc2,Shake - Shell,U,68,,,45,2499,,,,,,,,StudyProc5
RL_JOL C,83,2,3,BlockProc2,Temper - Tantrum,S,59,,,90,3427,,,,,,,,StudyProc5
RL_JOL C,83,2,3,BlockProc2,Able - Crackle,U,67,,,76,3734,,,,,,,,StudyProc5
RL_JOL C,83,2,3,BlockProc2,Drink - Water,S,48,,,90,3372,,,,,,,,StudyProc5
RL_JOL C,83,2,3,BlockProc2,Obtain - Meat,U,66,,,12,3297,,,,,,,,StudyProc5
RL_JOL C,83,2,3,BlockProc2,Penguin - Bird,F,24,,,,,,,,,,45,3718,StudyProc8
RL_JOL C,83,2,3,BlockProc2,Scissors - Shears,B,17,,,,,,,,,,89,3445,StudyProc8
RL_JOL C,83,2,3,BlockProc2,Tie - Shoelace,B,4,,,,,,,,,,99,3407,StudyProc8
RL_JOL C,83,2,3,BlockProc2,Head - Scalp,B,10,,,,,,,,,,67,3690,StudyProc8
RL_JOL C,83,2,3,BlockProc2,Favorite - Best,F,30,,,,,,,,,,98,3970,StudyProc8
RL_JOL C,83,2,3,BlockProc2,Smell - Incense,B,15,,,,,,,,,,65,3847,StudyProc8
RL_JOL C,83,2,3,BlockProc2,Red - Cherry,B,9,,,,,,,,,,98,2528,StudyProc8
RL_JOL C,83,2,3,BlockProc2,Long - Extension,B,1,,,,,,,,,,98,8104,StudyProc8
RL_JOL C,83,2,3,BlockProc2,Thimble - Thread,F,26,,,,,,,,,,90,4915,StudyProc8
RL_JOL C,83,2,3,BlockProc2,Banker - Money,F,37,,,,,,,,,,98,3969,StudyProc8
RL_JOL C,83,2,3,BlockProc2,Trash - Litter,B,8,,,,,,,,,,90,4605,StudyProc8
RL_JOL C,83,2,3,BlockProc2,Windshield - Car,F,22,,,,,,,,,,99,3783,StudyProc8
RL_JOL C,83,2,3,BlockProc2,Mystery - Detective,B,5,,,,,,,,,,87,5012,StudyProc8
RL_JOL C,83,2,3,BlockProc2,Strawberry - Fruit,F,29,,,,,,,,,,90,3357,StudyProc8
RL_JOL C,83,2,3,BlockProc2,Nap - Sleep,F,39,,,,,,,,,,98,3658,StudyProc8
RL_JOL C,83,2,3,BlockProc2,Love - Affection,B,20,,,,,,,,,,100,3227,StudyProc8
RL_JOL C,83,2,3,BlockProc2,Cut - Chop,B,12,,,,,,,,,,87,4926,StudyProc8
RL_JOL C,83,2,3,BlockProc2,Villain - Bad,F,23,,,,,,,,,,89,4251,StudyProc8
RL_JOL C,83,2,3,BlockProc2,End - Adjourn,B,6,,,,,,,,,,90,5092,StudyProc8
RL_JOL C,83,2,3,BlockProc2,Game - Clue,B,2,,,,,,,,,,87,9435,StudyProc8
RL_JOL C,83,2,3,BlockProc2,Dog - Furry,B,7,,,,,,,,,,98,3551,StudyProc8
RL_JOL C,83,2,3,BlockProc2,Aircraft - Plane,F,34,,,,,,,,,,90,3877,StudyProc8
RL_JOL C,83,2,3,BlockProc2,Actress - Star,F,25,,,,,,,,,,98,5773,StudyProc8
RL_JOL C,83,2,3,BlockProc2,Truthful - Honest,F,38,,,,,,,,,,76,4087,StudyProc8
RL_JOL C,83,2,3,BlockProc2,Panther - Cat,F,31,,,,,,,,,,87,4535,StudyProc8
RL_JOL C,83,2,3,BlockProc2,Paper - Document,B,14,,,,,,,,,,98,4197,StudyProc8
RL_JOL C,83,2,3,BlockProc2,Flip - Turn,F,21,,,,,,,,,,56,4416,StudyProc8
RL_JOL C,83,2,3,BlockProc2,Balloon - Pop,F,28,,,,,,,,,,76,6538,StudyProc8
RL_JOL C,83,2,3,BlockProc2,Plant - Cactus,B,3,,,,,,,,,,87,4957,StudyProc8
RL_JOL C,83,2,3,BlockProc2,Donkey - Mule,B,13,,,,,,,,,,98,5217,StudyProc8
RL_JOL C,83,2,3,BlockProc2,Car - Driver,B,11,,,,,,,,,,98,5435,StudyProc8
RL_JOL C,83,2,3,BlockProc2,Fight - Feud,B,18,,,,,,,,,,87,4731,StudyProc8
RL_JOL C,83,2,3,BlockProc2,Coffin - Dead,F,33,,,,,,,,,,90,4264,StudyProc8
RL_JOL C,83,2,3,BlockProc2,Revenge - Even,F,27,,,,,,,,,,87,6305,StudyProc8
RL_JOL C,83,2,3,BlockProc2,League - Baseball,F,36,,,,,,,,,,98,4974,StudyProc8
RL_JOL C,83,2,3,BlockProc2,Cold - Chill,B,19,,,,,,,,,,78,3249,StudyProc8
RL_JOL C,83,2,3,BlockProc2,Breakable - Glass,F,32,,,,,,,,,,90,6283,StudyProc8
RL_JOL C,83,2,3,BlockProc2,Sardine - Fish,F,35,,,,,,,,,,90,3481,StudyProc8
RL_JOL C,83,2,3,BlockProc2,Eat - Dine,B,16,,,,,,,,,,99,2169,StudyProc8
RL_JOL C,83,2,3,BlockProc2,Brawl - Fight,F,40,,,,,,,,,,98,2951,StudyProc8
RL_JOL C,83,2,3,BlockProc2,Deaf - Hear,,3,,,,,,,,,,,,StudyProc6
RL_JOL C,83,2,3,BlockProc2,Contest - Competition,,5,,,,,,,,,,,,StudyProc6
RL_JOL C,83,2,3,BlockProc2,Deciet - Cheat,,1,,,,,,,,,,,,StudyProc6
RL_JOL C,83,2,3,BlockProc2,Magician - Magic,,4,,,,,,,,,,,,StudyProc6
RL_JOL C,83,2,3,BlockProc2,Mind - Matter,,2,,,,,,,,,,,,StudyProc6
RL_JOL C,83,2,3,BlockProc2,Dog - ?,,7,,,,,,,Cat,,,,,recallproc2
RL_JOL C,83,2,3,BlockProc2,Bracelet - ?,,45,,,,,,,Wrist,,,,,recallproc2
RL_JOL C,83,2,3,BlockProc2,Tick - ?,,56,,,,,,,Flea,,,,,recallproc2
RL_JOL C,83,2,3,BlockProc2,Revenge - ?,,27,,,,,,,Evil,,,,,recallproc2
RL_JOL C,83,2,3,BlockProc2,Cold - ?,,19,,,,,,,Chl,,,,,recallproc2
RL_JOL C,83,2,3,BlockProc2,Ounce - ?,,77,,,,,,,Both,,,,,recallproc2
RL_JOL C,83,2,3,BlockProc2,Trash - ?,,8,,,,,,,Litter,,,,,recallproc2
RL_JOL C,83,2,3,BlockProc2,Children - ?,,79,,,,,,,Mirror,,,,,recallproc2
RL_JOL C,83,2,3,BlockProc2,Windshield - ?,,22,,,,,,,Car,,,,,recallproc2
RL_JOL C,83,2,3,BlockProc2,Ground - ?,,49,,,,,,,Loq,,,,,recallproc2
RL_JOL C,83,2,3,BlockProc2,Brawl - ?,,40,,,,,,,Fight,,,,,recallproc2
RL_JOL C,83,2,3,BlockProc2,Maroon - ?,,61,,,,,,,Fight,,,,,recallproc2
RL_JOL C,83,2,3,BlockProc2,Coffin - ?,,33,,,,,,,Dead,,,,,recallproc2
RL_JOL C,83,2,3,BlockProc2,Wet - ?,,51,,,,,,,Dry,,,,,recallproc2
RL_JOL C,83,2,3,BlockProc2,Thimble - ?,,26,,,,,,,Thread,,,,,recallproc2
RL_JOL C,83,2,3,BlockProc2,Donkey - ?,,13,,,,,,,Mule,,,,,recallproc2
RL_JOL C,83,2,3,BlockProc2,Strawberry - ?,,29,,,,,,,Fruit,,,,,recallproc2
RL_JOL C,83,2,3,BlockProc2,Jar - ?,,43,,,,,,,Mason,,,,,recallproc2
RL_JOL C,83,2,3,BlockProc2,Tan - ?,,60,,,,,,,Sun,,,,,recallproc2
RL_JOL C,83,2,3,BlockProc2,Clothes - ?,,71,,,,,,,Attire,,,,,recallproc2
RL_JOL C,83,2,3,BlockProc2,Truthful - ?,,38,,,,,,,Honesty,,,,,recallproc2
RL_JOL C,83,2,3,BlockProc2,Car - ?,,11,,,,,,,Driver,,,,,recallproc2
RL_JOL C,83,2,3,BlockProc2,Sign - ?,,76,,,,,,,Loan,,,,,recallproc2
RL_JOL C,83,2,3,BlockProc2,Shake - ?,,68,,,,,,,Hand,,,,,recallproc2
RL_JOL C,83,2,3,BlockProc2,Charm - ?,,65,,,,,,,Car,,,,,recallproc2
RL_JOL C,83,2,3,BlockProc2,Election - ?,,64,,,,,,,Vote,,,,,recallproc2
RL_JOL C,83,2,3,BlockProc2,Joke - ?,,70,,,,,,,Funny,,,,,recallproc2
RL_JOL C,83,2,3,BlockProc2,Cloth - ?,,62,,,,,,,Stretch,,,,,recallproc2
RL_JOL C,83,2,3,BlockProc2,Able - ?,,67,,,,,,,Do,,,,,recallproc2
RL_JOL C,83,2,3,BlockProc2,Panther - ?,,31,,,,,,,Cat,,,,,recallproc2
RL_JOL C,83,2,3,BlockProc2,Have - ?,,58,,,,,,,Had,,,,,recallproc2
RL_JOL C,83,2,3,BlockProc2,Breakable - ?,,32,,,,,,,Glass,,,,,recallproc2
RL_JOL C,83,2,3,BlockProc2,Love - ?,,20,,,,,,,Affection,,,,,recallproc2
RL_JOL C,83,2,3,BlockProc2,Scissors - ?,,17,,,,,,,Hair,,,,,recallproc2
RL_JOL C,83,2,3,BlockProc2,Lie - ?,,53,,,,,,,HOnest,,,,,recallproc2
RL_JOL C,83,2,3,BlockProc2,End - ?,,6,,,,,,,Begi,,,,,recallproc2
RL_JOL C,83,2,3,BlockProc2,Hate - ?,,72,,,,,,,Love,,,,,recallproc2
RL_JOL C,83,2,3,BlockProc2,Game - ?,,2,,,,,,,over,,,,,recallproc2
RL_JOL C,83,2,3,BlockProc2,Plant - ?,,3,,,,,,,Root,,,,,recallproc2
RL_JOL C,83,2,3,BlockProc2,Tie - ?,,4,,,,,,,shrit,,,,,recallproc2
RL_JOL C,83,2,3,BlockProc2,Seatbelt - ?,,52,,,,,,,Safety,,,,,recallproc2
RL_JOL C,83,2,3,BlockProc2,Fiction - ?,,69,,,,,,,Nonfiction,,,,,recallproc2
RL_JOL C,83,2,3,BlockProc2,Temper - ?,,59,,,,,,,Tantrum,,,,,recallproc2
RL_JOL C,83,2,3,BlockProc2,League - ?,,36,,,,,,,Baseball,,,,,recallproc2
RL_JOL C,83,2,3,BlockProc2,Paper - ?,,14,,,,,,,Scissors,,,,,recallproc2
RL_JOL C,83,2,3,BlockProc2,Nap - ?,,39,,,,,,,Sleep,,,,,recallproc2
RL_JOL C,83,2,3,BlockProc2,Equal - ?,,42,,,,,,,Rights,,,,,recallproc2
RL_JOL C,83,2,3,BlockProc2,Fight - ?,,18,,,,,,,Club,,,,,recallproc2
RL_JOL C,83,2,3,BlockProc2,Actress - ?,,25,,,,,,,Star,,,,,recallproc2
RL_JOL C,83,2,3,BlockProc2,Scar - ?,,80,,,,,,,Main,,,,,recallproc2
RL_JOL C,83,2,3,BlockProc2,Lonely - ?,,50,,,,,,,Alone,,,,,recallproc2
RL_JOL C,83,2,3,BlockProc2,Away - ?,,47,,,,,,,Far,,,,,recallproc2
RL_JOL C,83,2,3,BlockProc2,Communication - ?,,54,,,,,,,Phone,,,,,recallproc2
RL_JOL C,83,2,3,BlockProc2,Drink - ?,,48,,,,,,,Sip,,,,,recallproc2
RL_JOL C,83,2,3,BlockProc2,Wax - ?,,44,,,,,,,Candle,,,,,recallproc2
RL_JOL C,83,2,3,BlockProc2,Smell - ?,,15,,,,,,,Stentch,,,,,recallproc2
RL_JOL C,83,2,3,BlockProc2,Flip - ?,,21,,,,,,,Flp,,,,,recallproc2
RL_JOL C,83,2,3,BlockProc2,Villain - ?,,23,,,,,,,Evi,,,,,recallproc2
RL_JOL C,83,2,3,BlockProc2,Aircraft - ?,,34,,,,,,,Plane,,,,,recallproc2
RL_JOL C,83,2,3,BlockProc2,Banker - ?,,37,,,,,,,Money,,,,,recallproc2
RL_JOL C,83,2,3,BlockProc2,Head - ?,,10,,,,,,,Scalp,,,,,recallproc2
RL_JOL C,83,2,3,BlockProc2,Bang - ?,,73,,,,,,,Bow,,,,,recallproc2
RL_JOL C,83,2,3,BlockProc2,Morning - ?,,78,,,,,,,Temperature,,,,,recallproc2
RL_JOL C,83,2,3,BlockProc2,Eat - ?,,16,,,,,,,FUll,,,,,recallproc2
RL_JOL C,83,2,3,BlockProc2,Balloon - ?,,28,,,,,,,Pop,,,,,recallproc2
RL_JOL C,83,2,3,BlockProc2,Cut - ?,,12,,,,,,,Deep,,,,,recallproc2
RL_JOL C,83,2,3,BlockProc2,Steak - ?,,63,,,,,,,Give,,,,,recallproc2
RL_JOL C,83,2,3,BlockProc2,Sardine - ?,,35,,,,,,,Fish,,,,,recallproc2
RL_JOL C,83,2,3,BlockProc2,Shave - ?,,41,,,,,,,Razor,,,,,recallproc2
RL_JOL C,83,2,3,BlockProc2,Penguin - ?,,24,,,,,,,Bird,,,,,recallproc2
RL_JOL C,83,2,3,BlockProc2,Favorite - ?,,30,,,,,,,Love,,,,,recallproc2
RL_JOL C,83,2,3,BlockProc2,Red - ?,,9,,,,,,,Color,,,,,recallproc2
RL_JOL C,83,2,3,BlockProc2,Clear - ?,,74,,,,,,,Seeable,,,,,recallproc2
RL_JOL C,83,2,3,BlockProc2,Mystery - ?,,5,,,,,,,Detective,,,,,recallproc2
RL_JOL C,83,2,3,BlockProc2,Noise - ?,,57,,,,,,,Sound,,,,,recallproc2
RL_JOL C,83,2,3,BlockProc2,Obtain - ?,,66,,,,,,,Give,,,,,recallproc2
RL_JOL C,83,2,3,BlockProc2,Reel - ?,,55,,,,,,,Rod,,,,,recallproc2
RL_JOL C,83,2,3,BlockProc2,Toil - ?,,75,,,,,,,Paper,,,,,recallproc2
RL_JOL C,83,2,3,BlockProc2,Long - ?,,1,,,,,,,short,,,,,recallproc2
RL_JOL C,83,2,3,BlockProc2,Carbon - ?,,46,,,,,,,Element,,,,,recallproc2
