"ExperimentName","Subject","Block","list","Procedure.Block.","cue_target","Direction","ListNum","JOL","RT","Procedure.Trial.","Type","Procedure.Block..1","cue_target.1","ListNum.1","Response","Procedure.Trial..1","Type.1"
"READ_JOL A",49,1,3,"BlockProc1","Delinquent - Bad","F",1,40,10886,"StudyProc7","JOL","BlockProc1","Delinquent - ?",1,"fair","recallproc1","recall"
"READ_JOL A",49,1,3,"BlockProc1","Digestion - Stomach","F",2,65,7163,"StudyProc7","JOL","BlockProc1","Digestion - ?",2,"hunger","recallproc1","recall"
"READ_JOL A",49,1,3,"BlockProc1","Wage - Money","F",3,0,4519,"StudyProc7","JOL","BlockProc1","Wage - ?",3,"money","recallproc1","recall"
"READ_JOL A",49,1,3,"BlockProc1","Chisel - Hammer","F",4,23,10831,"StudyProc7","JOL","BlockProc1","Chisel - ?",4,"wind","recallproc1","recall"
"READ_JOL A",49,1,3,"BlockProc1","Editor - News","F",5,100,5890,"StudyProc7","JOL","BlockProc1","Editor - ?",5,"news","recallproc1","recall"
"READ_JOL A",49,1,3,"BlockProc1","Hornet - Sting","F",6,15,16335,"StudyProc7","JOL","BlockProc1","Hornet - ?",6,"nest","recallproc1","recall"
"READ_JOL A",49,1,3,"BlockProc1","Bitter - Cold","F",7,100,5820,"StudyProc7","JOL","BlockProc1","Bitter - ?",7,"sweet","recallproc1","recall"
"READ_JOL A",49,1,3,"BlockProc1","Root - Plant","F",8,65,10564,"StudyProc7","JOL","BlockProc1","Root - ?",8,"plant","recallproc1","recall"
"READ_JOL A",49,1,3,"BlockProc1","Swan - Bird","F",9,0,4834,"StudyProc7","JOL","BlockProc1","Swan - ?",9,"duck","recallproc1","recall"
"READ_JOL A",49,1,3,"BlockProc1","Paw - Dog","F",10,100,6236,"StudyProc7","JOL","BlockProc1","Paw - ?",10,"dog","recallproc1","recall"
"READ_JOL A",49,1,3,"BlockProc1","Way - Out","F",11,12,9961,"StudyProc7","JOL","BlockProc1","Way - ?",11,"out","recallproc1","recall"
"READ_JOL A",49,1,3,"BlockProc1","Hygiene - Clean","F",12,100,15673,"StudyProc7","JOL","BlockProc1","Hygiene - ?",12,"clean","recallproc1","recall"
"READ_JOL A",49,1,3,"BlockProc1","Bridge - Water","F",13,54,6984,"StudyProc7","JOL","BlockProc1","Bridge - ?",13,"water","recallproc1","recall"
"READ_JOL A",49,1,3,"BlockProc1","Geology - Rock","F",14,0,5291,"StudyProc7","JOL","BlockProc1","Geology - ?",14,"tree","recallproc1","recall"
"READ_JOL A",49,1,3,"BlockProc1","Revolution - War","F",15,100,5564,"StudyProc7","JOL","BlockProc1","Revolution - ?",15,"book","recallproc1","recall"
"READ_JOL A",49,1,3,"BlockProc1","Discussion - Talk","F",16,100,8509,"StudyProc7","JOL","BlockProc1","Discussion - ?",16,"talk","recallproc1","recall"
"READ_JOL A",49,1,3,"BlockProc1","Herd - Cow","F",17,0,4560,"StudyProc7","JOL","BlockProc1","Herd - ?",17,"cows","recallproc1","recall"
"READ_JOL A",49,1,3,"BlockProc1","Credit - Card","F",18,100,2869,"StudyProc7","JOL","BlockProc1","Credit - ?",18,"card","recallproc1","recall"
"READ_JOL A",49,1,3,"BlockProc1","Orchid - Flower","F",19,0,9636,"StudyProc7","JOL","BlockProc1","Orchid - ?",19,"flower","recallproc1","recall"
"READ_JOL A",49,1,3,"BlockProc1","Tuna - Fish","F",20,100,10333,"StudyProc7","JOL","BlockProc1","Tuna - ?",20,"fish","recallproc1","recall"
"READ_JOL A",49,1,3,"BlockProc1","Full - Enough","B",21,100,7113,"StudyProc7","JOL","BlockProc1","Full - ?",21,"enough","recallproc1","recall"
"READ_JOL A",49,1,3,"BlockProc1","Drink - Sip","B",22,100,9193,"StudyProc7","JOL","BlockProc1","Drink - ?",22,"sip","recallproc1","recall"
"READ_JOL A",49,1,3,"BlockProc1","Dark - Cave","B",23,100,5319,"StudyProc7","JOL","BlockProc1","Dark - ?",23,"woods","recallproc1","recall"
"READ_JOL A",49,1,3,"BlockProc1","Take - Seize","B",24,0,3239,"StudyProc7","JOL","BlockProc1","Take - ?",24,"hide","recallproc1","recall"
"READ_JOL A",49,1,3,"BlockProc1","Height - Growth","B",25,100,11697,"StudyProc7","JOL","BlockProc1","Height - ?",25,"tall","recallproc1","recall"
"READ_JOL A",49,1,3,"BlockProc1","Sentence - Word","B",26,100,11618,"StudyProc7","JOL","BlockProc1","Sentence - ?",26,"word","recallproc1","recall"
"READ_JOL A",49,1,3,"BlockProc1","Bug - Wasp","B",27,0,4137,"StudyProc7","JOL","BlockProc1","Bug - ?",27,"grasshopper","recallproc1","recall"
"READ_JOL A",49,1,3,"BlockProc1","Math - Division","B",28,55,5125,"StudyProc7","JOL","BlockProc1","Math - ?",28,"numbers","recallproc1","recall"
"READ_JOL A",49,1,3,"BlockProc1","Law - Attorney","B",29,100,8864,"StudyProc7","JOL","BlockProc1","Law - ?",29,"lawyer","recallproc1","recall"
"READ_JOL A",49,1,3,"BlockProc1","Great - Fantastic","B",30,100,10616,"StudyProc7","JOL","BlockProc1","Great - ?",30,"fantastic","recallproc1","recall"
"READ_JOL A",49,1,3,"BlockProc1","Key - Latch","B",31,0,2904,"StudyProc7","JOL","BlockProc1","Key - ?",31,"chain","recallproc1","recall"
"READ_JOL A",49,1,3,"BlockProc1","Hot - Chili","B",32,95,10750,"StudyProc7","JOL","BlockProc1","Hot - ?",32,"chilli","recallproc1","recall"
"READ_JOL A",49,1,3,"BlockProc1","Ball - Racket","B",33,13,11881,"StudyProc7","JOL","BlockProc1","Ball - ?",33,"catcher","recallproc1","recall"
"READ_JOL A",49,1,3,"BlockProc1","Work - Chore","B",34,54,10917,"StudyProc7","JOL","BlockProc1","Work - ?",34,"time","recallproc1","recall"
"READ_JOL A",49,1,3,"BlockProc1","Hunger - Famine","B",35,0,6051,"StudyProc7","JOL","BlockProc1","Hunger - ?",35,"fate","recallproc1","recall"
"READ_JOL A",49,1,3,"BlockProc1","Sleep - Drowsy","B",36,50,13804,"StudyProc7","JOL","BlockProc1","Sleep - ?",36,"drowsy","recallproc1","recall"
"READ_JOL A",49,1,3,"BlockProc1","Smell - Stench","B",37,0,4281,"StudyProc7","JOL","BlockProc1","Smell - ?",37,"fresh","recallproc1","recall"
"READ_JOL A",49,1,3,"BlockProc1","Clothes - Attire","B",38,100,9528,"StudyProc7","JOL","BlockProc1","Clothes - ?",38,"fit","recallproc1","recall"
"READ_JOL A",49,1,3,"BlockProc1","Plane - Pilot","B",39,100,10436,"StudyProc7","JOL","BlockProc1","Plane - ?",39,"pilot","recallproc1","recall"
"READ_JOL A",49,1,3,"BlockProc1","Fire - Blaze","B",40,23,14206,"StudyProc7","JOL","BlockProc1","Fire - ?",40,"hot","recallproc1","recall"
"READ_JOL A",49,1,3,"BlockProc1","Due - Assignment","S",41,100,2716,"StudyProc3","JOL","BlockProc1","Due - ?",41,"assignment","recallproc1","recall"
"READ_JOL A",49,1,3,"BlockProc1","Number - Amount","S",42,100,5208,"StudyProc3","JOL","BlockProc1","Number - ?",42,"count","recallproc1","recall"
"READ_JOL A",49,1,3,"BlockProc1","Location - Site","S",43,55,10528,"StudyProc3","JOL","BlockProc1","Location - ?",43,"site","recallproc1","recall"
"READ_JOL A",49,1,3,"BlockProc1","Dump - Waste","S",44,100,5765,"StudyProc3","JOL","BlockProc1","Dump - ?",44,"trash","recallproc1","recall"
"READ_JOL A",49,1,3,"BlockProc1","Trial - Jury","S",45,88,5343,"StudyProc3","JOL","BlockProc1","Trial - ?",45,"walk","recallproc1","recall"
"READ_JOL A",49,1,3,"BlockProc1","Architecture - Design","S",46,100,4817,"StudyProc3","JOL","BlockProc1","Architecture - ?",46,"build","recallproc1","recall"
"READ_JOL A",49,1,3,"BlockProc1","Grill - Bar","S",47,55,5376,"StudyProc3","JOL","BlockProc1","Grill - ?",47,"bar","recallproc1","recall"
"READ_JOL A",49,1,3,"BlockProc1","Kidney - Liver","S",48,43,5204,"StudyProc3","JOL","BlockProc1","Kidney - ?",48,"lungs","recallproc1","recall"
"READ_JOL A",49,1,3,"BlockProc1","Begin - End","S",49,100,3124,"StudyProc3","JOL","BlockProc1","Begin - ?",49,"end","recallproc1","recall"
"READ_JOL A",49,1,3,"BlockProc1","Blow - Wind","S",50,100,3526,"StudyProc3","JOL","BlockProc1","Blow - ?",50,"wind","recallproc1","recall"
"READ_JOL A",49,1,3,"BlockProc1","Pop - Soda","S",51,100,3012,"StudyProc3","JOL","BlockProc1","Pop - ?",51,"soda","recallproc1","recall"
"READ_JOL A",49,1,3,"BlockProc1","Wine - Cheese","S",52,20,5569,"StudyProc3","JOL","BlockProc1","Wine - ?",52,"cheese","recallproc1","recall"
"READ_JOL A",49,1,3,"BlockProc1","Bathroom - Toilet","S",53,100,2428,"StudyProc3","JOL","BlockProc1","Bathroom - ?",53,"small","recallproc1","recall"
"READ_JOL A",49,1,3,"BlockProc1","Lettuce - Salad","S",54,100,2643,"StudyProc3","JOL","BlockProc1","Lettuce - ?",54,"salad","recallproc1","recall"
"READ_JOL A",49,1,3,"BlockProc1","Shoe - Foot","S",55,100,2664,"StudyProc3","JOL","BlockProc1","Shoe - ?",55,"foot","recallproc1","recall"
"READ_JOL A",49,1,3,"BlockProc1","Past - Future","S",56,100,4476,"StudyProc3","JOL","BlockProc1","Past - ?",56,"future","recallproc1","recall"
"READ_JOL A",49,1,3,"BlockProc1","Choice - Decision","S",57,100,5815,"StudyProc3","JOL","BlockProc1","Choice - ?",57,"your","recallproc1","recall"
"READ_JOL A",49,1,3,"BlockProc1","Honey - Bee","S",58,100,2412,"StudyProc3","JOL","BlockProc1","Honey - ?",58,"bee","recallproc1","recall"
"READ_JOL A",49,1,3,"BlockProc1","Baby - Child","S",59,100,4415,"StudyProc3","JOL","BlockProc1","Baby - ?",59,"child","recallproc1","recall"
"READ_JOL A",49,1,3,"BlockProc1","Circle - Round","S",60,100,4718,"StudyProc3","JOL","BlockProc1","Circle - ?",60,"round","recallproc1","recall"
"READ_JOL A",49,1,3,"BlockProc1","Pusher - Clutter","U",61,54,7120,"StudyProc3","JOL","BlockProc1","Pusher - ?",61,"rail","recallproc1","recall"
"READ_JOL A",49,1,3,"BlockProc1","Dietary - Slacking","U",62,32,4452,"StudyProc3","JOL","BlockProc1","Dietary - ?",62,"food","recallproc1","recall"
"READ_JOL A",49,1,3,"BlockProc1","Park - Hungry","U",63,0,2574,"StudyProc3","JOL","BlockProc1","Park - ?",63,"green","recallproc1","recall"
"READ_JOL A",49,1,3,"BlockProc1","Lift - Woman","U",64,0,2017,"StudyProc3","JOL","BlockProc1","Lift - ?",64,"woods","recallproc1","recall"
"READ_JOL A",49,1,3,"BlockProc1","Soon - Belt","U",65,12,6926,"StudyProc3","JOL","BlockProc1","Soon - ?",65,"now","recallproc1","recall"
"READ_JOL A",49,1,3,"BlockProc1","Discover - Floor","U",66,0,3200,"StudyProc3","JOL","BlockProc1","Discover - ?",66,"war","recallproc1","recall"
"READ_JOL A",49,1,3,"BlockProc1","Death - Business","U",67,0,2006,"StudyProc3","JOL","BlockProc1","Death - ?",67,"jobs","recallproc1","recall"
"READ_JOL A",49,1,3,"BlockProc1","Debate - Sight","U",68,0,3600,"StudyProc3","JOL","BlockProc1","Debate - ?",68,"read","recallproc1","recall"
"READ_JOL A",49,1,3,"BlockProc1","Artery - Bronze","U",69,0,2927,"StudyProc3","JOL","BlockProc1","Artery - ?",69,"stone","recallproc1","recall"
"READ_JOL A",49,1,3,"BlockProc1","Fix - Hand","U",70,43,7826,"StudyProc3","JOL","BlockProc1","Fix - ?",70,"hand","recallproc1","recall"
"READ_JOL A",49,1,3,"BlockProc1","Machine - Position","U",71,32,6739,"StudyProc3","JOL","BlockProc1","Machine - ?",71,"book","recallproc1","recall"
"READ_JOL A",49,1,3,"BlockProc1","Happy - Car","U",72,78,10329,"StudyProc3","JOL","BlockProc1","Happy - ?",72,"foot","recallproc1","recall"
"READ_JOL A",49,1,3,"BlockProc1","Allow - Tuck","U",73,0,4129,"StudyProc3","JOL","BlockProc1","Allow - ?",73,"wine","recallproc1","recall"
"READ_JOL A",49,1,3,"BlockProc1","Art - Lion","U",74,54,12045,"StudyProc3","JOL","BlockProc1","Art - ?",74,"color","recallproc1","recall"
"READ_JOL A",49,1,3,"BlockProc1","Strong - Accident","U",75,12,6931,"StudyProc3","JOL","BlockProc1","Strong - ?",75,"green","recallproc1","recall"
"READ_JOL A",49,1,3,"BlockProc1","Sugar - Riddle","U",76,0,2771,"StudyProc3","JOL","BlockProc1","Sugar - ?",76,"bear","recallproc1","recall"
"READ_JOL A",49,1,3,"BlockProc1","Valley - Add","U",77,0,3251,"StudyProc3","JOL","BlockProc1","Valley - ?",77,"hill","recallproc1","recall"
"READ_JOL A",49,1,3,"BlockProc1","Cash - Would","U",78,0,2494,"StudyProc3","JOL","BlockProc1","Cash - ?",78,"wage","recallproc1","recall"
"READ_JOL A",49,1,3,"BlockProc1","Hide - Sick","U",79,11,4227,"StudyProc3","JOL","BlockProc1","Hide - ?",79,"side","recallproc1","recall"
"READ_JOL A",49,1,3,"BlockProc1","King - Vase","U",80,23,8952,"StudyProc3","JOL","BlockProc1","King - ?",80,"tar","recallproc1","recall"
"IS_JOL A",53,1,3,"BlockProc1","Delinquent - Bad","F",1,10,30961,"StudyProc7","JOL","BlockProc1","Delinquent - ?",1,"bad","recallproc1","recall"
"IS_JOL A",53,1,3,"BlockProc1","Digestion - Stomach","F",2,100,29730,"StudyProc7","JOL","BlockProc1","Digestion - ?",2,"stomach","recallproc1","recall"
"IS_JOL A",53,1,3,"BlockProc1","Wage - Money","F",3,100,28646,"StudyProc7","JOL","BlockProc1","Wage - ?",3,"amount","recallproc1","recall"
"IS_JOL A",53,1,3,"BlockProc1","Chisel - Hammer","F",4,10,18628,"StudyProc7","JOL","BlockProc1","Chisel - ?",4,"hammer","recallproc1","recall"
"IS_JOL A",53,1,3,"BlockProc1","Editor - News","F",5,10,15415,"StudyProc7","JOL","BlockProc1","Editor - ?",5,"news","recallproc1","recall"
"IS_JOL A",53,1,3,"BlockProc1","Hornet - Sting","F",6,100,26707,"StudyProc7","JOL","BlockProc1","Hornet - ?",6,"sting","recallproc1","recall"
"IS_JOL A",53,1,3,"BlockProc1","Bitter - Cold","F",7,10,21923,"StudyProc7","JOL","BlockProc1","Bitter - ?",7,"happy","recallproc1","recall"
"IS_JOL A",53,1,3,"BlockProc1","Root - Plant","F",8,100,22804,"StudyProc7","JOL","BlockProc1","Root - ?",8,"flower","recallproc1","recall"
"IS_JOL A",53,1,3,"BlockProc1","Swan - Bird","F",9,100,23239,"StudyProc7","JOL","BlockProc1","Swan - ?",9,"bird","recallproc1","recall"
"IS_JOL A",53,1,3,"BlockProc1","Paw - Dog","F",10,100,20382,"StudyProc7","JOL","BlockProc1","Paw - ?",10,"dog","recallproc1","recall"
"IS_JOL A",53,1,3,"BlockProc1","Way - Out","F",11,10,22151,"StudyProc7","JOL","BlockProc1","Way - ?",11,"site","recallproc1","recall"
"IS_JOL A",53,1,3,"BlockProc1","Hygiene - Clean","F",12,100,19355,"StudyProc7","JOL","BlockProc1","Hygiene - ?",12,"clean","recallproc1","recall"
"IS_JOL A",53,1,3,"BlockProc1","Bridge - Water","F",13,100,27952,"StudyProc7","JOL","BlockProc1","Bridge - ?",13,"water","recallproc1","recall"
"IS_JOL A",53,1,3,"BlockProc1","Geology - Rock","F",14,10,19530,"StudyProc7","JOL","BlockProc1","Geology - ?",14,"roc","recallproc1","recall"
"IS_JOL A",53,1,3,"BlockProc1","Revolution - War","F",15,10,33863,"StudyProc7","JOL","BlockProc1","Revolution - ?",15,"war","recallproc1","recall"
"IS_JOL A",53,1,3,"BlockProc1","Discussion - Talk","F",16,100,17695,"StudyProc7","JOL","BlockProc1","Discussion - ?",16,"talk","recallproc1","recall"
"IS_JOL A",53,1,3,"BlockProc1","Herd - Cow","F",17,100,23707,"StudyProc7","JOL","BlockProc1","Herd - ?",17,"cow","recallproc1","recall"
"IS_JOL A",53,1,3,"BlockProc1","Credit - Card","F",18,100,25433,"StudyProc7","JOL","BlockProc1","Credit - ?",18,"card","recallproc1","recall"
"IS_JOL A",53,1,3,"BlockProc1","Orchid - Flower","F",19,10,34011,"StudyProc7","JOL","BlockProc1","Orchid - ?",19,"flower","recallproc1","recall"
"IS_JOL A",53,1,3,"BlockProc1","Tuna - Fish","F",20,100,20781,"StudyProc7","JOL","BlockProc1","Tuna - ?",20,"fish","recallproc1","recall"
"IS_JOL A",53,1,3,"BlockProc1","Full - Enough","B",21,0,13572,"StudyProc7","JOL","BlockProc1","Full - ?",21,"enough","recallproc1","recall"
"IS_JOL A",53,1,3,"BlockProc1","Drink - Sip","B",22,100,21492,"StudyProc7","JOL","BlockProc1","Drink - ?",22,"water","recallproc1","recall"
"IS_JOL A",53,1,3,"BlockProc1","Dark - Cave","B",23,100,25513,"StudyProc7","JOL","BlockProc1","Dark - ?",23,"death","recallproc1","recall"
"IS_JOL A",53,1,3,"BlockProc1","Take - Seize","B",24,10,24849,"StudyProc7","JOL","BlockProc1","Take - ?",24,"have","recallproc1","recall"
"IS_JOL A",53,1,3,"BlockProc1","Height - Growth","B",25,100,10771,"StudyProc7","JOL","BlockProc1","Height - ?",25,"tall","recallproc1","recall"
"IS_JOL A",53,1,3,"BlockProc1","Sentence - Word","B",26,100,21802,"StudyProc7","JOL","BlockProc1","Sentence - ?",26,"word","recallproc1","recall"
"IS_JOL A",53,1,3,"BlockProc1","Bug - Wasp","B",27,100,17730,"StudyProc7","JOL","BlockProc1","Bug - ?",27,"bee","recallproc1","recall"
"IS_JOL A",53,1,3,"BlockProc1","Math - Division","B",28,100,23538,"StudyProc7","JOL","BlockProc1","Math - ?",28,"division","recallproc1","recall"
"IS_JOL A",53,1,3,"BlockProc1","Law - Attorney","B",29,100,19725,"StudyProc7","JOL","BlockProc1","Law - ?",29,"attorney","recallproc1","recall"
"IS_JOL A",53,1,3,"BlockProc1","Great - Fantastic","B",30,100,21179,"StudyProc7","JOL","BlockProc1","Great - ?",30,"fantastic","recallproc1","recall"
"IS_JOL A",53,1,3,"BlockProc1","Key - Latch","B",31,10,15505,"StudyProc7","JOL","BlockProc1","Key - ?",31,"latch","recallproc1","recall"
"IS_JOL A",53,1,3,"BlockProc1","Hot - Chili","B",32,10,15945,"StudyProc7","JOL","BlockProc1","Hot - ?",32,"chil","recallproc1","recall"
"IS_JOL A",53,1,3,"BlockProc1","Ball - Racket","B",33,100,21565,"StudyProc7","JOL","BlockProc1","Ball - ?",33,"racket","recallproc1","recall"
"IS_JOL A",53,1,3,"BlockProc1","Work - Chore","B",34,10,18474,"StudyProc7","JOL","BlockProc1","Work - ?",34,"chores","recallproc1","recall"
"IS_JOL A",53,1,3,"BlockProc1","Hunger - Famine","B",35,10,27018,"StudyProc7","JOL","BlockProc1","Hunger - ?",35,"fatigue","recallproc1","recall"
"IS_JOL A",53,1,3,"BlockProc1","Sleep - Drowsy","B",36,100,19151,"StudyProc7","JOL","BlockProc1","Sleep - ?",36,"drowsey","recallproc1","recall"
"IS_JOL A",53,1,3,"BlockProc1","Smell - Stench","B",37,100,29255,"StudyProc7","JOL","BlockProc1","Smell - ?",37,"stinch","recallproc1","recall"
"IS_JOL A",53,1,3,"BlockProc1","Clothes - Attire","B",38,100,21358,"StudyProc7","JOL","BlockProc1","Clothes - ?",38,"attire","recallproc1","recall"
"IS_JOL A",53,1,3,"BlockProc1","Plane - Pilot","B",39,100,20588,"StudyProc7","JOL","BlockProc1","Plane - ?",39,"pilo","recallproc1","recall"
"IS_JOL A",53,1,3,"BlockProc1","Fire - Blaze","B",40,10,19043,"StudyProc7","JOL","BlockProc1","Fire - ?",40,"blaze","recallproc1","recall"
"IS_JOL A",53,1,3,"BlockProc1","Due - Assignment","S",41,10,19460,"StudyProc3","JOL","BlockProc1","Due - ?",41,"assignment","recallproc1","recall"
"IS_JOL A",53,1,3,"BlockProc1","Number - Amount","S",42,100,23392,"StudyProc3","JOL","BlockProc1","Number - ?",42,"amount","recallproc1","recall"
"IS_JOL A",53,1,3,"BlockProc1","Location - Site","S",43,100,28137,"StudyProc3","JOL","BlockProc1","Location - ?",43,"site","recallproc1","recall"
"IS_JOL A",53,1,3,"BlockProc1","Dump - Waste","S",44,10,29191,"StudyProc3","JOL","BlockProc1","Dump - ?",44,"waste","recallproc1","recall"
"IS_JOL A",53,1,3,"BlockProc1","Trial - Jury","S",45,100,19709,"StudyProc3","JOL","BlockProc1","Trial - ?",45,"jurty","recallproc1","recall"
"IS_JOL A",53,1,3,"BlockProc1","Architecture - Design","S",46,100,27341,"StudyProc3","JOL","BlockProc1","Architecture - ?",46,"design","recallproc1","recall"
"IS_JOL A",53,1,3,"BlockProc1","Grill - Bar","S",47,100,18302,"StudyProc3","JOL","BlockProc1","Grill - ?",47,"cook","recallproc1","recall"
"IS_JOL A",53,1,3,"BlockProc1","Kidney - Liver","S",48,10,20279,"StudyProc3","JOL","BlockProc1","Kidney - ?",48,"liver","recallproc1","recall"
"IS_JOL A",53,1,3,"BlockProc1","Begin - End","S",49,100,15451,"StudyProc3","JOL","BlockProc1","Begin - ?",49,"endf","recallproc1","recall"
"IS_JOL A",53,1,3,"BlockProc1","Blow - Wind","S",50,100,15163,"StudyProc3","JOL","BlockProc1","Blow - ?",50,"wind","recallproc1","recall"
"IS_JOL A",53,1,3,"BlockProc1","Pop - Soda","S",51,100,34551,"StudyProc3","JOL","BlockProc1","Pop - ?",51,"soda","recallproc1","recall"
"IS_JOL A",53,1,3,"BlockProc1","Wine - Cheese","S",52,100,20021,"StudyProc3","JOL","BlockProc1","Wine - ?",52,"cheese","recallproc1","recall"
"IS_JOL A",53,1,3,"BlockProc1","Bathroom - Toilet","S",53,100,20782,"StudyProc3","JOL","BlockProc1","Bathroom - ?",53,"toliet","recallproc1","recall"
"IS_JOL A",53,1,3,"BlockProc1","Lettuce - Salad","S",54,0,25173,"StudyProc3","JOL","BlockProc1","Lettuce - ?",54,"salad","recallproc1","recall"
"IS_JOL A",53,1,3,"BlockProc1","Shoe - Foot","S",55,100,20034,"StudyProc3","JOL","BlockProc1","Shoe - ?",55,"foo","recallproc1","recall"
"IS_JOL A",53,1,3,"BlockProc1","Past - Future","S",56,100,15195,"StudyProc3","JOL","BlockProc1","Past - ?",56,"present","recallproc1","recall"
"IS_JOL A",53,1,3,"BlockProc1","Choice - Decision","S",57,100,24239,"StudyProc3","JOL","BlockProc1","Choice - ?",57,"matter","recallproc1","recall"
"IS_JOL A",53,1,3,"BlockProc1","Honey - Bee","S",58,100,20750,"StudyProc3","JOL","BlockProc1","Honey - ?",58,"bee","recallproc1","recall"
"IS_JOL A",53,1,3,"BlockProc1","Baby - Child","S",59,10,25508,"StudyProc3","JOL","BlockProc1","Baby - ?",59,"chld","recallproc1","recall"
"IS_JOL A",53,1,3,"BlockProc1","Circle - Round","S",60,10,19908,"StudyProc3","JOL","BlockProc1","Circle - ?",60,"round","recallproc1","recall"
"IS_JOL A",53,1,3,"BlockProc1","Pusher - Clutter","U",61,10,25792,"StudyProc3","JOL","BlockProc1","Pusher - ?",61,"mean","recallproc1","recall"
"IS_JOL A",53,1,3,"BlockProc1","Dietary - Sacking","U",62,10,31228,"StudyProc3","JOL","BlockProc1","Dietary - ?",62,"healthy","recallproc1","recall"
"IS_JOL A",53,1,3,"BlockProc1","Park - Hungry","U",63,10,16451,"StudyProc3","JOL","BlockProc1","Park - ?",63,"swing","recallproc1","recall"
"IS_JOL A",53,1,3,"BlockProc1","Lift - Woman","U",64,10,20730,"StudyProc3","JOL","BlockProc1","Lift - ?",64,"strong","recallproc1","recall"
"IS_JOL A",53,1,3,"BlockProc1","Soon - Belt","U",65,10,17207,"StudyProc3","JOL","BlockProc1","Soon - ?",65,"now","recallproc1","recall"
"IS_JOL A",53,1,3,"BlockProc1","Discover - Floor","U",66,10,17440,"StudyProc3","JOL","BlockProc1","Discover - ?",66,"find","recallproc1","recall"
"IS_JOL A",53,1,3,"BlockProc1","Death - Business","U",67,10,18694,"StudyProc3","JOL","BlockProc1","Death - ?",67,"dark","recallproc1","recall"
"IS_JOL A",53,1,3,"BlockProc1","Debate - Sight","U",68,10,21131,"StudyProc3","JOL","BlockProc1","Debate - ?",68,"talk","recallproc1","recall"
"IS_JOL A",53,1,3,"BlockProc1","Artery - Bronze","U",69,10,36280,"StudyProc3","JOL","BlockProc1","Artery - ?",69,"vein","recallproc1","recall"
"IS_JOL A",53,1,3,"BlockProc1","Fix - Hand","U",70,10,20649,"StudyProc3","JOL","BlockProc1","Fix - ?",70,"accident","recallproc1","recall"
"IS_JOL A",53,1,3,"BlockProc1","Machine - Position","U",71,10,25143,"StudyProc3","JOL","BlockProc1","Machine - ?",71,"build","recallproc1","recall"
"IS_JOL A",53,1,3,"BlockProc1","Happy - Car","U",72,10,15468,"StudyProc3","JOL","BlockProc1","Happy - ?",72,"sad","recallproc1","recall"
"IS_JOL A",53,1,3,"BlockProc1","Allow - Tuck","U",73,10,25160,"StudyProc3","JOL","BlockProc1","Allow - ?",73,"trust","recallproc1","recall"
"IS_JOL A",53,1,3,"BlockProc1","Art - Lion","U",74,10,17336,"StudyProc3","JOL","BlockProc1","Art - ?",74,"artist","recallproc1","recall"
"IS_JOL A",53,1,3,"BlockProc1","Strong - Accident","U",75,10,19728,"StudyProc3","JOL","BlockProc1","Strong - ?",75,"weak","recallproc1","recall"
"IS_JOL A",53,1,3,"BlockProc1","Sugar - Riddle","U",76,10,21572,"StudyProc3","JOL","BlockProc1","Sugar - ?",76,"flou","recallproc1","recall"
"IS_JOL A",53,1,3,"BlockProc1","Valley - Add","U",77,10,18481,"StudyProc3","JOL","BlockProc1","Valley - ?",77,"hill","recallproc1","recall"
"IS_JOL A",53,1,3,"BlockProc1","Cash - Would","U",78,10,27086,"StudyProc3","JOL","BlockProc1","Cash - ?",78,"card","recallproc1","recall"
"IS_JOL A",53,1,3,"BlockProc1","Hide - Sick","U",79,10,17918,"StudyProc3","JOL","BlockProc1","Hide - ?",79,"seek","recallproc1","recall"
"IS_JOL A",53,1,3,"BlockProc1","King - Vase","U",80,10,30802,"StudyProc3","JOL","BlockProc1","King - ?",80,"artery","recallproc1","recall"
"READ_JOL A",49,2,3,"BlockProc2","Extension - Long","F",1,100,6204,"StudyProc5","JOL","BlockProc2","Extension - ?",1,"long","recallproc2","recall"
"READ_JOL A",49,2,3,"BlockProc2","Clue - Game","F",2,35,5187,"StudyProc5","JOL","BlockProc2","Clue - ?",2,"mystery","recallproc2","recall"
"READ_JOL A",49,2,3,"BlockProc2","Cactus - Plant","F",3,99,3638,"StudyProc5","JOL","BlockProc2","Cactus - ?",3,"plant","recallproc2","recall"
"READ_JOL A",49,2,3,"BlockProc2","Shoelace - Tie","F",4,100,5509,"StudyProc5","JOL","BlockProc2","Shoelace - ?",4,"tie","recallproc2","recall"
"READ_JOL A",49,2,3,"BlockProc2","Detective - Mystery","F",5,100,4186,"StudyProc5","JOL","BlockProc2","Detective - ?",5,"mystery","recallproc2","recall"
"READ_JOL A",49,2,3,"BlockProc2","Adjourn - End","F",6,68,6057,"StudyProc5","JOL","BlockProc2","Adjourn - ?",6,"diet","recallproc2","recall"
"READ_JOL A",49,2,3,"BlockProc2","Furry - Dog","F",7,100,2934,"StudyProc5","JOL","BlockProc2","Furry - ?",7,"dog","recallproc2","recall"
"READ_JOL A",49,2,3,"BlockProc2","Litter - Trash","F",8,99,3520,"StudyProc5","JOL","BlockProc2","Litter - ?",8,"trash","recallproc2","recall"
"READ_JOL A",49,2,3,"BlockProc2","Cherry - Red","F",9,99,5900,"StudyProc5","JOL","BlockProc2","Cherry - ?",9,"red","recallproc2","recall"
"READ_JOL A",49,2,3,"BlockProc2","Scalp - Head","F",10,0,4117,"StudyProc5","JOL","BlockProc2","Scalp - ?",10,"head","recallproc2","recall"
"READ_JOL A",49,2,3,"BlockProc2","Driver - Car","F",11,100,4661,"StudyProc5","JOL","BlockProc2","Driver - ?",11,"car","recallproc2","recall"
"READ_JOL A",49,2,3,"BlockProc2","Chop - Cut","F",12,100,5312,"StudyProc5","JOL","BlockProc2","Chop - ?",12,"cut","recallproc2","recall"
"READ_JOL A",49,2,3,"BlockProc2","Mule - Donkey","F",13,0,3298,"StudyProc5","JOL","BlockProc2","Mule - ?",13,"mouse","recallproc2","recall"
"READ_JOL A",49,2,3,"BlockProc2","Document - Paper","F",14,66,4186,"StudyProc5","JOL","BlockProc2","Document - ?",14,"papers","recallproc2","recall"
"READ_JOL A",49,2,3,"BlockProc2","Incense - Smell","F",15,56,12301,"StudyProc5","JOL","BlockProc2","Incense - ?",15,"smell","recallproc2","recall"
"READ_JOL A",49,2,3,"BlockProc2","Dine - Eat","F",16,98,5409,"StudyProc5","JOL","BlockProc2","Dine - ?",16,"eat","recallproc2","recall"
"READ_JOL A",49,2,3,"BlockProc2","Shears - Scissors","F",17,0,2539,"StudyProc5","JOL","BlockProc2","Shears - ?",17,"shell","recallproc2","recall"
"READ_JOL A",49,2,3,"BlockProc2","Feud - Fight","F",18,45,4231,"StudyProc5","JOL","BlockProc2","Feud - ?",18,"dirrt","recallproc2","recall"
"READ_JOL A",49,2,3,"BlockProc2","Chill - Cold","F",19,67,4313,"StudyProc5","JOL","BlockProc2","Chill - ?",19,"cold","recallproc2","recall"
"READ_JOL A",49,2,3,"BlockProc2","Affection - Love","F",20,50,5760,"StudyProc5","JOL","BlockProc2","Affection - ?",20,"love","recallproc2","recall"
"READ_JOL A",49,2,3,"BlockProc2","Turn - Flip","B",21,100,5062,"StudyProc5","JOL","BlockProc2","Turn - ?",21,"heat","recallproc2","recall"
"READ_JOL A",49,2,3,"BlockProc2","Car - Windshield","B",22,54,5726,"StudyProc5","JOL","BlockProc2","Car - ?",22,"driver","recallproc2","recall"
"READ_JOL A",49,2,3,"BlockProc2","Bad - Villain","B",23,87,6466,"StudyProc5","JOL","BlockProc2","Bad - ?",23,"cold","recallproc2","recall"
"READ_JOL A",49,2,3,"BlockProc2","Bird - Penguin","B",24,0,3405,"StudyProc5","JOL","BlockProc2","Bird - ?",24,"feather","recallproc2","recall"
"READ_JOL A",49,2,3,"BlockProc2","Star - Actress","B",25,55,2762,"StudyProc5","JOL","BlockProc2","Star - ?",25,"treck","recallproc2","recall"
"READ_JOL A",49,2,3,"BlockProc2","Thread - Thimble","B",26,0,2450,"StudyProc5","JOL","BlockProc2","Thread - ?",26,"thin","recallproc2","recall"
"READ_JOL A",49,2,3,"BlockProc2","Even - Revenge","B",27,100,4450,"StudyProc5","JOL","BlockProc2","Even - ?",27,"fair","recallproc2","recall"
"READ_JOL A",49,2,3,"BlockProc2","Pop - Balloon","B",28,100,3066,"StudyProc5","JOL","BlockProc2","Pop - ?",28,"soda","recallproc2","recall"
"READ_JOL A",49,2,3,"BlockProc2","Fruit - Strawberry","B",29,0,5739,"StudyProc5","JOL","BlockProc2","Fruit - ?",29,"strawberry","recallproc2","recall"
"READ_JOL A",49,2,3,"BlockProc2","Best - Favorite","B",30,89,9597,"StudyProc5","JOL","BlockProc2","Best - ?",30,"great","recallproc2","recall"
"READ_JOL A",49,2,3,"BlockProc2","Cat - Panther","B",31,0,2390,"StudyProc5","JOL","BlockProc2","Cat - ?",31,"dog","recallproc2","recall"
"READ_JOL A",49,2,3,"BlockProc2","Glass - Breakable","B",32,0,2422,"StudyProc5","JOL","BlockProc2","Glass - ?",32,"breakable","recallproc2","recall"
"READ_JOL A",49,2,3,"BlockProc2","Dead - Coffin","B",33,0,2005,"StudyProc5","JOL","BlockProc2","Dead - ?",33,"coffin","recallproc2","recall"
"READ_JOL A",49,2,3,"BlockProc2","Plane - Aircraft","B",34,100,3519,"StudyProc5","JOL","BlockProc2","Plane - ?",34,"pilot","recallproc2","recall"
"READ_JOL A",49,2,3,"BlockProc2","Fish - Sardine","B",35,0,2768,"StudyProc5","JOL","BlockProc2","Fish - ?",35,"tunna","recallproc2","recall"
"READ_JOL A",49,2,3,"BlockProc2","Baseball - League","B",36,0,2601,"StudyProc5","JOL","BlockProc2","Baseball - ?",36,"catcher","recallproc2","recall"
"READ_JOL A",49,2,3,"BlockProc2","Money - Banker","B",37,55,4969,"StudyProc5","JOL","BlockProc2","Money - ?",37,"loan","recallproc2","recall"
"READ_JOL A",49,2,3,"BlockProc2","Honest - Truthful","B",38,100,2931,"StudyProc5","JOL","BlockProc2","Honest - ?",38,"truthful","recallproc2","recall"
"READ_JOL A",49,2,3,"BlockProc2","Sleep - Nap","B",39,100,4982,"StudyProc5","JOL","BlockProc2","Sleep - ?",39,"drowsy","recallproc2","recall"
"READ_JOL A",49,2,3,"BlockProc2","Fight - Brawl","B",40,0,3279,"StudyProc5","JOL","BlockProc2","Fight - ?",40,"ground","recallproc2","recall"
"READ_JOL A",49,2,3,"BlockProc2","Razor - Shave","S",41,100,4787,"StudyProc8","JOL","BlockProc2","Razor - ?",41,"shave","recallproc2","recall"
"READ_JOL A",49,2,3,"BlockProc2","Rights - Equal","S",42,100,5565,"StudyProc8","JOL","BlockProc2","Rights - ?",42,"law","recallproc2","recall"
"READ_JOL A",49,2,3,"BlockProc2","Mason - Jar","S",43,100,2831,"StudyProc8","JOL","BlockProc2","Mason - ?",43,"jar","recallproc2","recall"
"READ_JOL A",49,2,3,"BlockProc2","Candle - Wax","S",44,100,2953,"StudyProc8","JOL","BlockProc2","Candle - ?",44,"wax","recallproc2","recall"
"READ_JOL A",49,2,3,"BlockProc2","Wrist - Bracelet","S",45,76,2638,"StudyProc8","JOL","BlockProc2","Wrist - ?",45,"band","recallproc2","recall"
"READ_JOL A",49,2,3,"BlockProc2","Element - Carbon","S",46,87,4590,"StudyProc8","JOL","BlockProc2","Element - ?",46,"atom","recallproc2","recall"
"READ_JOL A",49,2,3,"BlockProc2","Gone - Away","S",47,100,4914,"StudyProc8","JOL","BlockProc2","Gone - ?",47,"away","recallproc2","recall"
"READ_JOL A",49,2,3,"BlockProc2","Water - Drink","S",48,100,3496,"StudyProc8","JOL","BlockProc2","Water - ?",48,"bridge","recallproc2","recall"
"READ_JOL A",49,2,3,"BlockProc2","Earth - Ground","S",49,100,2971,"StudyProc8","JOL","BlockProc2","Earth - ?",49,"round","recallproc2","recall"
"READ_JOL A",49,2,3,"BlockProc2","Alone - Lonely","S",50,100,7736,"StudyProc8","JOL","BlockProc2","Alone - ?",50,"lonely","recallproc2","recall"
"READ_JOL A",49,2,3,"BlockProc2","Dry - Wet","S",51,88,10042,"StudyProc8","JOL","BlockProc2","Dry - ?",51,"wet","recallproc2","recall"
"READ_JOL A",49,2,3,"BlockProc2","Safety - Seatbelt","S",52,100,6424,"StudyProc8","JOL","BlockProc2","Safety - ?",52,"match","recallproc2","recall"
"READ_JOL A",49,2,3,"BlockProc2","Truth - Lie","S",53,98,3446,"StudyProc8","JOL","BlockProc2","Truth - ?",53,"trustworthy","recallproc2","recall"
"READ_JOL A",49,2,3,"BlockProc2","Phone - Communicatio","S",54,100,7211,"StudyProc8","JOL","BlockProc2","Phone - ?",54,"call","recallproc2","recall"
"READ_JOL A",49,2,3,"BlockProc2","Rod - Reel","S",55,76,5714,"StudyProc8","JOL","BlockProc2","Rod - ?",55,"lever","recallproc2","recall"
"READ_JOL A",49,2,3,"BlockProc2","Flea - Tick","S",56,100,3367,"StudyProc8","JOL","BlockProc2","Flea - ?",56,"tick","recallproc2","recall"
"READ_JOL A",49,2,3,"BlockProc2","Loud - Noise","S",57,100,3160,"StudyProc8","JOL","BlockProc2","Loud - ?",57,"noise","recallproc2","recall"
"READ_JOL A",49,2,3,"BlockProc2","Own - Have","S",58,98,4796,"StudyProc8","JOL","BlockProc2","Own - ?",58,"car","recallproc2","recall"
"READ_JOL A",49,2,3,"BlockProc2","Tantrum - Temper","S",59,100,2879,"StudyProc8","JOL","BlockProc2","Tantrum - ?",59,"temper","recallproc2","recall"
"READ_JOL A",49,2,3,"BlockProc2","Sun - Tan","S",60,100,3939,"StudyProc8","JOL","BlockProc2","Sun - ?",60,"above","recallproc2","recall"
"READ_JOL A",49,2,3,"BlockProc2","Justice - Maroon","U",61,0,4583,"StudyProc8","JOL","BlockProc2","Justice - ?",61,"fair","recallproc2","recall"
"READ_JOL A",49,2,3,"BlockProc2","Stretch - Cloth","U",62,28,4928,"StudyProc8","JOL","BlockProc2","Stretch - ?",62,"extend","recallproc2","recall"
"READ_JOL A",49,2,3,"BlockProc2","Give - Steak","U",63,65,8654,"StudyProc8","JOL","BlockProc2","Give - ?",63,"book","recallproc2","recall"
"READ_JOL A",49,2,3,"BlockProc2","Maze - Election","U",64,0,1985,"StudyProc8","JOL","BlockProc2","Maze - ?",64,"mystery","recallproc2","recall"
"READ_JOL A",49,2,3,"BlockProc2","Vehicle - Charm","U",65,54,7224,"StudyProc8","JOL","BlockProc2","Vehicle - ?",65,"drive","recallproc2","recall"
"READ_JOL A",49,2,3,"BlockProc2","Meat - Obtain","U",66,23,3511,"StudyProc8","JOL","BlockProc2","Meat - ?",66,"smell","recallproc2","recall"
"READ_JOL A",49,2,3,"BlockProc2","Crackle - Able","U",67,25,4183,"StudyProc8","JOL","BlockProc2","Crackle - ?",67,"joke","recallproc2","recall"
"READ_JOL A",49,2,3,"BlockProc2","Shell - Shake","U",68,0,3096,"StudyProc8","JOL","BlockProc2","Shell - ?",68,"shear","recallproc2","recall"
"READ_JOL A",49,2,3,"BlockProc2","Listen - Fiction","U",69,87,3704,"StudyProc8","JOL","BlockProc2","Listen - ?",69,"hear","recallproc2","recall"
"READ_JOL A",49,2,3,"BlockProc2","Keys - Joke","U",70,0,3983,"StudyProc8","JOL","BlockProc2","Keys - ?",70,"chain","recallproc2","recall"
"READ_JOL A",49,2,3,"BlockProc2","Cake - Clothes","U",71,46,2519,"StudyProc8","JOL","BlockProc2","Cake - ?",71,"sweet","recallproc2","recall"
"READ_JOL A",49,2,3,"BlockProc2","Name - Hate","U",72,34,3123,"StudyProc8","JOL","BlockProc2","Name - ?",72,"tag","recallproc2","recall"
"READ_JOL A",49,2,3,"BlockProc2","Fuzzy - Bang","U",73,54,4456,"StudyProc8","JOL","BlockProc2","Fuzzy - ?",73,"dog","recallproc2","recall"
"READ_JOL A",49,2,3,"BlockProc2","Moat - Clear","U",74,0,2278,"StudyProc8","JOL","BlockProc2","Moat - ?",74,"mule","recallproc2","recall"
"READ_JOL A",49,2,3,"BlockProc2","Lease - Toil","U",75,67,5206,"StudyProc8","JOL","BlockProc2","Lease - ?",75,"throw","recallproc2","recall"
"READ_JOL A",49,2,3,"BlockProc2","Loan - Sign","U",76,65,3160,"StudyProc8","JOL","BlockProc2","Loan - ?",76,"money","recallproc2","recall"
"READ_JOL A",49,2,3,"BlockProc2","Both - Ounce","U",77,35,5784,"StudyProc8","JOL","BlockProc2","Both - ?",77,"tan","recallproc2","recall"
"READ_JOL A",49,2,3,"BlockProc2","Temperature - Morning","U",78,0,5642,"StudyProc8","JOL","BlockProc2","Temperature - ?",78,"dry","recallproc2","recall"
"READ_JOL A",49,2,3,"BlockProc2","Mirror - Children","U",79,45,7820,"StudyProc8","JOL","BlockProc2","Mirror - ?",79,"children","recallproc2","recall"
"READ_JOL A",49,2,3,"BlockProc2","Main - Scar","U",80,0,2962,"StudyProc8","JOL","BlockProc2","Main - ?",80,"phone","recallproc2","recall"
"IS_JOL A",53,2,3,"BlockProc2","Extension - Long","F",1,70,9037,"StudyProc5","JOL","BlockProc2","Extension - ?",1,"lon","recallproc2","recall"
"IS_JOL A",53,2,3,"BlockProc2","Clue - Game","F",2,80,9058,"StudyProc5","JOL","BlockProc2","Clue - ?",2,"mind","recallproc2","recall"
"IS_JOL A",53,2,3,"BlockProc2","Cactus - Plant","F",3,60,8884,"StudyProc5","JOL","BlockProc2","Cactus - ?",3,"plant","recallproc2","recall"
"IS_JOL A",53,2,3,"BlockProc2","Shoelace - Tie","F",4,8,9230,"StudyProc5","JOL","BlockProc2","Shoelace - ?",4,"shoe","recallproc2","recall"
"IS_JOL A",53,2,3,"BlockProc2","Detective - Mystery","F",5,90,8986,"StudyProc5","JOL","BlockProc2","Detective - ?",5,"truth","recallproc2","recall"
"IS_JOL A",53,2,3,"BlockProc2","Adjourn - End","F",6,70,10919,"StudyProc5","JOL","BlockProc2","Adjourn - ?",6,"joury","recallproc2","recall"
"IS_JOL A",53,2,3,"BlockProc2","Furry - Dog","F",7,60,11040,"StudyProc5","JOL","BlockProc2","Furry - ?",7,"dog","recallproc2","recall"
"IS_JOL A",53,2,3,"BlockProc2","Litter - Trash","F",8,80,8182,"StudyProc5","JOL","BlockProc2","Litter - ?",8,"trash","recallproc2","recall"
"IS_JOL A",53,2,3,"BlockProc2","Cherry - Red","F",9,60,7097,"StudyProc5","JOL","BlockProc2","Cherry - ?",9,"rede","recallproc2","recall"
"IS_JOL A",53,2,3,"BlockProc2","Scalp - Head","F",10,90,11399,"StudyProc5","JOL","BlockProc2","Scalp - ?",10,"hair","recallproc2","recall"
"IS_JOL A",53,2,3,"BlockProc2","Driver - Car","F",11,80,11579,"StudyProc5","JOL","BlockProc2","Driver - ?",11,"car","recallproc2","recall"
"IS_JOL A",53,2,3,"BlockProc2","Chop - Cut","F",12,80,10529,"StudyProc5","JOL","BlockProc2","Chop - ?",12,"cut","recallproc2","recall"
"IS_JOL A",53,2,3,"BlockProc2","Mule - Donkey","F",13,90,17137,"StudyProc5","JOL","BlockProc2","Mule - ?",13,"donkey","recallproc2","recall"
"IS_JOL A",53,2,3,"BlockProc2","Document - Paper","F",14,80,14118,"StudyProc5","JOL","BlockProc2","Document - ?",14,"paper","recallproc2","recall"
"IS_JOL A",53,2,3,"BlockProc2","Incense - Smell","F",15,90,25454,"StudyProc5","JOL","BlockProc2","Incense - ?",15,"sell","recallproc2","recall"
"IS_JOL A",53,2,3,"BlockProc2","Dine - Eat","F",16,80,9977,"StudyProc5","JOL","BlockProc2","Dine - ?",16,"eat","recallproc2","recall"
"IS_JOL A",53,2,3,"BlockProc2","Shears - Scissors","F",17,80,12446,"StudyProc5","JOL","BlockProc2","Shears - ?",17,"scissors","recallproc2","recall"
"IS_JOL A",53,2,3,"BlockProc2","Feud - Fight","F",18,8,9417,"StudyProc5","JOL","BlockProc2","Feud - ?",18,"war","recallproc2","recall"
"IS_JOL A",53,2,3,"BlockProc2","Chill - Cold","F",19,60,11942,"StudyProc5","JOL","BlockProc2","Chill - ?",19,"water","recallproc2","recall"
"IS_JOL A",53,2,3,"BlockProc2","Affection - Love","F",20,80,13985,"StudyProc5","JOL","BlockProc2","Affection - ?",20,"love","recallproc2","recall"
"IS_JOL A",53,2,3,"BlockProc2","Turn - Flip","B",21,80,10028,"StudyProc5","JOL","BlockProc2","Turn - ?",21,"flip","recallproc2","recall"
"IS_JOL A",53,2,3,"BlockProc2","Car - Windshield","B",22,60,11166,"StudyProc5","JOL","BlockProc2","Car - ?",22,"drive","recallproc2","recall"
"IS_JOL A",53,2,3,"BlockProc2","Bad - Villain","B",23,80,13786,"StudyProc5","JOL","BlockProc2","Bad - ?",23,"good","recallproc2","recall"
"IS_JOL A",53,2,3,"BlockProc2","Bird - Penguin","B",24,80,8498,"StudyProc5","JOL","BlockProc2","Bird - ?",24,"dog","recallproc2","recall"
"IS_JOL A",53,2,3,"BlockProc2","Star - Actress","B",25,70,13308,"StudyProc5","JOL","BlockProc2","Star - ?",25,"moon","recallproc2","recall"
"IS_JOL A",53,2,3,"BlockProc2","Thread - Thimble","B",26,70,11958,"StudyProc5","JOL","BlockProc2","Thread - ?",26,"needle","recallproc2","recall"
"IS_JOL A",53,2,3,"BlockProc2","Even - Revenge","B",27,78,13111,"StudyProc5","JOL","BlockProc2","Even - ?",27,"odd","recallproc2","recall"
"IS_JOL A",53,2,3,"BlockProc2","Pop - Balloon","B",28,80,7752,"StudyProc5","JOL","BlockProc2","Pop - ?",28,"balloon","recallproc2","recall"
"IS_JOL A",53,2,3,"BlockProc2","Fruit - Strawberry","B",29,80,12311,"StudyProc5","JOL","BlockProc2","Fruit - ?",29,"st4rawberr","recallproc2","recall"
"IS_JOL A",53,2,3,"BlockProc2","Best - Favorite","B",30,80,10265,"StudyProc5","JOL","BlockProc2","Best - ?",30,"favorite","recallproc2","recall"
"IS_JOL A",53,2,3,"BlockProc2","Cat - Panther","B",31,80,12287,"StudyProc5","JOL","BlockProc2","Cat - ?",31,"dog","recallproc2","recall"
"IS_JOL A",53,2,3,"BlockProc2","Glass - Breakable","B",32,60,14028,"StudyProc5","JOL","BlockProc2","Glass - ?",32,"water","recallproc2","recall"
"IS_JOL A",53,2,3,"BlockProc2","Dead - Coffin","B",33,60,6776,"StudyProc5","JOL","BlockProc2","Dead - ?",33,"alive","recallproc2","recall"
"IS_JOL A",53,2,3,"BlockProc2","Plane - Aircraft","B",34,90,16601,"StudyProc5","JOL","BlockProc2","Plane - ?",34,"aircrft","recallproc2","recall"
"IS_JOL A",53,2,3,"BlockProc2","Fish - Sardine","B",35,80,14719,"StudyProc5","JOL","BlockProc2","Fish - ?",35,"tuna","recallproc2","recall"
"IS_JOL A",53,2,3,"BlockProc2","Baseball - League","B",36,890,13216,"StudyProc5","JOL","BlockProc2","Baseball - ?",36,"catcher","recallproc2","recall"
"IS_JOL A",53,2,3,"BlockProc2","Money - Banker","B",37,80,11818,"StudyProc5","JOL","BlockProc2","Money - ?",37,"cash","recallproc2","recall"
"IS_JOL A",53,2,3,"BlockProc2","Honest - Truthful","B",38,70,18167,"StudyProc5","JOL","BlockProc2","Honest - ?",38,"opinion","recallproc2","recall"
"IS_JOL A",53,2,3,"BlockProc2","Sleep - Nap","B",39,80,10697,"StudyProc5","JOL","BlockProc2","Sleep - ?",39,"nap","recallproc2","recall"
"IS_JOL A",53,2,3,"BlockProc2","Fight - Brawl","B",40,70,8387,"StudyProc5","JOL","BlockProc2","Fight - ?",40,"wr","recallproc2","recall"
"IS_JOL A",53,2,3,"BlockProc2","Razor - Shave","S",41,60,13596,"StudyProc8","JOL","BlockProc2","Razor - ?",41,"blade","recallproc2","recall"
"IS_JOL A",53,2,3,"BlockProc2","Rights - Equal","S",42,60,20727,"StudyProc8","JOL","BlockProc2","Rights - ?",42,"law","recallproc2","recall"
"IS_JOL A",53,2,3,"BlockProc2","Mason - Jar","S",43,58,11159,"StudyProc8","JOL","BlockProc2","Mason - ?",43,"name","recallproc2","recall"
"IS_JOL A",53,2,3,"BlockProc2","Candle - Wax","S",44,80,16080,"StudyProc8","JOL","BlockProc2","Candle - ?",44,"aroma","recallproc2","recall"
"IS_JOL A",53,2,3,"BlockProc2","Wrist - Bracelet","S",45,70,12895,"StudyProc8","JOL","BlockProc2","Wrist - ?",45,"hanmd","recallproc2","recall"
"IS_JOL A",53,2,3,"BlockProc2","Element - Carbon","S",46,60,22329,"StudyProc8","JOL","BlockProc2","Element - ?",46,"carbon","recallproc2","recall"
"IS_JOL A",53,2,3,"BlockProc2","Gone - Away","S",47,70,11442,"StudyProc8","JOL","BlockProc2","Gone - ?",47,"gone","recallproc2","recall"
"IS_JOL A",53,2,3,"BlockProc2","Water - Drink","S",48,50,17362,"StudyProc8","JOL","BlockProc2","Water - ?",48,"earth","recallproc2","recall"
"IS_JOL A",53,2,3,"BlockProc2","Earth - Ground","S",49,40,10080,"StudyProc8","JOL","BlockProc2","Earth - ?",49,"water","recallproc2","recall"
"IS_JOL A",53,2,3,"BlockProc2","Alone - Lonely","S",50,45,12279,"StudyProc8","JOL","BlockProc2","Alone - ?",50,"lonley","recallproc2","recall"
"IS_JOL A",53,2,3,"BlockProc2","Dry - Wet","S",51,80,17866,"StudyProc8","JOL","BlockProc2","Dry - ?",51,"wet","recallproc2","recall"
"IS_JOL A",53,2,3,"BlockProc2","Safety - Seatbelt","S",52,60,15709,"StudyProc8","JOL","BlockProc2","Safety - ?",52,"seatbelt","recallproc2","recall"
"IS_JOL A",53,2,3,"BlockProc2","Truth - Lie","S",53,49,22612,"StudyProc8","JOL","BlockProc2","Truth - ?",53,"honest","recallproc2","recall"
"IS_JOL A",53,2,3,"BlockProc2","Phone - Communicatio","S",54,70,15362,"StudyProc8","JOL","BlockProc2","Phone - ?",54,"person","recallproc2","recall"
"IS_JOL A",53,2,3,"BlockProc2","Rod - Reel","S",55,39,11538,"StudyProc8","JOL","BlockProc2","Rod - ?",55,"reel","recallproc2","recall"
"IS_JOL A",53,2,3,"BlockProc2","Flea - Tick","S",56,70,16594,"StudyProc8","JOL","BlockProc2","Flea - ?",56,"tick","recallproc2","recall"
"IS_JOL A",53,2,3,"BlockProc2","Loud - Noise","S",57,70,16062,"StudyProc8","JOL","BlockProc2","Loud - ?",57,"noise","recallproc2","recall"
"IS_JOL A",53,2,3,"BlockProc2","Own - Have","S",58,60,16616,"StudyProc8","JOL","BlockProc2","Own - ?",58,"lease","recallproc2","recall"
"IS_JOL A",53,2,3,"BlockProc2","Tantrum - Temper","S",59,80,9026,"StudyProc8","JOL","BlockProc2","Tantrum - ?",59,"bad","recallproc2","recall"
"IS_JOL A",53,2,3,"BlockProc2","Sun - Tan","S",60,50,10610,"StudyProc8","JOL","BlockProc2","Sun - ?",60,"moon","recallproc2","recall"
"IS_JOL A",53,2,3,"BlockProc2","Justice - Maroon","U",61,69,15418,"StudyProc8","JOL","BlockProc2","Justice - ?",61,"court","recallproc2","recall"
"IS_JOL A",53,2,3,"BlockProc2","Stretch - Cloth","U",62,60,18322,"StudyProc8","JOL","BlockProc2","Stretch - ?",62,"flip","recallproc2","recall"
"IS_JOL A",53,2,3,"BlockProc2","Give - Steak","U",63,70,9604,"StudyProc8","JOL","BlockProc2","Give - ?",63,"take","recallproc2","recall"
"IS_JOL A",53,2,3,"BlockProc2","Maze - Election","U",64,80,14882,"StudyProc8","JOL","BlockProc2","Maze - ?",64,"find","recallproc2","recall"
"IS_JOL A",53,2,3,"BlockProc2","Vehicle - Charm","U",65,80,9412,"StudyProc8","JOL","BlockProc2","Vehicle - ?",65,"car","recallproc2","recall"
"IS_JOL A",53,2,3,"BlockProc2","Meat - Obtain","U",66,70,13231,"StudyProc8","JOL","BlockProc2","Meat - ?",66,"cow","recallproc2","recall"
"IS_JOL A",53,2,3,"BlockProc2","Crackle - Able","U",67,70,12948,"StudyProc8","JOL","BlockProc2","Crackle - ?",67,"pop","recallproc2","recall"
"IS_JOL A",53,2,3,"BlockProc2","Shell - Shake","U",68,50,13423,"StudyProc8","JOL","BlockProc2","Shell - ?",68,"beach","recallproc2","recall"
"IS_JOL A",53,2,3,"BlockProc2","Listen - Fiction","U",69,78,15789,"StudyProc8","JOL","BlockProc2","Listen - ?",69,"hear","recallproc2","recall"
"IS_JOL A",53,2,3,"BlockProc2","Keys - Joke","U",70,30,7751,"StudyProc8","JOL","BlockProc2","Keys - ?",70,"latch","recallproc2","recall"
"IS_JOL A",53,2,3,"BlockProc2","Cake - Clothes","U",71,80,9890,"StudyProc8","JOL","BlockProc2","Cake - ?",71,"birthday","recallproc2","recall"
"IS_JOL A",53,2,3,"BlockProc2","Name - Hate","U",72,80,10281,"StudyProc8","JOL","BlockProc2","Name - ?",72,"person","recallproc2","recall"
"IS_JOL A",53,2,3,"BlockProc2","Fuzzy - Bang","U",73,60,13970,"StudyProc8","JOL","BlockProc2","Fuzzy - ?",73,"dog","recallproc2","recall"
"IS_JOL A",53,2,3,"BlockProc2","Moat - Clear","U",74,70,15404,"StudyProc8","JOL","BlockProc2","Moat - ?",74,"love","recallproc2","recall"
"IS_JOL A",53,2,3,"BlockProc2","Lease - Toil","U",75,40,15371,"StudyProc8","JOL","BlockProc2","Lease - ?",75,"own","recallproc2","recall"
"IS_JOL A",53,2,3,"BlockProc2","Loan - Sign","U",76,70,16137,"StudyProc8","JOL","BlockProc2","Loan - ?",76,"money","recallproc2","recall"
"IS_JOL A",53,2,3,"BlockProc2","Both - Ounce","U",77,40,11706,"StudyProc8","JOL","BlockProc2","Both - ?",77,"few","recallproc2","recall"
"IS_JOL A",53,2,3,"BlockProc2","Temperature - Morning","U",78,50,9892,"StudyProc8","JOL","BlockProc2","Temperature - ?",78,"hot","recallproc2","recall"
"IS_JOL A",53,2,3,"BlockProc2","Mirror - Children","U",79,50,10981,"StudyProc8","JOL","BlockProc2","Mirror - ?",79,"self","recallproc2","recall"
"IS_JOL A",53,2,3,"BlockProc2","Main - Scar","U",80,80,17676,"StudyProc8","JOL","BlockProc2","Main - ?",80,"purpose","recallproc2","recall"
"READ_JOL B",50,1,3,"BlockProc1","Extension - Long","F",1,20,3383,"StudyProc3","JOL","BlockProc1","Extension - ?",1,"cord","recallproc1","recall"
"READ_JOL B",50,1,3,"BlockProc1","Clue - Game","F",2,20,2775,"StudyProc3","JOL","BlockProc1","Clue - ?",2,"game","recallproc1","recall"
"READ_JOL B",50,1,3,"BlockProc1","Cactus - Plant","F",3,60,3515,"StudyProc3","JOL","BlockProc1","Cactus - ?",3,"sharp","recallproc1","recall"
"READ_JOL B",50,1,3,"BlockProc1","Shoelace - Tie","F",4,50,5730,"StudyProc3","JOL","BlockProc1","Shoelace - ?",4,"tie","recallproc1","recall"
"READ_JOL B",50,1,3,"BlockProc1","Detective - Mystery","F",5,90,6422,"StudyProc3","JOL","BlockProc1","Detective - ?",5,"mystery","recallproc1","recall"
"READ_JOL B",50,1,3,"BlockProc1","Adjourn - End","F",6,30,4050,"StudyProc3","JOL","BlockProc1","Adjourn - ?",6,"end","recallproc1","recall"
"READ_JOL B",50,1,3,"BlockProc1","Furry - Dog","F",7,90,2966,"StudyProc3","JOL","BlockProc1","Furry - ?",7,"dog","recallproc1","recall"
"READ_JOL B",50,1,3,"BlockProc1","Litter - Trash","F",8,60,2427,"StudyProc3","JOL","BlockProc1","Litter - ?",8,"trash","recallproc1","recall"
"READ_JOL B",50,1,3,"BlockProc1","Cherry - Red","F",9,95,4984,"StudyProc3","JOL","BlockProc1","Cherry - ?",9,"red","recallproc1","recall"
"READ_JOL B",50,1,3,"BlockProc1","Scalp - Head","F",10,30,2387,"StudyProc3","JOL","BlockProc1","Scalp - ?",10,"hair","recallproc1","recall"
"READ_JOL B",50,1,3,"BlockProc1","Driver - Car","F",11,50,2961,"StudyProc3","JOL","BlockProc1","Driver - ?",11,"passenger","recallproc1","recall"
"READ_JOL B",50,1,3,"BlockProc1","Chop - Cut","F",12,70,2889,"StudyProc3","JOL","BlockProc1","Chop - ?",12,"cut","recallproc1","recall"
"READ_JOL B",50,1,3,"BlockProc1","Mule - Donkey","F",13,60,2290,"StudyProc3","JOL","BlockProc1","Mule - ?",13,"donkey","recallproc1","recall"
"READ_JOL B",50,1,3,"BlockProc1","Document - Paper","F",14,30,3403,"StudyProc3","JOL","BlockProc1","Document - ?",14,"paper","recallproc1","recall"
"READ_JOL B",50,1,3,"BlockProc1","Incense - Smell","F",15,60,4050,"StudyProc3","JOL","BlockProc1","Incense - ?",15,"smell","recallproc1","recall"
"READ_JOL B",50,1,3,"BlockProc1","Dine - Eat","F",16,80,2762,"StudyProc3","JOL","BlockProc1","Dine - ?",16,"eat","recallproc1","recall"
"READ_JOL B",50,1,3,"BlockProc1","Shears - Scissors","F",17,30,4127,"StudyProc3","JOL","BlockProc1","Shears - ?",17,"scissors","recallproc1","recall"
"READ_JOL B",50,1,3,"BlockProc1","Feud - Fight","F",18,40,3479,"StudyProc3","JOL","BlockProc1","Feud - ?",18,"bral","recallproc1","recall"
"READ_JOL B",50,1,3,"BlockProc1","Chill - Cold","F",19,60,6410,"StudyProc3","JOL","BlockProc1","Chill - ?",19,"cold","recallproc1","recall"
"READ_JOL B",50,1,3,"BlockProc1","Affection - Love","F",20,80,3217,"StudyProc3","JOL","BlockProc1","Affection - ?",20,"love","recallproc1","recall"
"READ_JOL B",50,1,3,"BlockProc1","Turn - Flip","B",21,70,3195,"StudyProc3","JOL","BlockProc1","Turn - ?",21,"flip","recallproc1","recall"
"READ_JOL B",50,1,3,"BlockProc1","Car - Windshield","B",22,40,2696,"StudyProc3","JOL","BlockProc1","Car - ?",22,"keys","recallproc1","recall"
"READ_JOL B",50,1,3,"BlockProc1","Bad - Villain","B",23,50,3474,"StudyProc3","JOL","BlockProc1","Bad - ?",23,"villain","recallproc1","recall"
"READ_JOL B",50,1,3,"BlockProc1","Bird - Penguin","B",24,50,6302,"StudyProc3","JOL","BlockProc1","Bird - ?",24,"song","recallproc1","recall"
"READ_JOL B",50,1,3,"BlockProc1","Star - Actress","B",25,30,8749,"StudyProc3","JOL","BlockProc1","Star - ?",25,"movie","recallproc1","recall"
"READ_JOL B",50,1,3,"BlockProc1","Thread - Thimble","B",26,70,3717,"StudyProc3","JOL","BlockProc1","Thread - ?",26,"sew","recallproc1","recall"
"READ_JOL B",50,1,3,"BlockProc1","Even - Revenge","B",27,10,2777,"StudyProc3","JOL","BlockProc1","Even - ?",27,"revenge","recallproc1","recall"
"READ_JOL B",50,1,3,"BlockProc1","Pop - Balloon","B",28,90,1804,"StudyProc3","JOL","BlockProc1","Pop - ?",28,"crackle","recallproc1","recall"
"READ_JOL B",50,1,3,"BlockProc1","Fruit - Strawberry","B",29,80,2948,"StudyProc3","JOL","BlockProc1","Fruit - ?",29,"strawberry","recallproc1","recall"
"READ_JOL B",50,1,3,"BlockProc1","Best - Favorite","B",30,70,3264,"StudyProc3","JOL","BlockProc1","Best - ?",30,"favorite","recallproc1","recall"
"READ_JOL B",50,1,3,"BlockProc1","Cat - Panther","B",31,40,4640,"StudyProc3","JOL","BlockProc1","Cat - ?",31,"furry","recallproc1","recall"
"READ_JOL B",50,1,3,"BlockProc1","Glass - Breakable","B",32,30,4391,"StudyProc3","JOL","BlockProc1","Glass - ?",32,"window","recallproc1","recall"
"READ_JOL B",50,1,3,"BlockProc1","Dead - Coffin","B",33,95,4820,"StudyProc3","JOL","BlockProc1","Dead - ?",33,"alive","recallproc1","recall"
"READ_JOL B",50,1,3,"BlockProc1","Plane - Aircraft","B",34,70,2787,"StudyProc3","JOL","BlockProc1","Plane - ?",34,"aircraft","recallproc1","recall"
"READ_JOL B",50,1,3,"BlockProc1","Fish - Sardine","B",35,70,2671,"StudyProc3","JOL","BlockProc1","Fish - ?",35,"rod","recallproc1","recall"
"READ_JOL B",50,1,3,"BlockProc1","Baseball - League","B",36,50,2873,"StudyProc3","JOL","BlockProc1","Baseball - ?",36,"league","recallproc1","recall"
"READ_JOL B",50,1,3,"BlockProc1","Money - Banker","B",37,60,4223,"StudyProc3","JOL","BlockProc1","Money - ?",37,"clip","recallproc1","recall"
"READ_JOL B",50,1,3,"BlockProc1","Honest - Truthful","B",38,60,5451,"StudyProc3","JOL","BlockProc1","Honest - ?",38,"truth","recallproc1","recall"
"READ_JOL B",50,1,3,"BlockProc1","Sleep - Nap","B",39,50,7976,"StudyProc3","JOL","BlockProc1","Sleep - ?",39,"rest","recallproc1","recall"
"READ_JOL B",50,1,3,"BlockProc1","Fight - Brawl","B",40,45,3318,"StudyProc3","JOL","BlockProc1","Fight - ?",40,"argue","recallproc1","recall"
"READ_JOL B",50,1,3,"BlockProc1","Razor - Shave","S",41,95,2270,"StudyProc7","JOL","BlockProc1","Razor - ?",41,"shave","recallproc1","recall"
"READ_JOL B",50,1,3,"BlockProc1","Rights - Equal","S",42,95,4026,"StudyProc7","JOL","BlockProc1","Rights - ?",42,"equal","recallproc1","recall"
"READ_JOL B",50,1,3,"BlockProc1","Mason - Jar","S",43,95,2537,"StudyProc7","JOL","BlockProc1","Mason - ?",43,"jar","recallproc1","recall"
"READ_JOL B",50,1,3,"BlockProc1","Candle - Wax","S",44,95,3473,"StudyProc7","JOL","BlockProc1","Candle - ?",44,"burn","recallproc1","recall"
"READ_JOL B",50,1,3,"BlockProc1","Wrist - Bracelet","S",45,95,2584,"StudyProc7","JOL","BlockProc1","Wrist - ?",45,"bracelet","recallproc1","recall"
"READ_JOL B",50,1,3,"BlockProc1","Element - Carbon","S",46,90,2529,"StudyProc7","JOL","BlockProc1","Element - ?",46,"carbon","recallproc1","recall"
"READ_JOL B",50,1,3,"BlockProc1","Gone - Away","S",47,95,1826,"StudyProc7","JOL","BlockProc1","Gone - ?",47,"leave","recallproc1","recall"
"READ_JOL B",50,1,3,"BlockProc1","Water - Drink","S",48,95,2264,"StudyProc7","JOL","BlockProc1","Water - ?",48,"cup","recallproc1","recall"
"READ_JOL B",50,1,3,"BlockProc1","Earth - Ground","S",49,80,3074,"StudyProc7","JOL","BlockProc1","Earth - ?",49,"ground","recallproc1","recall"
"READ_JOL B",50,1,3,"BlockProc1","Alone - Lonely","S",50,90,2401,"StudyProc7","JOL","BlockProc1","Alone - ?",50,"lonely","recallproc1","recall"
"READ_JOL B",50,1,3,"BlockProc1","Dry - Wet","S",51,95,4301,"StudyProc7","JOL","BlockProc1","Dry - ?",51,"wet","recallproc1","recall"
"READ_JOL B",50,1,3,"BlockProc1","Safety - Seatbelt","S",52,90,2473,"StudyProc7","JOL","BlockProc1","Safety - ?",52,"pin","recallproc1","recall"
"READ_JOL B",50,1,3,"BlockProc1","Truth - Lie","S",53,90,2785,"StudyProc7","JOL","BlockProc1","Truth - ?",53,"lie","recallproc1","recall"
"READ_JOL B",50,1,3,"BlockProc1","Phone - Communication","S",54,30,12559,"StudyProc7","JOL","BlockProc1","Phone - ?",54,"call","recallproc1","recall"
"READ_JOL B",50,1,3,"BlockProc1","Rod - Reel","S",55,95,5541,"StudyProc7","JOL","BlockProc1","Rod - ?",55,"reel","recallproc1","recall"
"READ_JOL B",50,1,3,"BlockProc1","Flea - Tick","S",56,90,1814,"StudyProc7","JOL","BlockProc1","Flea - ?",56,"tick","recallproc1","recall"
"READ_JOL B",50,1,3,"BlockProc1","Loud - Noise","S",57,95,7963,"StudyProc7","JOL","BlockProc1","Loud - ?",57,"noise","recallproc1","recall"
"READ_JOL B",50,1,3,"BlockProc1","Own - Have","S",58,60,3080,"StudyProc7","JOL","BlockProc1","Own - ?",58,"have","recallproc1","recall"
"READ_JOL B",50,1,3,"BlockProc1","Tantrum - Temper","S",59,95,3758,"StudyProc7","JOL","BlockProc1","Tantrum - ?",59,"temper","recallproc1","recall"
"READ_JOL B",50,1,3,"BlockProc1","Sun - Tan","S",60,90,2826,"StudyProc7","JOL","BlockProc1","Sun - ?",60,"tan","recallproc1","recall"
"READ_JOL B",50,1,3,"BlockProc1","Justice - Maroon","U",61,30,4371,"StudyProc7","JOL","BlockProc1","Justice - ?",61,"league","recallproc1","recall"
"READ_JOL B",50,1,3,"BlockProc1","Stretch - Cloth","U",62,60,2682,"StudyProc7","JOL","BlockProc1","Stretch - ?",62,"fabric","recallproc1","recall"
"READ_JOL B",50,1,3,"BlockProc1","Give - Steak","U",63,95,6577,"StudyProc7","JOL","BlockProc1","Give - ?",63,"hand","recallproc1","recall"
"READ_JOL B",50,1,3,"BlockProc1","Maze - Election","U",64,60,6887,"StudyProc7","JOL","BlockProc1","Maze - ?",64,"vote","recallproc1","recall"
"READ_JOL B",50,1,3,"BlockProc1","Vehicle - Charm","U",65,20,5156,"StudyProc7","JOL","BlockProc1","Vehicle - ?",65,"car","recallproc1","recall"
"READ_JOL B",50,1,3,"BlockProc1","Meat - Obtain","U",66,20,2513,"StudyProc7","JOL","BlockProc1","Meat - ?",66,"shop","recallproc1","recall"
"READ_JOL B",50,1,3,"BlockProc1","Crackle - Able","U",67,20,3419,"StudyProc7","JOL","BlockProc1","Crackle - ?",67,"pop","recallproc1","recall"
"READ_JOL B",50,1,3,"BlockProc1","Shell - Shake","U",68,40,4857,"StudyProc7","JOL","BlockProc1","Shell - ?",68,"shake","recallproc1","recall"
"READ_JOL B",50,1,3,"BlockProc1","Listen - Fiction","U",69,70,6332,"StudyProc7","JOL","BlockProc1","Listen - ?",69,"hear","recallproc1","recall"
"READ_JOL B",50,1,3,"BlockProc1","Keys - Joke","U",70,80,4475,"StudyProc7","JOL","BlockProc1","Keys - ?",70,"car","recallproc1","recall"
"READ_JOL B",50,1,3,"BlockProc1","Cake - Clothes","U",71,90,5737,"StudyProc7","JOL","BlockProc1","Cake - ?",71,"clothes","recallproc1","recall"
"READ_JOL B",50,1,3,"BlockProc1","Name - Hate","U",72,60,4133,"StudyProc7","JOL","BlockProc1","Name - ?",72,"pair","recallproc1","recall"
"READ_JOL B",50,1,3,"BlockProc1","Fuzzy - Bang","U",73,10,2422,"StudyProc7","JOL","BlockProc1","Fuzzy - ?",73,"cat","recallproc1","recall"
"READ_JOL B",50,1,3,"BlockProc1","Moat - Clear","U",74,30,3280,"StudyProc7","JOL","BlockProc1","Moat - ?",74,"boat","recallproc1","recall"
"READ_JOL B",50,1,3,"BlockProc1","Lease - Toil","U",75,30,2924,"StudyProc7","JOL","BlockProc1","Lease - ?",75,"loan","recallproc1","recall"
"READ_JOL B",50,1,3,"BlockProc1","Loan - Sign","U",76,90,4272,"StudyProc7","JOL","BlockProc1","Loan - ?",76,"write","recallproc1","recall"
"READ_JOL B",50,1,3,"BlockProc1","Both - Ounce","U",77,30,5499,"StudyProc7","JOL","BlockProc1","Both - ?",77,"lie","recallproc1","recall"
"READ_JOL B",50,1,3,"BlockProc1","Temperature - Morning","U",78,70,4387,"StudyProc7","JOL","BlockProc1","Temperature - ?",78,"cool","recallproc1","recall"
"READ_JOL B",50,1,3,"BlockProc1","Mirror - Children","U",79,20,3006,"StudyProc7","JOL","BlockProc1","Mirror - ?",79,"children","recallproc1","recall"
"READ_JOL B",50,1,3,"BlockProc1","Main - Scar","U",80,20,7284,"StudyProc7","JOL","BlockProc1","Main - ?",80,"center","recallproc1","recall"
"IS_JOL B",54,1,3,"BlockProc1","Extension - Long","F",1,99,9305,"StudyProc3","JOL","BlockProc1","Extension - ?",1,"LONG","recallproc1","recall"
"IS_JOL B",54,1,3,"BlockProc1","Clue - Game","F",2,96,31165,"StudyProc3","JOL","BlockProc1","Clue - ?",2,"IDEA","recallproc1","recall"
"IS_JOL B",54,1,3,"BlockProc1","Cactus - Plant","F",3,98,8483,"StudyProc3","JOL","BlockProc1","Cactus - ?",3,"PLANT","recallproc1","recall"
"IS_JOL B",54,1,3,"BlockProc1","Shoelace - Tie","F",4,98,9015,"StudyProc3","JOL","BlockProc1","Shoelace - ?",4,"TIE","recallproc1","recall"
"IS_JOL B",54,1,3,"BlockProc1","Detective - Mystery","F",5,100,10643,"StudyProc3","JOL","BlockProc1","Detective - ?",5,"MYSTERY","recallproc1","recall"
"IS_JOL B",54,1,3,"BlockProc1","Adjourn - End","F",6,98,9006,"StudyProc3","JOL","BlockProc1","Adjourn - ?",6,"END","recallproc1","recall"
"IS_JOL B",54,1,3,"BlockProc1","Furry - Dog","F",7,100,11928,"StudyProc3","JOL","BlockProc1","Furry - ?",7,"CAT","recallproc1","recall"
"IS_JOL B",54,1,3,"BlockProc1","Litter - Trash","F",8,98,10761,"StudyProc3","JOL","BlockProc1","Litter - ?",8,"TRASH","recallproc1","recall"
"IS_JOL B",54,1,3,"BlockProc1","Cherry - Red","F",9,100,13276,"StudyProc3","JOL","BlockProc1","Cherry - ?",9,"RED","recallproc1","recall"
"IS_JOL B",54,1,3,"BlockProc1","Scalp - Head","F",10,96,10972,"StudyProc3","JOL","BlockProc1","Scalp - ?",10,"HEAD","recallproc1","recall"
"IS_JOL B",54,1,3,"BlockProc1","Driver - Car","F",11,100,8969,"StudyProc3","JOL","BlockProc1","Driver - ?",11,"PASSENGER","recallproc1","recall"
"IS_JOL B",54,1,3,"BlockProc1","Chop - Cut","F",12,100,10130,"StudyProc3","JOL","BlockProc1","Chop - ?",12,"CUT","recallproc1","recall"
"IS_JOL B",54,1,3,"BlockProc1","Mule - Donkey","F",13,98,12209,"StudyProc3","JOL","BlockProc1","Mule - ?",13,"DONKEY","recallproc1","recall"
"IS_JOL B",54,1,3,"BlockProc1","Document - Paper","F",14,100,8712,"StudyProc3","JOL","BlockProc1","Document - ?",14,"PAGE","recallproc1","recall"
"IS_JOL B",54,1,3,"BlockProc1","Incense - Smell","F",15,100,9823,"StudyProc3","JOL","BlockProc1","Incense - ?",15,"IDENTIFICATION","recallproc1","recall"
"IS_JOL B",54,1,3,"BlockProc1","Dine - Eat","F",16,96,8767,"StudyProc3","JOL","BlockProc1","Dine - ?",16,"FOOD","recallproc1","recall"
"IS_JOL B",54,1,3,"BlockProc1","Shears - Scissors","F",17,100,10910,"StudyProc3","JOL","BlockProc1","Shears - ?",17,"SCISSORS","recallproc1","recall"
"IS_JOL B",54,1,3,"BlockProc1","Feud - Fight","F",18,100,10123,"StudyProc3","JOL","BlockProc1","Feud - ?",18,"FIGHT","recallproc1","recall"
"IS_JOL B",54,1,3,"BlockProc1","Chill - Cold","F",19,99,6687,"StudyProc3","JOL","BlockProc1","Chill - ?",19,"TOGETHER","recallproc1","recall"
"IS_JOL B",54,1,3,"BlockProc1","Affection - Love","F",20,100,9946,"StudyProc3","JOL","BlockProc1","Affection - ?",20,"LOVE","recallproc1","recall"
"IS_JOL B",54,1,3,"BlockProc1","Turn - Flip","B",21,100,7249,"StudyProc3","JOL","BlockProc1","Turn - ?",21,"CIRCLE","recallproc1","recall"
"IS_JOL B",54,1,3,"BlockProc1","Car - Windshield","B",22,100,7275,"StudyProc3","JOL","BlockProc1","Car - ?",22,"VECHICLE","recallproc1","recall"
"IS_JOL B",54,1,3,"BlockProc1","Bad - Villain","B",23,100,8171,"StudyProc3","JOL","BlockProc1","Bad - ?",23,"VILLIAN","recallproc1","recall"
"IS_JOL B",54,1,3,"BlockProc1","Bird - Penguin","B",24,95,8199,"StudyProc3","JOL","BlockProc1","Bird - ?",24,"FLY","recallproc1","recall"
"IS_JOL B",54,1,3,"BlockProc1","Star - Actress","B",25,100,5919,"StudyProc3","JOL","BlockProc1","Star - ?",25,"DREAM","recallproc1","recall"
"IS_JOL B",54,1,3,"BlockProc1","Thread - Thimble","B",26,70,13598,"StudyProc3","JOL","BlockProc1","Thread - ?",26,"THUMBNIL","recallproc1","recall"
"IS_JOL B",54,1,3,"BlockProc1","Even - Revenge","B",27,96,8235,"StudyProc3","JOL","BlockProc1","Even - ?",27,"EQUAL","recallproc1","recall"
"IS_JOL B",54,1,3,"BlockProc1","Pop - Balloon","B",28,100,7085,"StudyProc3","JOL","BlockProc1","Pop - ?",28,"DRINK","recallproc1","recall"
"IS_JOL B",54,1,3,"BlockProc1","Fruit - Strawberry","B",29,98,9081,"StudyProc3","JOL","BlockProc1","Fruit - ?",29,"STRAWBERRY","recallproc1","recall"
"IS_JOL B",54,1,3,"BlockProc1","Best - Favorite","B",30,98,8636,"StudyProc3","JOL","BlockProc1","Best - ?",30,"GOOD","recallproc1","recall"
"IS_JOL B",54,1,3,"BlockProc1","Cat - Panther","B",31,100,5684,"StudyProc3","JOL","BlockProc1","Cat - ?",31,"DOG","recallproc1","recall"
"IS_JOL B",54,1,3,"BlockProc1","Glass - Breakable","B",32,100,12295,"StudyProc3","JOL","BlockProc1","Glass - ?",32,"CLEAR","recallproc1","recall"
"IS_JOL B",54,1,3,"BlockProc1","Dead - Coffin","B",33,100,7530,"StudyProc3","JOL","BlockProc1","Dead - ?",33,"COFFIN","recallproc1","recall"
"IS_JOL B",54,1,3,"BlockProc1","Plane - Aircraft","B",34,100,8481,"StudyProc3","JOL","BlockProc1","Plane - ?",34,"AIRCRAFT","recallproc1","recall"
"IS_JOL B",54,1,3,"BlockProc1","Fish - Sardine","B",35,100,5867,"StudyProc3","JOL","BlockProc1","Fish - ?",35,"SHRIMP","recallproc1","recall"
"IS_JOL B",54,1,3,"BlockProc1","Baseball - League","B",36,97,12789,"StudyProc3","JOL","BlockProc1","Baseball - ?",36,"CATCHER","recallproc1","recall"
"IS_JOL B",54,1,3,"BlockProc1","Money - Banker","B",37,100,7032,"StudyProc3","JOL","BlockProc1","Money - ?",37,"BANK","recallproc1","recall"
"IS_JOL B",54,1,3,"BlockProc1","Honest - Truthful","B",38,97,9886,"StudyProc3","JOL","BlockProc1","Honest - ?",38,"TRUTHFUL","recallproc1","recall"
"IS_JOL B",54,1,3,"BlockProc1","Sleep - Nap","B",39,100,10876,"StudyProc3","JOL","BlockProc1","Sleep - ?",39,"NAP","recallproc1","recall"
"IS_JOL B",54,1,3,"BlockProc1","Fight - Brawl","B",40,97,10630,"StudyProc3","JOL","BlockProc1","Fight - ?",40,"BRAWL","recallproc1","recall"
"IS_JOL B",54,1,3,"BlockProc1","Razor - Shave","S",41,97,12270,"StudyProc7","JOL","BlockProc1","Razor - ?",41,"SHAVE","recallproc1","recall"
"IS_JOL B",54,1,3,"BlockProc1","Rights - Equal","S",42,100,12250,"StudyProc7","JOL","BlockProc1","Rights - ?",42,"EQUA","recallproc1","recall"
"IS_JOL B",54,1,3,"BlockProc1","Mason - Jar","S",43,98,5470,"StudyProc7","JOL","BlockProc1","Mason - ?",43,"JAR","recallproc1","recall"
"IS_JOL B",54,1,3,"BlockProc1","Candle - Wax","S",44,98,8223,"StudyProc7","JOL","BlockProc1","Candle - ?",44,"WAX","recallproc1","recall"
"IS_JOL B",54,1,3,"BlockProc1","Wrist - Bracelet","S",45,94,9447,"StudyProc7","JOL","BlockProc1","Wrist - ?",45,"ARM","recallproc1","recall"
"IS_JOL B",54,1,3,"BlockProc1","Element - Carbon","S",46,98,8528,"StudyProc7","JOL","BlockProc1","Element - ?",46,"CARBON","recallproc1","recall"
"IS_JOL B",54,1,3,"BlockProc1","Gone - Away","S",47,100,8407,"StudyProc7","JOL","BlockProc1","Gone - ?",47,"LEFT","recallproc1","recall"
"IS_JOL B",54,1,3,"BlockProc1","Water - Drink","S",48,100,6181,"StudyProc7","JOL","BlockProc1","Water - ?",48,"DRINK","recallproc1","recall"
"IS_JOL B",54,1,3,"BlockProc1","Earth - Ground","S",49,95,5024,"StudyProc7","JOL","BlockProc1","Earth - ?",49,"GROUND","recallproc1","recall"
"IS_JOL B",54,1,3,"BlockProc1","Alone - Lonely","S",50,100,11359,"StudyProc7","JOL","BlockProc1","Alone - ?",50,"LONELY","recallproc1","recall"
"IS_JOL B",54,1,3,"BlockProc1","Dry - Wet","S",51,98,8701,"StudyProc7","JOL","BlockProc1","Dry - ?",51,"OLD","recallproc1","recall"
"IS_JOL B",54,1,3,"BlockProc1","Safety - Seatbelt","S",52,90,7750,"StudyProc7","JOL","BlockProc1","Safety - ?",52,"SEATBELT","recallproc1","recall"
"IS_JOL B",54,1,3,"BlockProc1","Truth - Lie","S",53,90,10284,"StudyProc7","JOL","BlockProc1","Truth - ?",53,"HONEST","recallproc1","recall"
"IS_JOL B",54,1,3,"BlockProc1","Phone - Communicatio","S",54,100,12562,"StudyProc7","JOL","BlockProc1","Phone - ?",54,"COMMUNCATION","recallproc1","recall"
"IS_JOL B",54,1,3,"BlockProc1","Rod - Reel","S",55,86,10097,"StudyProc7","JOL","BlockProc1","Rod - ?",55,"REEL","recallproc1","recall"
"IS_JOL B",54,1,3,"BlockProc1","Flea - Tick","S",56,93,9932,"StudyProc7","JOL","BlockProc1","Flea - ?",56,"TICK","recallproc1","recall"
"IS_JOL B",54,1,3,"BlockProc1","Loud - Noise","S",57,100,12590,"StudyProc7","JOL","BlockProc1","Loud - ?",57,"NOISE","recallproc1","recall"
"IS_JOL B",54,1,3,"BlockProc1","Own - Have","S",58,90,5726,"StudyProc7","JOL","BlockProc1","Own - ?",58,"BUY","recallproc1","recall"
"IS_JOL B",54,1,3,"BlockProc1","Tantrum - Temper","S",59,98,9583,"StudyProc7","JOL","BlockProc1","Tantrum - ?",59,"TEMPER","recallproc1","recall"
"IS_JOL B",54,1,3,"BlockProc1","Sun - Tan","S",60,94,8183,"StudyProc7","JOL","BlockProc1","Sun - ?",60,"TAN","recallproc1","recall"
"IS_JOL B",54,1,3,"BlockProc1","Justice - Maroon","U",61,100,12838,"StudyProc7","JOL","BlockProc1","Justice - ?",61,"EQUL","recallproc1","recall"
"IS_JOL B",54,1,3,"BlockProc1","Stretch - Cloth","U",62,98,5810,"StudyProc7","JOL","BlockProc1","Stretch - ?",62,"LENGTH","recallproc1","recall"
"IS_JOL B",54,1,3,"BlockProc1","Give - Steak","U",63,95,8525,"StudyProc7","JOL","BlockProc1","Give - ?",63,"RECIEVE","recallproc1","recall"
"IS_JOL B",54,1,3,"BlockProc1","Maze - Election","U",64,95,7874,"StudyProc7","JOL","BlockProc1","Maze - ?",64,"RUN","recallproc1","recall"
"IS_JOL B",54,1,3,"BlockProc1","Vehicle - Charm","U",65,93,6953,"StudyProc7","JOL","BlockProc1","Vehicle - ?",65,"CAR","recallproc1","recall"
"IS_JOL B",54,1,3,"BlockProc1","Meat - Obtain","U",66,96,6602,"StudyProc7","JOL","BlockProc1","Meat - ?",66,"STEAK","recallproc1","recall"
"IS_JOL B",54,1,3,"BlockProc1","Crackle - Able","U",67,0,9057,"StudyProc7","JOL","BlockProc1","Crackle - ?",67,"NOISE","recallproc1","recall"
"IS_JOL B",54,1,3,"BlockProc1","Shell - Shake","U",68,100,7077,"StudyProc7","JOL","BlockProc1","Shell - ?",68,"OCEAN","recallproc1","recall"
"IS_JOL B",54,1,3,"BlockProc1","Listen - Fiction","U",69,100,5966,"StudyProc7","JOL","BlockProc1","Listen - ?",69,"HEAR","recallproc1","recall"
"IS_JOL B",54,1,3,"BlockProc1","Keys - Joke","U",70,98,6606,"StudyProc7","JOL","BlockProc1","Keys - ?",70,"VEHICLE","recallproc1","recall"
"IS_JOL B",54,1,3,"BlockProc1","Cake - Clothes","U",71,100,4563,"StudyProc7","JOL","BlockProc1","Cake - ?",71,"DESSERT","recallproc1","recall"
"IS_JOL B",54,1,3,"BlockProc1","Name - Hate","U",72,94,6558,"StudyProc7","JOL","BlockProc1","Name - ?",72,"PERSON","recallproc1","recall"
"IS_JOL B",54,1,3,"BlockProc1","Fuzzy - Bang","U",73,98,6678,"StudyProc7","JOL","BlockProc1","Fuzzy - ?",73,"DOG","recallproc1","recall"
"IS_JOL B",54,1,3,"BlockProc1","Moat - Clear","U",74,93,11641,"StudyProc7","JOL","BlockProc1","Moat - ?",74,"RIVER","recallproc1","recall"
"IS_JOL B",54,1,3,"BlockProc1","Lease - Toil","U",75,0,16308,"StudyProc7","JOL","BlockProc1","Lease - ?",75,"LOAN","recallproc1","recall"
"IS_JOL B",54,1,3,"BlockProc1","Loan - Sign","U",76,98,8582,"StudyProc7","JOL","BlockProc1","Loan - ?",76,"LEASE","recallproc1","recall"
"IS_JOL B",54,1,3,"BlockProc1","Both - Ounce","U",77,90,9150,"StudyProc7","JOL","BlockProc1","Both - ?",77,"SAME","recallproc1","recall"
"IS_JOL B",54,1,3,"BlockProc1","Temperature - Morning","U",78,98,9308,"StudyProc7","JOL","BlockProc1","Temperature - ?",78,"MORNING","recallproc1","recall"
"IS_JOL B",54,1,3,"BlockProc1","Mirror - Children","U",79,86,7551,"StudyProc7","JOL","BlockProc1","Mirror - ?",79,"CLEAR","recallproc1","recall"
"IS_JOL B",54,1,3,"BlockProc1","Main - Scar","U",80,93,13967,"StudyProc7","JOL","BlockProc1","Main - ?",80,"FIRST","recallproc1","recall"
"READ_JOL B",50,2,3,"BlockProc2","Delinquent - Bad","F",1,50,4456,"StudyProc5","JOL","BlockProc2","Delinquent - ?",1,"bad","recallproc2","recall"
"READ_JOL B",50,2,3,"BlockProc2","Digestion - Stomach","F",2,90,2345,"StudyProc5","JOL","BlockProc2","Digestion - ?",2,"eat","recallproc2","recall"
"READ_JOL B",50,2,3,"BlockProc2","Wage - Money","F",3,90,3771,"StudyProc5","JOL","BlockProc2","Wage - ?",3,"money","recallproc2","recall"
"READ_JOL B",50,2,3,"BlockProc2","Chisel - Hammer","F",4,70,2888,"StudyProc5","JOL","BlockProc2","Chisel - ?",4,"hammer","recallproc2","recall"
"READ_JOL B",50,2,3,"BlockProc2","Editor - News","F",5,50,2001,"StudyProc5","JOL","BlockProc2","Editor - ?",5,"writer","recallproc2","recall"
"READ_JOL B",50,2,3,"BlockProc2","Hornet - Sting","F",6,90,1828,"StudyProc5","JOL","BlockProc2","Hornet - ?",6,"wasp","recallproc2","recall"
"READ_JOL B",50,2,3,"BlockProc2","Bitter - Cold","F",7,40,2213,"StudyProc5","JOL","BlockProc2","Bitter - ?",7,"sweet","recallproc2","recall"
"READ_JOL B",50,2,3,"BlockProc2","Root - Plant","F",8,90,2077,"StudyProc5","JOL","BlockProc2","Root - ?",8,"plant","recallproc2","recall"
"READ_JOL B",50,2,3,"BlockProc2","Swan - Bird","F",9,60,2597,"StudyProc5","JOL","BlockProc2","Swan - ?",9,"bird","recallproc2","recall"
"READ_JOL B",50,2,3,"BlockProc2","Paw - Dog","F",10,80,1947,"StudyProc5","JOL","BlockProc2","Paw - ?",10,"dog","recallproc2","recall"
"READ_JOL B",50,2,3,"BlockProc2","Way - Out","F",11,50,4400,"StudyProc5","JOL","BlockProc2","Way - ?",11,"car","recallproc2","recall"
"READ_JOL B",50,2,3,"BlockProc2","Hygiene - Clean","F",12,70,2152,"StudyProc5","JOL","BlockProc2","Hygiene - ?",12,"clean","recallproc2","recall"
"READ_JOL B",50,2,3,"BlockProc2","Bridge - Water","F",13,50,7281,"StudyProc5","JOL","BlockProc2","Bridge - ?",13,"water","recallproc2","recall"
"READ_JOL B",50,2,3,"BlockProc2","Geology - Rock","F",14,90,2816,"StudyProc5","JOL","BlockProc2","Geology - ?",14,"rocks","recallproc2","recall"
"READ_JOL B",50,2,3,"BlockProc2","Revolution - War","F",15,80,2035,"StudyProc5","JOL","BlockProc2","Revolution - ?",15,"war","recallproc2","recall"
"READ_JOL B",50,2,3,"BlockProc2","Discussion - Talk","F",16,80,1752,"StudyProc5","JOL","BlockProc2","Discussion - ?",16,"chat","recallproc2","recall"
"READ_JOL B",50,2,3,"BlockProc2","Herd - Cow","F",17,40,2633,"StudyProc5","JOL","BlockProc2","Herd - ?",17,"cow","recallproc2","recall"
"READ_JOL B",50,2,3,"BlockProc2","Credit - Card","F",18,90,2152,"StudyProc5","JOL","BlockProc2","Credit - ?",18,"card","recallproc2","recall"
"READ_JOL B",50,2,3,"BlockProc2","Orchid - Flower","F",19,40,4990,"StudyProc5","JOL","BlockProc2","Orchid - ?",19,"flower","recallproc2","recall"
"READ_JOL B",50,2,3,"BlockProc2","Tuna - Fish","F",20,90,1804,"StudyProc5","JOL","BlockProc2","Tuna - ?",20,"fish","recallproc2","recall"
"READ_JOL B",50,2,3,"BlockProc2","Full - Enough","B",21,50,3535,"StudyProc5","JOL","BlockProc2","Full - ?",21,"satisfied","recallproc2","recall"
"READ_JOL B",50,2,3,"BlockProc2","Drink - Sip","B",22,50,1992,"StudyProc5","JOL","BlockProc2","Drink - ?",22,"water","recallproc2","recall"
"READ_JOL B",50,2,3,"BlockProc2","Dark - Cave","B",23,90,1879,"StudyProc5","JOL","BlockProc2","Dark - ?",23,"cave","recallproc2","recall"
"READ_JOL B",50,2,3,"BlockProc2","Take - Seize","B",24,30,4305,"StudyProc5","JOL","BlockProc2","Take - ?",24,"give","recallproc2","recall"
"READ_JOL B",50,2,3,"BlockProc2","Height - Growth","B",25,40,1495,"StudyProc5","JOL","BlockProc2","Height - ?",25,"size","recallproc2","recall"
"READ_JOL B",50,2,3,"BlockProc2","Sentence - Word","B",26,60,2691,"StudyProc5","JOL","BlockProc2","Sentence - ?",26,"word","recallproc2","recall"
"READ_JOL B",50,2,3,"BlockProc2","Bug - Wasp","B",27,90,2146,"StudyProc5","JOL","BlockProc2","Bug - ?",27,"ant","recallproc2","recall"
"READ_JOL B",50,2,3,"BlockProc2","Math - Division","B",28,70,1975,"StudyProc5","JOL","BlockProc2","Math - ?",28,"school","recallproc2","recall"
"READ_JOL B",50,2,3,"BlockProc2","Law - Attorney","B",29,90,2161,"StudyProc5","JOL","BlockProc2","Law - ?",29,"jury","recallproc2","recall"
"READ_JOL B",50,2,3,"BlockProc2","Great - Fantastic","B",30,50,3401,"StudyProc5","JOL","BlockProc2","Great - ?",30,"good","recallproc2","recall"
"READ_JOL B",50,2,3,"BlockProc2","Key - Latch","B",31,50,4165,"StudyProc5","JOL","BlockProc2","Key - ?",31,"car","recallproc2","recall"
"READ_JOL B",50,2,3,"BlockProc2","Hot - Chili","B",32,90,1774,"StudyProc5","JOL","BlockProc2","Hot - ?",32,"chocolate","recallproc2","recall"
"READ_JOL B",50,2,3,"BlockProc2","Ball - Racket","B",33,80,5087,"StudyProc5","JOL","BlockProc2","Ball - ?",33,"tennis","recallproc2","recall"
"READ_JOL B",50,2,3,"BlockProc2","Work - Chore","B",34,40,11976,"StudyProc5","JOL","BlockProc2","Work - ?",34,"study","recallproc2","recall"
"READ_JOL B",50,2,3,"BlockProc2","Hunger - Famine","B",35,50,2905,"StudyProc5","JOL","BlockProc2","Hunger - ?",35,"pains","recallproc2","recall"
"READ_JOL B",50,2,3,"BlockProc2","Sleep - Drowsy","B",36,50,3339,"StudyProc5","JOL","BlockProc2","Sleep - ?",36,"rest","recallproc2","recall"
"READ_JOL B",50,2,3,"BlockProc2","Smell - Stench","B",37,60,9219,"StudyProc5","JOL","BlockProc2","Smell - ?",37,"stench","recallproc2","recall"
"READ_JOL B",50,2,3,"BlockProc2","Clothes - Attire","B",38,90,4941,"StudyProc5","JOL","BlockProc2","Clothes - ?",38,"cake","recallproc2","recall"
"READ_JOL B",50,2,3,"BlockProc2","Plane - Pilot","B",39,60,1896,"StudyProc5","JOL","BlockProc2","Plane - ?",39,"flight","recallproc2","recall"
"READ_JOL B",50,2,3,"BlockProc2","Fire - Blaze","B",40,40,2681,"StudyProc5","JOL","BlockProc2","Fire - ?",40,"wood","recallproc2","recall"
"READ_JOL B",50,2,3,"BlockProc2","Due - Assignment","S",41,90,1722,"StudyProc8","JOL","BlockProc2","Due - ?",41,"assignment","recallproc2","recall"
"READ_JOL B",50,2,3,"BlockProc2","Number - Amount","S",42,40,2506,"StudyProc8","JOL","BlockProc2","Number - ?",42,"amount","recallproc2","recall"
"READ_JOL B",50,2,3,"BlockProc2","Location - Site","S",43,40,2777,"StudyProc8","JOL","BlockProc2","Location - ?",43,"place","recallproc2","recall"
"READ_JOL B",50,2,3,"BlockProc2","Dump - Waste","S",44,70,5041,"StudyProc8","JOL","BlockProc2","Dump - ?",44,"trash","recallproc2","recall"
"READ_JOL B",50,2,3,"BlockProc2","Trial - Jury","S",45,90,1979,"StudyProc8","JOL","BlockProc2","Trial - ?",45,"jury","recallproc2","recall"
"READ_JOL B",50,2,3,"BlockProc2","Architecture - Design","S",46,90,2378,"StudyProc8","JOL","BlockProc2","Architecture - ?",46,"design","recallproc2","recall"
"READ_JOL B",50,2,3,"BlockProc2","Grill - Bar","S",47,90,4344,"StudyProc8","JOL","BlockProc2","Grill - ?",47,"bar","recallproc2","recall"
"READ_JOL B",50,2,3,"BlockProc2","Kidney - Liver","S",48,80,2805,"StudyProc8","JOL","BlockProc2","Kidney - ?",48,"liver","recallproc2","recall"
"READ_JOL B",50,2,3,"BlockProc2","Begin - End","S",49,90,1933,"StudyProc8","JOL","BlockProc2","Begin - ?",49,"end","recallproc2","recall"
"READ_JOL B",50,2,3,"BlockProc2","Blow - Wind","S",50,80,2276,"StudyProc8","JOL","BlockProc2","Blow - ?",50,"breeze","recallproc2","recall"
"READ_JOL B",50,2,3,"BlockProc2","Pop - Soda","S",51,90,1460,"StudyProc8","JOL","BlockProc2","Pop - ?",51,"soda","recallproc2","recall"
"READ_JOL B",50,2,3,"BlockProc2","Wine - Cheese","S",52,90,1630,"StudyProc8","JOL","BlockProc2","Wine - ?",52,"cheese","recallproc2","recall"
"READ_JOL B",50,2,3,"BlockProc2","Bathroom - Toilet","S",53,80,2374,"StudyProc8","JOL","BlockProc2","Bathroom - ?",53,"toilet","recallproc2","recall"
"READ_JOL B",50,2,3,"BlockProc2","Lettuce - Salad","S",54,70,1791,"StudyProc8","JOL","BlockProc2","Lettuce - ?",54,"salad","recallproc2","recall"
"READ_JOL B",50,2,3,"BlockProc2","Shoe - Foot","S",55,90,1696,"StudyProc8","JOL","BlockProc2","Shoe - ?",55,"untie","recallproc2","recall"
"READ_JOL B",50,2,3,"BlockProc2","Past - Future","S",56,60,1590,"StudyProc8","JOL","BlockProc2","Past - ?",56,"future","recallproc2","recall"
"READ_JOL B",50,2,3,"BlockProc2","Choice - Decision","S",57,60,3104,"StudyProc8","JOL","BlockProc2","Choice - ?",57,"make","recallproc2","recall"
"READ_JOL B",50,2,3,"BlockProc2","Honey - Bee","S",58,90,1873,"StudyProc8","JOL","BlockProc2","Honey - ?",58,"bee","recallproc2","recall"
"READ_JOL B",50,2,3,"BlockProc2","Baby - Child","S",59,50,1250,"StudyProc8","JOL","BlockProc2","Baby - ?",59,"children","recallproc2","recall"
"READ_JOL B",50,2,3,"BlockProc2","Circle - Round","S",60,80,1893,"StudyProc8","JOL","BlockProc2","Circle - ?",60,"round","recallproc2","recall"
"READ_JOL B",50,2,3,"BlockProc2","Pusher - Clutter","U",61,20,2147,"StudyProc8","JOL","BlockProc2","Pusher - ?",61,"pull","recallproc2","recall"
"READ_JOL B",50,2,3,"BlockProc2","Dietary - Slacking","U",62,60,3967,"StudyProc8","JOL","BlockProc2","Dietary - ?",62,"bad","recallproc2","recall"
"READ_JOL B",50,2,3,"BlockProc2","Park - Hungry","U",63,80,3916,"StudyProc8","JOL","BlockProc2","Park - ?",63,"bench","recallproc2","recall"
"READ_JOL B",50,2,3,"BlockProc2","Lift - Woman","U",64,6,2131,"StudyProc8","JOL","BlockProc2","Lift - ?",64,"woman","recallproc2","recall"
"READ_JOL B",50,2,3,"BlockProc2","Soon - Belt","U",65,40,4805,"StudyProc8","JOL","BlockProc2","Soon - ?",65,"begin","recallproc2","recall"
"READ_JOL B",50,2,3,"BlockProc2","Discover - Floor","U",66,20,7421,"StudyProc8","JOL","BlockProc2","Discover - ?",66,"learn","recallproc2","recall"
"READ_JOL B",50,2,3,"BlockProc2","Death - Business","U",67,90,2686,"StudyProc8","JOL","BlockProc2","Death - ?",67,"business","recallproc2","recall"
"READ_JOL B",50,2,3,"BlockProc2","Debate - Sight","U",68,30,2683,"StudyProc8","JOL","BlockProc2","Debate - ?",68,"question","recallproc2","recall"
"READ_JOL B",50,2,3,"BlockProc2","Artery - Bronze","U",69,0,4241,"StudyProc8","JOL","BlockProc2","Artery - ?",69,"heart","recallproc2","recall"
"READ_JOL B",50,2,3,"BlockProc2","Fix - Hand","U",70,50,3588,"StudyProc8","JOL","BlockProc2","Fix - ?",70,"hand","recallproc2","recall"
"READ_JOL B",50,2,3,"BlockProc2","Machine - Position","U",71,20,2999,"StudyProc8","JOL","BlockProc2","Machine - ?",71,"stationar","recallproc2","recall"
"READ_JOL B",50,2,3,"BlockProc2","Happy - Car","U",72,30,7319,"StudyProc8","JOL","BlockProc2","Happy - ?",72,"car","recallproc2","recall"
"READ_JOL B",50,2,3,"BlockProc2","Allow - Tuck","U",73,30,2320,"StudyProc8","JOL","BlockProc2","Allow - ?",73,"borrow","recallproc2","recall"
"READ_JOL B",50,2,3,"BlockProc2","Art - Lion","U",74,50,2692,"StudyProc8","JOL","BlockProc2","Art - ?",74,"lion","recallproc2","recall"
"READ_JOL B",50,2,3,"BlockProc2","Strong - Accident","U",75,20,3314,"StudyProc8","JOL","BlockProc2","Strong - ?",75,"lift","recallproc2","recall"
"READ_JOL B",50,2,3,"BlockProc2","Sugar - Riddle","U",76,30,3057,"StudyProc8","JOL","BlockProc2","Sugar - ?",76,"coffee","recallproc2","recall"
"READ_JOL B",50,2,3,"BlockProc2","Valley - Add","U",77,30,1732,"StudyProc8","JOL","BlockProc2","Valley - ?",77,"field","recallproc2","recall"
"READ_JOL B",50,2,3,"BlockProc2","Cash - Would","U",78,20,1933,"StudyProc8","JOL","BlockProc2","Cash - ?",78,"money","recallproc2","recall"
"READ_JOL B",50,2,3,"BlockProc2","Hide - Sick","U",79,40,3624,"StudyProc8","JOL","BlockProc2","Hide - ?",79,"seek","recallproc2","recall"
"READ_JOL B",50,2,3,"BlockProc2","King - Vase","U",80,20,7619,"StudyProc8","JOL","BlockProc2","King - ?",80,"throne","recallproc2","recall"
"IS_JOL B",54,2,3,"BlockProc2","Delinquent - Bad","F",1,100,7132,"StudyProc5","JOL","BlockProc2","Delinquent - ?",1,"bad","recallproc2","recall"
"IS_JOL B",54,2,3,"BlockProc2","Digestion - Stomach","F",2,90,10377,"StudyProc5","JOL","BlockProc2","Digestion - ?",2,"stomach","recallproc2","recall"
"IS_JOL B",54,2,3,"BlockProc2","Wage - Money","F",3,90,6719,"StudyProc5","JOL","BlockProc2","Wage - ?",3,"money","recallproc2","recall"
"IS_JOL B",54,2,3,"BlockProc2","Chisel - Hammer","F",4,90,7275,"StudyProc5","JOL","BlockProc2","Chisel - ?",4,"hammer","recallproc2","recall"
"IS_JOL B",54,2,3,"BlockProc2","Editor - News","F",5,90,8501,"StudyProc5","JOL","BlockProc2","Editor - ?",5,"writter","recallproc2","recall"
"IS_JOL B",54,2,3,"BlockProc2","Hornet - Sting","F",6,90,8367,"StudyProc5","JOL","BlockProc2","Hornet - ?",6,"bug","recallproc2","recall"
"IS_JOL B",54,2,3,"BlockProc2","Bitter - Cold","F",7,97,7860,"StudyProc5","JOL","BlockProc2","Bitter - ?",7,"sour","recallproc2","recall"
"IS_JOL B",54,2,3,"BlockProc2","Root - Plant","F",8,90,6331,"StudyProc5","JOL","BlockProc2","Root - ?",8,"tree","recallproc2","recall"
"IS_JOL B",54,2,3,"BlockProc2","Swan - Bird","F",9,100,9148,"StudyProc5","JOL","BlockProc2","Swan - ?",9,"bird","recallproc2","recall"
"IS_JOL B",54,2,3,"BlockProc2","Paw - Dog","F",10,60,6689,"StudyProc5","JOL","BlockProc2","Paw - ?",10,"dog","recallproc2","recall"
"IS_JOL B",54,2,3,"BlockProc2","Way - Out","F",11,100,11564,"StudyProc5","JOL","BlockProc2","Way - ?",11,"direction","recallproc2","recall"
"IS_JOL B",54,2,3,"BlockProc2","Hygiene - Clean","F",12,90,10887,"StudyProc5","JOL","BlockProc2","Hygiene - ?",12,"clean","recallproc2","recall"
"IS_JOL B",54,2,3,"BlockProc2","Bridge - Water","F",13,100,5507,"StudyProc5","JOL","BlockProc2","Bridge - ?",13,"river","recallproc2","recall"
"IS_JOL B",54,2,3,"BlockProc2","Geology - Rock","F",14,100,9689,"StudyProc5","JOL","BlockProc2","Geology - ?",14,"rock","recallproc2","recall"
"IS_JOL B",54,2,3,"BlockProc2","Revolution - War","F",15,95,7303,"StudyProc5","JOL","BlockProc2","Revolution - ?",15,"new","recallproc2","recall"
"IS_JOL B",54,2,3,"BlockProc2","Discussion - Talk","F",16,90,8801,"StudyProc5","JOL","BlockProc2","Discussion - ?",16,"talk","recallproc2","recall"
"IS_JOL B",54,2,3,"BlockProc2","Herd - Cow","F",17,90,7303,"StudyProc5","JOL","BlockProc2","Herd - ?",17,"animal","recallproc2","recall"
"IS_JOL B",54,2,3,"BlockProc2","Credit - Card","F",18,90,6677,"StudyProc5","JOL","BlockProc2","Credit - ?",18,"card","recallproc2","recall"
"IS_JOL B",54,2,3,"BlockProc2","Orchid - Flower","F",19,90,14104,"StudyProc5","JOL","BlockProc2","Orchid - ?",19,"flower","recallproc2","recall"
"IS_JOL B",54,2,3,"BlockProc2","Tuna - Fish","F",20,100,4345,"StudyProc5","JOL","BlockProc2","Tuna - ?",20,"fish","recallproc2","recall"
"IS_JOL B",54,2,3,"BlockProc2","Full - Enough","B",21,90,13269,"StudyProc5","JOL","BlockProc2","Full - ?",21,"ill","recallproc2","recall"
"IS_JOL B",54,2,3,"BlockProc2","Drink - Sip","B",22,90,11606,"StudyProc5","JOL","BlockProc2","Drink - ?",22,"bar","recallproc2","recall"
"IS_JOL B",54,2,3,"BlockProc2","Dark - Cave","B",23,90,8533,"StudyProc5","JOL","BlockProc2","Dark - ?",23,"cave","recallproc2","recall"
"IS_JOL B",54,2,3,"BlockProc2","Take - Seize","B",24,90,9190,"StudyProc5","JOL","BlockProc2","Take - ?",24,"grab","recallproc2","recall"
"IS_JOL B",54,2,3,"BlockProc2","Height - Growth","B",25,78,10561,"StudyProc5","JOL","BlockProc2","Height - ?",25,"weight","recallproc2","recall"
"IS_JOL B",54,2,3,"BlockProc2","Sentence - Word","B",26,100,12718,"StudyProc5","JOL","BlockProc2","Sentence - ?",26,"word","recallproc2","recall"
"IS_JOL B",54,2,3,"BlockProc2","Bug - Wasp","B",27,100,6150,"StudyProc5","JOL","BlockProc2","Bug - ?",27,"wasp","recallproc2","recall"
"IS_JOL B",54,2,3,"BlockProc2","Math - Division","B",28,90,13191,"StudyProc5","JOL","BlockProc2","Math - ?",28,"number","recallproc2","recall"
"IS_JOL B",54,2,3,"BlockProc2","Law - Attorney","B",29,90,7485,"StudyProc5","JOL","BlockProc2","Law - ?",29,"lega","recallproc2","recall"
"IS_JOL B",54,2,3,"BlockProc2","Great - Fantastic","B",30,90,7964,"StudyProc5","JOL","BlockProc2","Great - ?",30,"fantastic","recallproc2","recall"
"IS_JOL B",54,2,3,"BlockProc2","Key - Latch","B",31,90,6440,"StudyProc5","JOL","BlockProc2","Key - ?",31,"car","recallproc2","recall"
"IS_JOL B",54,2,3,"BlockProc2","Hot - Chili","B",32,100,8321,"StudyProc5","JOL","BlockProc2","Hot - ?",32,"warm","recallproc2","recall"
"IS_JOL B",54,2,3,"BlockProc2","Ball - Racket","B",33,100,6696,"StudyProc5","JOL","BlockProc2","Ball - ?",33,"court","recallproc2","recall"
"IS_JOL B",54,2,3,"BlockProc2","Work - Chore","B",34,90,5992,"StudyProc5","JOL","BlockProc2","Work - ?",34,"assignment","recallproc2","recall"
"IS_JOL B",54,2,3,"BlockProc2","Hunger - Famine","B",35,90,10515,"StudyProc5","JOL","BlockProc2","Hunger - ?",35,"famine","recallproc2","recall"
"IS_JOL B",54,2,3,"BlockProc2","Sleep - Drowsy","B",36,80,9194,"StudyProc5","JOL","BlockProc2","Sleep - ?",36,"drowsy","recallproc2","recall"
"IS_JOL B",54,2,3,"BlockProc2","Smell - Stench","B",37,100,14697,"StudyProc5","JOL","BlockProc2","Smell - ?",37,"stench","recallproc2","recall"
"IS_JOL B",54,2,3,"BlockProc2","Clothes - Attire","B",38,90,5547,"StudyProc5","JOL","BlockProc2","Clothes - ?",38,"attire","recallproc2","recall"
"IS_JOL B",54,2,3,"BlockProc2","Plane - Pilot","B",39,100,7732,"StudyProc5","JOL","BlockProc2","Plane - ?",39,"piolet","recallproc2","recall"
"IS_JOL B",54,2,3,"BlockProc2","Fire - Blaze","B",40,90,13380,"StudyProc5","JOL","BlockProc2","Fire - ?",40,"flame","recallproc2","recall"
"IS_JOL B",54,2,3,"BlockProc2","Due - Assignment","S",41,90,7514,"StudyProc8","JOL","BlockProc2","Due - ?",41,"assignmnet","recallproc2","recall"
"IS_JOL B",54,2,3,"BlockProc2","Number - Amount","S",42,90,6717,"StudyProc8","JOL","BlockProc2","Number - ?",42,"math","recallproc2","recall"
"IS_JOL B",54,2,3,"BlockProc2","Location - Site","S",43,90,8039,"StudyProc8","JOL","BlockProc2","Location - ?",43,"here","recallproc2","recall"
"IS_JOL B",54,2,3,"BlockProc2","Dump - Waste","S",44,90,10620,"StudyProc8","JOL","BlockProc2","Dump - ?",44,"trash","recallproc2","recall"
"IS_JOL B",54,2,3,"BlockProc2","Trial - Jury","S",45,90,11093,"StudyProc8","JOL","BlockProc2","Trial - ?",45,"jury","recallproc2","recall"
"IS_JOL B",54,2,3,"BlockProc2","Architecture - Design","S",46,8,10788,"StudyProc8","JOL","BlockProc2","Architecture - ?",46,"paint","recallproc2","recall"
"IS_JOL B",54,2,3,"BlockProc2","Grill - Bar","S",47,90,6733,"StudyProc8","JOL","BlockProc2","Grill - ?",47,"food","recallproc2","recall"
"IS_JOL B",54,2,3,"BlockProc2","Kidney - Liver","S",48,90,7927,"StudyProc8","JOL","BlockProc2","Kidney - ?",48,"liver","recallproc2","recall"
"IS_JOL B",54,2,3,"BlockProc2","Begin - End","S",49,100,7893,"StudyProc8","JOL","BlockProc2","Begin - ?",49,"end","recallproc2","recall"
"IS_JOL B",54,2,3,"BlockProc2","Blow - Wind","S",50,7,8459,"StudyProc8","JOL","BlockProc2","Blow - ?",50,"wind","recallproc2","recall"
"IS_JOL B",54,2,3,"BlockProc2","Pop - Soda","S",51,90,7743,"StudyProc8","JOL","BlockProc2","Pop - ?",51,"soad","recallproc2","recall"
"IS_JOL B",54,2,3,"BlockProc2","Wine - Cheese","S",52,80,5342,"StudyProc8","JOL","BlockProc2","Wine - ?",52,"cheese","recallproc2","recall"
"IS_JOL B",54,2,3,"BlockProc2","Bathroom - Toilet","S",53,90,10212,"StudyProc8","JOL","BlockProc2","Bathroom - ?",53,"toielt","recallproc2","recall"
"IS_JOL B",54,2,3,"BlockProc2","Lettuce - Salad","S",54,90,5330,"StudyProc8","JOL","BlockProc2","Lettuce - ?",54,"salad","recallproc2","recall"
"IS_JOL B",54,2,3,"BlockProc2","Shoe - Foot","S",55,100,5847,"StudyProc8","JOL","BlockProc2","Shoe - ?",55,"lace","recallproc2","recall"
"IS_JOL B",54,2,3,"BlockProc2","Past - Future","S",56,90,10083,"StudyProc8","JOL","BlockProc2","Past - ?",56,"future","recallproc2","recall"
"IS_JOL B",54,2,3,"BlockProc2","Choice - Decision","S",57,90,11385,"StudyProc8","JOL","BlockProc2","Choice - ?",57,"option","recallproc2","recall"
"IS_JOL B",54,2,3,"BlockProc2","Honey - Bee","S",58,90,7367,"StudyProc8","JOL","BlockProc2","Honey - ?",58,"sweet","recallproc2","recall"
"IS_JOL B",54,2,3,"BlockProc2","Baby - Child","S",59,90,11269,"StudyProc8","JOL","BlockProc2","Baby - ?",59,"children","recallproc2","recall"
"IS_JOL B",54,2,3,"BlockProc2","Circle - Round","S",60,90,7483,"StudyProc8","JOL","BlockProc2","Circle - ?",60,"round","recallproc2","recall"
"IS_JOL B",54,2,3,"BlockProc2","Pusher - Clutter","U",61,80,8346,"StudyProc8","JOL","BlockProc2","Pusher - ?",61,"complaint","recallproc2","recall"
"IS_JOL B",54,2,3,"BlockProc2","Dietary - Slacking","U",62,90,13391,"StudyProc8","JOL","BlockProc2","Dietary - ?",62,"food","recallproc2","recall"
"IS_JOL B",54,2,3,"BlockProc2","Park - Hungry","U",63,80,7623,"StudyProc8","JOL","BlockProc2","Park - ?",63,"place","recallproc2","recall"
"IS_JOL B",54,2,3,"BlockProc2","Lift - Woman","U",64,100,7713,"StudyProc8","JOL","BlockProc2","Lift - ?",64,"up","recallproc2","recall"
"IS_JOL B",54,2,3,"BlockProc2","Soon - Belt","U",65,90,7924,"StudyProc8","JOL","BlockProc2","Soon - ?",65,"after","recallproc2","recall"
"IS_JOL B",54,2,3,"BlockProc2","Discover - Floor","U",66,90,6504,"StudyProc8","JOL","BlockProc2","Discover - ?",66,"new","recallproc2","recall"
"IS_JOL B",54,2,3,"BlockProc2","Death - Business","U",67,90,7132,"StudyProc8","JOL","BlockProc2","Death - ?",67,"burried","recallproc2","recall"
"IS_JOL B",54,2,3,"BlockProc2","Debate - Sight","U",68,90,6121,"StudyProc8","JOL","BlockProc2","Debate - ?",68,"argue","recallproc2","recall"
"IS_JOL B",54,2,3,"BlockProc2","Artery - Bronze","U",69,90,8090,"StudyProc8","JOL","BlockProc2","Artery - ?",69,"vein","recallproc2","recall"
"IS_JOL B",54,2,3,"BlockProc2","Fix - Hand","U",70,90,6949,"StudyProc8","JOL","BlockProc2","Fix - ?",70,"broken","recallproc2","recall"
"IS_JOL B",54,2,3,"BlockProc2","Machine - Position","U",71,87,6870,"StudyProc8","JOL","BlockProc2","Machine - ?",71,"efficient","recallproc2","recall"
"IS_JOL B",54,2,3,"BlockProc2","Happy - Car","U",72,95,4063,"StudyProc8","JOL","BlockProc2","Happy - ?",72,"good","recallproc2","recall"
"IS_JOL B",54,2,3,"BlockProc2","Allow - Tuck","U",73,80,8763,"StudyProc8","JOL","BlockProc2","Allow - ?",73,"give","recallproc2","recall"
"IS_JOL B",54,2,3,"BlockProc2","Art - Lion","U",74,90,4637,"StudyProc8","JOL","BlockProc2","Art - ?",74,"painting","recallproc2","recall"
"IS_JOL B",54,2,3,"BlockProc2","Strong - Accident","U",75,90,12164,"StudyProc8","JOL","BlockProc2","Strong - ?",75,"weight","recallproc2","recall"
"IS_JOL B",54,2,3,"BlockProc2","Sugar - Riddle","U",76,98,5500,"StudyProc8","JOL","BlockProc2","Sugar - ?",76,"sweeet","recallproc2","recall"
"IS_JOL B",54,2,3,"BlockProc2","Valley - Add","U",77,90,9114,"StudyProc8","JOL","BlockProc2","Valley - ?",77,"mountain","recallproc2","recall"
"IS_JOL B",54,2,3,"BlockProc2","Cash - Would","U",78,90,12944,"StudyProc8","JOL","BlockProc2","Cash - ?",78,"bank","recallproc2","recall"
"IS_JOL B",54,2,3,"BlockProc2","Hide - Sick","U",79,90,7284,"StudyProc8","JOL","BlockProc2","Hide - ?",79,"secret","recallproc2","recall"
"IS_JOL B",54,2,3,"BlockProc2","King - Vase","U",80,90,6240,"StudyProc8","JOL","BlockProc2","King - ?",80,"queen","recallproc2","recall"
"READ_JOL C",51,1,3,"BlockProc1","Bad - Delinquent","F",1,100,4922,"StudyProc7","JOL","BlockProc1","Bad - ?",1,"deliquent","recallproc1","recall"
"READ_JOL C",51,1,3,"BlockProc1","Stomach - Digestion","F",2,100,13685,"StudyProc7","JOL","BlockProc1","Stomach - ?",2,"liver","recallproc1","recall"
"READ_JOL C",51,1,3,"BlockProc1","Money - Wage","F",3,80,9149,"StudyProc7","JOL","BlockProc1","Money - ?",3,"bank","recallproc1","recall"
"READ_JOL C",51,1,3,"BlockProc1","Hammer - Chisel","F",4,0,3472,"StudyProc7","JOL","BlockProc1","Hammer - ?",4,"chasel","recallproc1","recall"
"READ_JOL C",51,1,3,"BlockProc1","News - Editor","F",5,100,6284,"StudyProc7","JOL","BlockProc1","News - ?",5,"report","recallproc1","recall"
"READ_JOL C",51,1,3,"BlockProc1","Sting - Hornet","F",6,0,3209,"StudyProc7","JOL","BlockProc1","Sting - ?",6,"wasp","recallproc1","recall"
"READ_JOL C",51,1,3,"BlockProc1","Cold - Bitter","F",7,20,12032,"StudyProc7","JOL","BlockProc1","Cold - ?",7,"air","recallproc1","recall"
"READ_JOL C",51,1,3,"BlockProc1","Plant - Root","F",8,100,14062,"StudyProc7","JOL","BlockProc1","Plant - ?",8,"daisy","recallproc1","recall"
"READ_JOL C",51,1,3,"BlockProc1","Bird - Swan","F",9,100,9346,"StudyProc7","JOL","BlockProc1","Bird - ?",9,"duck","recallproc1","recall"
"READ_JOL C",51,1,3,"BlockProc1","Dog - Paw","F",10,100,3574,"StudyProc7","JOL","BlockProc1","Dog - ?",10,"bar","recallproc1","recall"
"READ_JOL C",51,1,3,"BlockProc1","Out - Way","F",11,0,5321,"StudyProc7","JOL","BlockProc1","Out - ?",11,"inside","recallproc1","recall"
"READ_JOL C",51,1,3,"BlockProc1","Clean - Hygiene","F",12,60,7300,"StudyProc7","JOL","BlockProc1","Clean - ?",12,"hygiene","recallproc1","recall"
"READ_JOL C",51,1,3,"BlockProc1","Water - Bridge","F",13,30,7684,"StudyProc7","JOL","BlockProc1","Water - ?",13,"boil","recallproc1","recall"
"READ_JOL C",51,1,3,"BlockProc1","Rock - Geology","F",14,1,9999,"StudyProc7","JOL","BlockProc1","Rock - ?",14,"scissors","recallproc1","recall"
"READ_JOL C",51,1,3,"BlockProc1","War - Revolution","F",15,100,6302,"StudyProc7","JOL","BlockProc1","War - ?",15,"revolution","recallproc1","recall"
"READ_JOL C",51,1,3,"BlockProc1","Talk - Discussion","F",16,30,17952,"StudyProc7","JOL","BlockProc1","Talk - ?",16,"discussion","recallproc1","recall"
"READ_JOL C",51,1,3,"BlockProc1","Cow - Herd","F",17,0,8929,"StudyProc7","JOL","BlockProc1","Cow - ?",17,"cash","recallproc1","recall"
"READ_JOL C",51,1,3,"BlockProc1","Card - Credit","F",18,100,5282,"StudyProc7","JOL","BlockProc1","Card - ?",18,"credit","recallproc1","recall"
"READ_JOL C",51,1,3,"BlockProc1","Flower - Orchid","F",19,0,11180,"StudyProc7","JOL","BlockProc1","Flower - ?",19,"daisy","recallproc1","recall"
"READ_JOL C",51,1,3,"BlockProc1","Fish - Tuna","F",20,100,4886,"StudyProc7","JOL","BlockProc1","Fish - ?",20,"shrimp","recallproc1","recall"
"READ_JOL C",51,1,3,"BlockProc1","Enough - Full","B",21,70,13291,"StudyProc7","JOL","BlockProc1","Enough - ?",21,"yet","recallproc1","recall"
"READ_JOL C",51,1,3,"BlockProc1","Sip - Drink","B",22,50,10544,"StudyProc7","JOL","BlockProc1","Sip - ?",22,"drink","recallproc1","recall"
"READ_JOL C",51,1,3,"BlockProc1","Cave - Dark","B",23,70,7054,"StudyProc7","JOL","BlockProc1","Cave - ?",23,"dark","recallproc1","recall"
"READ_JOL C",51,1,3,"BlockProc1","Seize - Take","B",24,50,14614,"StudyProc7","JOL","BlockProc1","Seize - ?",24,"day","recallproc1","recall"
"READ_JOL C",51,1,3,"BlockProc1","Growth - Height","B",25,0,4127,"StudyProc7","JOL","BlockProc1","Growth - ?",25,"height","recallproc1","recall"
"READ_JOL C",51,1,3,"BlockProc1","Word - Sentence","B",26,100,4351,"StudyProc7","JOL","BlockProc1","Word - ?",26,"forgot","recallproc1","recall"
"READ_JOL C",51,1,3,"BlockProc1","Wasp - Bug","B",27,0,4518,"StudyProc7","JOL","BlockProc1","Wasp - ?",27,"bug","recallproc1","recall"
"READ_JOL C",51,1,3,"BlockProc1","Division - Math","B",28,100,5163,"StudyProc7","JOL","BlockProc1","Division - ?",28,"math","recallproc1","recall"
"READ_JOL C",51,1,3,"BlockProc1","Attorney - Law","B",29,100,5342,"StudyProc7","JOL","BlockProc1","Attorney - ?",29,"law","recallproc1","recall"
"READ_JOL C",51,1,3,"BlockProc1","Fantastic - Great","B",30,100,5537,"StudyProc7","JOL","BlockProc1","Fantastic - ?",30,"great","recallproc1","recall"
"READ_JOL C",51,1,3,"BlockProc1","Latch - Key","B",31,50,11209,"StudyProc7","JOL","BlockProc1","Latch - ?",31,"key","recallproc1","recall"
"READ_JOL C",51,1,3,"BlockProc1","Chili - Hot","B",32,100,7156,"StudyProc7","JOL","BlockProc1","Chili - ?",32,"hot","recallproc1","recall"
"READ_JOL C",51,1,3,"BlockProc1","Racket - Ball","B",33,100,7231,"StudyProc7","JOL","BlockProc1","Racket - ?",33,"ball","recallproc1","recall"
"READ_JOL C",51,1,3,"BlockProc1","Chore - Work","B",34,30,12083,"StudyProc7","JOL","BlockProc1","Chore - ?",34,"work","recallproc1","recall"
"READ_JOL C",51,1,3,"BlockProc1","Famine - Hunger","B",35,0,4923,"StudyProc7","JOL","BlockProc1","Famine - ?",35,"girl","recallproc1","recall"
"READ_JOL C",51,1,3,"BlockProc1","Drowsy - Sleep","B",36,90,8207,"StudyProc7","JOL","BlockProc1","Drowsy - ?",36,"sleepy","recallproc1","recall"
"READ_JOL C",51,1,3,"BlockProc1","Stench - Smell","B",37,100,5026,"StudyProc7","JOL","BlockProc1","Stench - ?",37,"smell","recallproc1","recall"
"READ_JOL C",51,1,3,"BlockProc1","Attire - Clothes","B",38,100,4128,"StudyProc7","JOL","BlockProc1","Attire - ?",38,"clothes","recallproc1","recall"
"READ_JOL C",51,1,3,"BlockProc1","Pilot - Plane","B",39,100,6867,"StudyProc7","JOL","BlockProc1","Pilot - ?",39,"plane","recallproc1","recall"
"READ_JOL C",51,1,3,"BlockProc1","Blaze - Fire","B",40,0,6878,"StudyProc7","JOL","BlockProc1","Blaze - ?",40,"fire","recallproc1","recall"
"READ_JOL C",51,1,3,"BlockProc1","Assignment - Due","S",41,100,3683,"StudyProc3","JOL","BlockProc1","Assignment - ?",41,"due","recallproc1","recall"
"READ_JOL C",51,1,3,"BlockProc1","Amount - Number","S",42,100,3234,"StudyProc3","JOL","BlockProc1","Amount - ?",42,"cash","recallproc1","recall"
"READ_JOL C",51,1,3,"BlockProc1","Site - Location","S",43,100,3626,"StudyProc3","JOL","BlockProc1","Site - ?",43,"location","recallproc1","recall"
"READ_JOL C",51,1,3,"BlockProc1","Waste - Dump","S",44,100,2514,"StudyProc3","JOL","BlockProc1","Waste - ?",44,"truck","recallproc1","recall"
"READ_JOL C",51,1,3,"BlockProc1","Jury - Trial","S",45,100,3766,"StudyProc3","JOL","BlockProc1","Jury - ?",45,"trial","recallproc1","recall"
"READ_JOL C",51,1,3,"BlockProc1","Design - Architecture","S",46,100,5829,"StudyProc3","JOL","BlockProc1","Design - ?",46,"architect","recallproc1","recall"
"READ_JOL C",51,1,3,"BlockProc1","Bar - Grill","S",47,100,3027,"StudyProc3","JOL","BlockProc1","Bar - ?",47,"grill","recallproc1","recall"
"READ_JOL C",51,1,3,"BlockProc1","Liver - Kidney","S",48,0,3666,"StudyProc3","JOL","BlockProc1","Liver - ?",48,"kidney","recallproc1","recall"
"READ_JOL C",51,1,3,"BlockProc1","End - Begin","S",49,30,10579,"StudyProc3","JOL","BlockProc1","End - ?",49,"start","recallproc1","recall"
"READ_JOL C",51,1,3,"BlockProc1","Wind - Blow","S",50,100,3035,"StudyProc3","JOL","BlockProc1","Wind - ?",50,"bloe","recallproc1","recall"
"READ_JOL C",51,1,3,"BlockProc1","Soda - Pop","S",51,100,2792,"StudyProc3","JOL","BlockProc1","Soda - ?",51,"pop","recallproc1","recall"
"READ_JOL C",51,1,3,"BlockProc1","Cheese - Wine","S",52,20,3917,"StudyProc3","JOL","BlockProc1","Cheese - ?",52,"cow","recallproc1","recall"
"READ_JOL C",51,1,3,"BlockProc1","Toilet - Bathroom","S",53,100,3283,"StudyProc3","JOL","BlockProc1","Toilet - ?",53,"paper","recallproc1","recall"
"READ_JOL C",51,1,3,"BlockProc1","Salad - Lettuce","S",54,100,5204,"StudyProc3","JOL","BlockProc1","Salad - ?",54,"lettuce","recallproc1","recall"
"READ_JOL C",51,1,3,"BlockProc1","Foot - Shoe","S",55,100,2676,"StudyProc3","JOL","BlockProc1","Foot - ?",55,"shoe","recallproc1","recall"
"READ_JOL C",51,1,3,"BlockProc1","Future - Past","S",56,100,3221,"StudyProc3","JOL","BlockProc1","Future - ?",56,"past","recallproc1","recall"
"READ_JOL C",51,1,3,"BlockProc1","Decision - Choice","S",57,100,6848,"StudyProc3","JOL","BlockProc1","Decision - ?",57,"choice","recallproc1","recall"
"READ_JOL C",51,1,3,"BlockProc1","Bee - Honey","S",58,60,4224,"StudyProc3","JOL","BlockProc1","Bee - ?",58,"sting","recallproc1","recall"
"READ_JOL C",51,1,3,"BlockProc1","Child - Baby","S",59,100,2646,"StudyProc3","JOL","BlockProc1","Child - ?",59,"baby","recallproc1","recall"
"READ_JOL C",51,1,3,"BlockProc1","Round - Circle","S",60,100,3066,"StudyProc3","JOL","BlockProc1","Round - ?",60,"up","recallproc1","recall"
"READ_JOL C",51,1,3,"BlockProc1","Clutter - Pusher","U",61,0,3509,"StudyProc3","JOL","BlockProc1","Clutter - ?",61,"mess","recallproc1","recall"
"READ_JOL C",51,1,3,"BlockProc1","Sacking -Dietary","U",62,0,5851,"StudyProc3","JOL","BlockProc1","Sacking - ?",62,"bag","recallproc1","recall"
