"ExperimentName","Subject","Block","list","Procedure.Block.","cue_target","Direction","ListNum","JOL","RT","Procedure.Trial.","Type","Procedure.Block..1","cue_target.1","ListNum.1","Response","Procedure.Trial..1","Type.1"
"RL_JOL A",57,1,3,"BlockProc1","Delinquent - Bad","F",1,"70",6055,"StudyProc7","JOL","BlockProc1","Delinquent - ?",1,"bad","recallproc1","recall"
"RL_JOL A",57,1,3,"BlockProc1","Digestion - Stomach","F",2,"80",5475,"StudyProc7","JOL","BlockProc1","Digestion - ?",2,"stomach","recallproc1","recall"
"RL_JOL A",57,1,3,"BlockProc1","Wage - Money","F",3,"80",5858,"StudyProc7","JOL","BlockProc1","Wage - ?",3,"money","recallproc1","recall"
"RL_JOL A",57,1,3,"BlockProc1","Chisel - Hammer","F",4,"40",13407,"StudyProc7","JOL","BlockProc1","Chisel - ?",4,"hammer","recallproc1","recall"
"RL_JOL A",57,1,3,"BlockProc1","Editor - News","F",5,"67",5677,"StudyProc7","JOL","BlockProc1","Editor - ?",5,"news","recallproc1","recall"
"RL_JOL A",57,1,3,"BlockProc1","Hornet - Sting","F",6,"80",4508,"StudyProc7","JOL","BlockProc1","Hornet - ?",6,"sting","recallproc1","recall"
"RL_JOL A",57,1,3,"BlockProc1","Bitter - Cold","F",7,"50",8967,"StudyProc7","JOL","BlockProc1","Bitter - ?",7,"cold","recallproc1","recall"
"RL_JOL A",57,1,3,"BlockProc1","Root - Plant","F",8,"75",4769,"StudyProc7","JOL","BlockProc1","Root - ?",8,"plant","recallproc1","recall"
"RL_JOL A",57,1,3,"BlockProc1","Swan - Bird","F",9,"60",3993,"StudyProc7","JOL","BlockProc1","Swan - ?",9,"bird","recallproc1","recall"
"RL_JOL A",57,1,3,"BlockProc1","Paw - Dog","F",10,"85",6546,"StudyProc7","JOL","BlockProc1","Paw - ?",10,"dog","recallproc1","recall"
"RL_JOL A",57,1,3,"BlockProc1","Way - Out","F",11,"75",7310,"StudyProc7","JOL","BlockProc1","Way - ?",11,"go","recallproc1","recall"
"RL_JOL A",57,1,3,"BlockProc1","Hygiene - Clean","F",12,"80",4830,"StudyProc7","JOL","BlockProc1","Hygiene - ?",12,"clean","recallproc1","recall"
"RL_JOL A",57,1,3,"BlockProc1","Bridge - Water","F",13,"80",6515,"StudyProc7","JOL","BlockProc1","Bridge - ?",13,"water","recallproc1","recall"
"RL_JOL A",57,1,3,"BlockProc1","Geology - Rock","F",14,"75",6112,"StudyProc7","JOL","BlockProc1","Geology - ?",14,"rock","recallproc1","recall"
"RL_JOL A",57,1,3,"BlockProc1","Revolution - War","F",15,"70",12287,"StudyProc7","JOL","BlockProc1","Revolution - ?",15,"war","recallproc1","recall"
"RL_JOL A",57,1,3,"BlockProc1","Discussion - Talk","F",16,"70",5601,"StudyProc7","JOL","BlockProc1","Discussion - ?",16,"talk","recallproc1","recall"
"RL_JOL A",57,1,3,"BlockProc1","Herd - Cow","F",17,"40",8248,"StudyProc7","JOL","BlockProc1","Herd - ?",17,"cow","recallproc1","recall"
"RL_JOL A",57,1,3,"BlockProc1","Credit - Card","F",18,"70",12453,"StudyProc7","JOL","BlockProc1","Credit - ?",18,"money","recallproc1","recall"
"RL_JOL A",57,1,3,"BlockProc1","Orchid - Flower","F",19,"60",4693,"StudyProc7","JOL","BlockProc1","Orchid - ?",19,"flower","recallproc1","recall"
"RL_JOL A",57,1,3,"BlockProc1","Tuna - Fish","F",20,"70",4396,"StudyProc7","JOL","BlockProc1","Tuna - ?",20,"fish","recallproc1","recall"
"RL_JOL A",57,1,3,"BlockProc1","Full - Enough","B",21,"70",6046,"StudyProc7","JOL","BlockProc1","Full - ?",21,"enough","recallproc1","recall"
"RL_JOL A",57,1,3,"BlockProc1","Drink - Sip","B",22,"78",6535,"StudyProc7","JOL","BlockProc1","Drink - ?",22,"sip","recallproc1","recall"
"RL_JOL A",57,1,3,"BlockProc1","Dark - Cave","B",23,"70",3451,"StudyProc7","JOL","BlockProc1","Dark - ?",23,"light","recallproc1","recall"
"RL_JOL A",57,1,3,"BlockProc1","Take - Seize","B",24,"20",7022,"StudyProc7","JOL","BlockProc1","Take - ?",24,"seize","recallproc1","recall"
"RL_JOL A",57,1,3,"BlockProc1","Height - Growth","B",25,"70",6461,"StudyProc7","JOL","BlockProc1","Height - ?",25,"growth","recallproc1","recall"
"RL_JOL A",57,1,3,"BlockProc1","Sentence - Word","B",26,"80",4115,"StudyProc7","JOL","BlockProc1","Sentence - ?",26,"word","recallproc1","recall"
"RL_JOL A",57,1,3,"BlockProc1","Bug - Wasp","B",27,"70",5779,"StudyProc7","JOL","BlockProc1","Bug - ?",27,"spider","recallproc1","recall"
"RL_JOL A",57,1,3,"BlockProc1","Math - Division","B",28,"50",7348,"StudyProc7","JOL","BlockProc1","Math - ?",28,"division","recallproc1","recall"
"RL_JOL A",57,1,3,"BlockProc1","Law - Attorney","B",29,"70",5293,"StudyProc7","JOL","BlockProc1","Law - ?",29,"attorney","recallproc1","recall"
"RL_JOL A",57,1,3,"BlockProc1","Great - Fantastic","B",30,"70",6729,"StudyProc7","JOL","BlockProc1","Great - ?",30,"happy","recallproc1","recall"
"RL_JOL A",57,1,3,"BlockProc1","Key - Latch","B",31,"60",13570,"StudyProc7","JOL","BlockProc1","Key - ?",31,"position","recallproc1","recall"
"RL_JOL A",57,1,3,"BlockProc1","Hot - Chili","B",32,"60",6132,"StudyProc7","JOL","BlockProc1","Hot - ?",32,"cold","recallproc1","recall"
"RL_JOL A",57,1,3,"BlockProc1","Ball - Racket","B",33,"60",8893,"StudyProc7","JOL","BlockProc1","Ball - ?",33,"hit","recallproc1","recall"
"RL_JOL A",57,1,3,"BlockProc1","Work - Chore","B",34,"45",10155,"StudyProc7","JOL","BlockProc1","Work - ?",34,"chore","recallproc1","recall"
"RL_JOL A",57,1,3,"BlockProc1","Hunger - Famine","B",35,"80",7157,"StudyProc7","JOL","BlockProc1","Hunger - ?",35,"park","recallproc1","recall"
"RL_JOL A",57,1,3,"BlockProc1","Sleep - Drowsy","B",36,"80",8127,"StudyProc7","JOL","BlockProc1","Sleep - ?",36,"drowsy","recallproc1","recall"
"RL_JOL A",57,1,3,"BlockProc1","Smell - Stench","B",37,"75",6199,"StudyProc7","JOL","BlockProc1","Smell - ?",37,"stench","recallproc1","recall"
"RL_JOL A",57,1,3,"BlockProc1","Clothes - Attire","B",38,"70",5367,"StudyProc7","JOL","BlockProc1","Clothes - ?",38,"attire","recallproc1","recall"
"RL_JOL A",57,1,3,"BlockProc1","Plane - Pilot","B",39,"75",4634,"StudyProc7","JOL","BlockProc1","Plane - ?",39,"pilot","recallproc1","recall"
"RL_JOL A",57,1,3,"BlockProc1","Fire - Blaze","B",40,"65",13049,"StudyProc7","JOL","BlockProc1","Fire - ?",40,"blaze","recallproc1","recall"
"RL_JOL A",57,1,3,"BlockProc1","Due - Assignment","S",41,"80",5760,"StudyProc3","JOL","BlockProc1","Due - ?",41,"date","recallproc1","recall"
"RL_JOL A",57,1,3,"BlockProc1","Number - Amount","S",42,"50",11881,"StudyProc3","JOL","BlockProc1","Number - ?",42,"add","recallproc1","recall"
"RL_JOL A",57,1,3,"BlockProc1","Location - Site","S",43,"75",13635,"StudyProc3","JOL","BlockProc1","Location - ?",43,"site","recallproc1","recall"
"RL_JOL A",57,1,3,"BlockProc1","Dump - Waste","S",44,"80",5908,"StudyProc3","JOL","BlockProc1","Dump - ?",44,"waste","recallproc1","recall"
"RL_JOL A",57,1,3,"BlockProc1","Trial - Jury","S",45,"80",4480,"StudyProc3","JOL","BlockProc1","Trial - ?",45,"jury","recallproc1","recall"
"RL_JOL A",57,1,3,"BlockProc1","Architecture - Design","S",46,"70",10171,"StudyProc3","JOL","BlockProc1","Architecture - ?",46,"design","recallproc1","recall"
"RL_JOL A",57,1,3,"BlockProc1","Grill - Bar","S",47,"75",5448,"StudyProc3","JOL","BlockProc1","Grill - ?",47,"bar","recallproc1","recall"
"RL_JOL A",57,1,3,"BlockProc1","Kidney - Liver","S",48,"50",4422,"StudyProc3","JOL","BlockProc1","Kidney - ?",48,"liver","recallproc1","recall"
"RL_JOL A",57,1,3,"BlockProc1","Begin - End","S",49,"60",8819,"StudyProc3","JOL","BlockProc1","Begin - ?",49,"end","recallproc1","recall"
"RL_JOL A",57,1,3,"BlockProc1","Blow - Wind","S",50,"90",4921,"StudyProc3","JOL","BlockProc1","Blow - ?",50,"wind","recallproc1","recall"
"RL_JOL A",57,1,3,"BlockProc1","Pop - Soda","S",51,"80",7145,"StudyProc3","JOL","BlockProc1","Pop - ?",51,"soda","recallproc1","recall"
"RL_JOL A",57,1,3,"BlockProc1","Wine - Cheese","S",52,"80",7542,"StudyProc3","JOL","BlockProc1","Wine - ?",52,"cheese","recallproc1","recall"
"RL_JOL A",57,1,3,"BlockProc1","Bathroom - Toilet","S",53,"80",4000,"StudyProc3","JOL","BlockProc1","Bathroom - ?",53,"toilet","recallproc1","recall"
"RL_JOL A",57,1,3,"BlockProc1","Lettuce - Salad","S",54,"80",5936,"StudyProc3","JOL","BlockProc1","Lettuce - ?",54,"salad","recallproc1","recall"
"RL_JOL A",57,1,3,"BlockProc1","Shoe - Foot","S",55,"80",3978,"StudyProc3","JOL","BlockProc1","Shoe - ?",55,"foot","recallproc1","recall"
"RL_JOL A",57,1,3,"BlockProc1","Past - Future","S",56,"70",8766,"StudyProc3","JOL","BlockProc1","Past - ?",56,"future","recallproc1","recall"
"RL_JOL A",57,1,3,"BlockProc1","Choice - Decision","S",57,"7",9124,"StudyProc3","JOL","BlockProc1","Choice - ?",57,"decision","recallproc1","recall"
"RL_JOL A",57,1,3,"BlockProc1","Honey - Bee","S",58,"80",3618,"StudyProc3","JOL","BlockProc1","Honey - ?",58,"be","recallproc1","recall"
"RL_JOL A",57,1,3,"BlockProc1","Baby - Child","S",59,"65",8191,"StudyProc3","JOL","BlockProc1","Baby - ?",59,"child","recallproc1","recall"
"RL_JOL A",57,1,3,"BlockProc1","Circle - Round","S",60,"80",5815,"StudyProc3","JOL","BlockProc1","Circle - ?",60,"round","recallproc1","recall"
"RL_JOL A",57,1,3,"BlockProc1","Pusher - Clutter","U",61,"20",6926,"StudyProc3","JOL","BlockProc1","Pusher - ?",61,"pull","recallproc1","recall"
"RL_JOL A",57,1,3,"BlockProc1","Dietary - Slacking","U",62,"60",10272,"StudyProc3","JOL","BlockProc1","Dietary - ?",62,"cheat","recallproc1","recall"
"RL_JOL A",57,1,3,"BlockProc1","Park - Hungry","U",63,"65",5686,"StudyProc3","JOL","BlockProc1","Park - ?",63,"hunger","recallproc1","recall"
"RL_JOL A",57,1,3,"BlockProc1","Lift - Woman","U",64,"10",6457,"StudyProc3","JOL","BlockProc1","Lift - ?",64,"drop","recallproc1","recall"
"RL_JOL A",57,1,3,"BlockProc1","Soon - Belt","U",65,"1",8104,"StudyProc3","JOL","BlockProc1","Soon - ?",65,"time","recallproc1","recall"
"RL_JOL A",57,1,3,"BlockProc1","Discover - Floor","U",66,"50",5601,"StudyProc3","JOL","BlockProc1","Discover - ?",66,"find","recallproc1","recall"
"RL_JOL A",57,1,3,"BlockProc1","Death - Business","U",67,"80",7203,"StudyProc3","JOL","BlockProc1","Death - ?",67,"business","recallproc1","recall"
"RL_JOL A",57,1,3,"BlockProc1","Debate - Sight","U",68,"10",8291,"StudyProc3","JOL","BlockProc1","Debate - ?",68,"sight","recallproc1","recall"
"RL_JOL A",57,1,3,"BlockProc1","Artery - Bronze","U",69,"1",16443,"StudyProc3","JOL","BlockProc1","Artery - ?",69,"brone","recallproc1","recall"
"RL_JOL A",57,1,3,"BlockProc1","Fix - Hand","U",70,"10",6169,"StudyProc3","JOL","BlockProc1","Fix - ?",70,"hand","recallproc1","recall"
"RL_JOL A",57,1,3,"BlockProc1","Machine - Position","U",71,"30",8775,"StudyProc3","JOL","BlockProc1","Machine - ?",71,"position","recallproc1","recall"
"RL_JOL A",57,1,3,"BlockProc1","Happy - Car","U",72,"60",7683,"StudyProc3","JOL","BlockProc1","Happy - ?",72,"friendliness","recallproc1","recall"
"RL_JOL A",57,1,3,"BlockProc1","Allow - Tuck","U",73,"20",13035,"StudyProc3","JOL","BlockProc1","Allow - ?",73,"give","recallproc1","recall"
"RL_JOL A",57,1,3,"BlockProc1","Art - Lion","U",74,"40",6502,"StudyProc3","JOL","BlockProc1","Art - ?",74,"lion","recallproc1","recall"
"RL_JOL A",57,1,3,"BlockProc1","Strong - Accident","U",75,"50",5485,"StudyProc3","JOL","BlockProc1","Strong - ?",75,"break","recallproc1","recall"
"RL_JOL A",57,1,3,"BlockProc1","Sugar - Riddle","U",76,"1",11036,"StudyProc3","JOL","BlockProc1","Sugar - ?",76,"cube","recallproc1","recall"
"RL_JOL A",57,1,3,"BlockProc1","Valley - Add","U",77,"1",8701,"StudyProc3","JOL","BlockProc1","Valley - ?",77,"grass","recallproc1","recall"
"RL_JOL A",57,1,3,"BlockProc1","Cash - Would","U",78,"65",8758,"StudyProc3","JOL","BlockProc1","Cash - ?",78,"money","recallproc1","recall"
"RL_JOL A",57,1,3,"BlockProc1","Hide - Sick","U",79,"70",7936,"StudyProc3","JOL","BlockProc1","Hide - ?",79,"sick","recallproc1","recall"
"RL_JOL A",57,1,3,"BlockProc1","King - Vase","U",80,"1",6865,"StudyProc3","JOL","BlockProc1","King - ?",80,"vase","recallproc1","recall"
"READ_JOL A",61,1,3,"BlockProc1","Delinquent - Bad","F",1,"40",4418,"StudyProc7","JOL","BlockProc1","Delinquent - ?",1,"dumb","recallproc1","recall"
"READ_JOL A",61,1,3,"BlockProc1","Digestion - Stomach","F",2,"90",6080,"StudyProc7","JOL","BlockProc1","Digestion - ?",2,"stomach","recallproc1","recall"
"READ_JOL A",61,1,3,"BlockProc1","Wage - Money","F",3,"80",4619,"StudyProc7","JOL","BlockProc1","Wage - ?",3,"money","recallproc1","recall"
"READ_JOL A",61,1,3,"BlockProc1","Chisel - Hammer","F",4,"40",6545,"StudyProc7","JOL","BlockProc1","Chisel - ?",4,"mmer","recallproc1","recall"
"READ_JOL A",61,1,3,"BlockProc1","Editor - News","F",5,"90",4781,"StudyProc7","JOL","BlockProc1","Editor - ?",5,"video","recallproc1","recall"
"READ_JOL A",61,1,3,"BlockProc1","Hornet - Sting","F",6,"90",5707,"StudyProc7","JOL","BlockProc1","Hornet - ?",6,"sting","recallproc1","recall"
"READ_JOL A",61,1,3,"BlockProc1","Bitter - Cold","F",7,NA,210,"StudyProc7","JOL","BlockProc1","Bitter - ?",7,"happy","recallproc1","recall"
"READ_JOL A",61,1,3,"BlockProc1","Root - Plant","F",8,"90",4042,"StudyProc7","JOL","BlockProc1","Root - ?",8,"plant","recallproc1","recall"
"READ_JOL A",61,1,3,"BlockProc1","Swan - Bird","F",9,"90",4976,"StudyProc7","JOL","BlockProc1","Swan - ?",9,"duck","recallproc1","recall"
"READ_JOL A",61,1,3,"BlockProc1","Paw - Dog","F",10,"80",5402,"StudyProc7","JOL","BlockProc1","Paw - ?",10,"dog","recallproc1","recall"
"READ_JOL A",61,1,3,"BlockProc1","Way - Out","F",11,"30",5957,"StudyProc7","JOL","BlockProc1","Way - ?",11,"go","recallproc1","recall"
"READ_JOL A",61,1,3,"BlockProc1","Hygiene - Clean","F",12,"100",4699,"StudyProc7","JOL","BlockProc1","Hygiene - ?",12,"clean","recallproc1","recall"
"READ_JOL A",61,1,3,"BlockProc1","Bridge - Water","F",13,"50",4981,"StudyProc7","JOL","BlockProc1","Bridge - ?",13,"water","recallproc1","recall"
"READ_JOL A",61,1,3,"BlockProc1","Geology - Rock","F",14,"50",5536,"StudyProc7","JOL","BlockProc1","Geology - ?",14,"mountains","recallproc1","recall"
"READ_JOL A",61,1,3,"BlockProc1","Revolution - War","F",15,"90",4332,"StudyProc7","JOL","BlockProc1","Revolution - ?",15,"war","recallproc1","recall"
"READ_JOL A",61,1,3,"BlockProc1","Discussion - Talk","F",16,"90",3924,"StudyProc7","JOL","BlockProc1","Discussion - ?",16,"talk","recallproc1","recall"
"READ_JOL A",61,1,3,"BlockProc1","Herd - Cow","F",17,"70",4676,"StudyProc7","JOL","BlockProc1","Herd - ?",17,"cow","recallproc1","recall"
"READ_JOL A",61,1,3,"BlockProc1","Credit - Card","F",18,"90",4598,"StudyProc7","JOL","BlockProc1","Credit - ?",18,"card","recallproc1","recall"
"READ_JOL A",61,1,3,"BlockProc1","Orchid - Flower","F",19,"50",4132,"StudyProc7","JOL","BlockProc1","Orchid - ?",19,"piano","recallproc1","recall"
"READ_JOL A",61,1,3,"BlockProc1","Tuna - Fish","F",20,"90",4524,"StudyProc7","JOL","BlockProc1","Tuna - ?",20,"fish","recallproc1","recall"
"READ_JOL A",61,1,3,"BlockProc1","Full - Enough","B",21,"90",4365,"StudyProc7","JOL","BlockProc1","Full - ?",21,"empty","recallproc1","recall"
"READ_JOL A",61,1,3,"BlockProc1","Drink - Sip","B",22,"80",4444,"StudyProc7","JOL","BlockProc1","Drink - ?",22,"sip","recallproc1","recall"
"READ_JOL A",61,1,3,"BlockProc1","Dark - Cave","B",23,"90",6225,"StudyProc7","JOL","BlockProc1","Dark - ?",23,"light","recallproc1","recall"
"READ_JOL A",61,1,3,"BlockProc1","Take - Seize","B",24,"60",7070,"StudyProc7","JOL","BlockProc1","Take - ?",24,"grab","recallproc1","recall"
"READ_JOL A",61,1,3,"BlockProc1","Height - Growth","B",25,"100",4020,"StudyProc7","JOL","BlockProc1","Height - ?",25,"growth","recallproc1","recall"
"READ_JOL A",61,1,3,"BlockProc1","Sentence - Word","B",26,"90",6078,"StudyProc7","JOL","BlockProc1","Sentence - ?",26,"word","recallproc1","recall"
"READ_JOL A",61,1,3,"BlockProc1","Bug - Wasp","B",27,"90",4861,"StudyProc7","JOL","BlockProc1","Bug - ?",27,"wasp","recallproc1","recall"
"READ_JOL A",61,1,3,"BlockProc1","Math - Division","B",28,"90",5353,"StudyProc7","JOL","BlockProc1","Math - ?",28,"division","recallproc1","recall"
"READ_JOL A",61,1,3,"BlockProc1","Law - Attorney","B",29,"90",4958,"StudyProc7","JOL","BlockProc1","Law - ?",29,"attorney","recallproc1","recall"
"READ_JOL A",61,1,3,"BlockProc1","Great - Fantastic","B",30,"90",4629,"StudyProc7","JOL","BlockProc1","Great - ?",30,"fantastic","recallproc1","recall"
"READ_JOL A",61,1,3,"BlockProc1","Key - Latch","B",31,"60",3175,"StudyProc7","JOL","BlockProc1","Key - ?",31,"lock","recallproc1","recall"
"READ_JOL A",61,1,3,"BlockProc1","Hot - Chili","B",32,"80",4908,"StudyProc7","JOL","BlockProc1","Hot - ?",32,"chill","recallproc1","recall"
"READ_JOL A",61,1,3,"BlockProc1","Ball - Racket","B",33,"70",4560,"StudyProc7","JOL","BlockProc1","Ball - ?",33,"park","recallproc1","recall"
"READ_JOL A",61,1,3,"BlockProc1","Work - Chore","B",34,"90",4428,"StudyProc7","JOL","BlockProc1","Work - ?",34,"job","recallproc1","recall"
"READ_JOL A",61,1,3,"BlockProc1","Hunger - Famine","B",35,"30",8180,"StudyProc7","JOL","BlockProc1","Hunger - ?",35,"fed","recallproc1","recall"
"READ_JOL A",61,1,3,"BlockProc1","Sleep - Drowsy","B",36,"90",2520,"StudyProc7","JOL","BlockProc1","Sleep - ?",36,"wake","recallproc1","recall"
"READ_JOL A",61,1,3,"BlockProc1","Smell - Stench","B",37,"90",4786,"StudyProc7","JOL","BlockProc1","Smell - ?",37,"stinch","recallproc1","recall"
"READ_JOL A",61,1,3,"BlockProc1","Clothes - Attire","B",38,"100",4452,"StudyProc7","JOL","BlockProc1","Clothes - ?",38,"attire","recallproc1","recall"
"READ_JOL A",61,1,3,"BlockProc1","Plane - Pilot","B",39,"90",2725,"StudyProc7","JOL","BlockProc1","Plane - ?",39,"pilot","recallproc1","recall"
"READ_JOL A",61,1,3,"BlockProc1","Fire - Blaze","B",40,"100",4946,"StudyProc7","JOL","BlockProc1","Fire - ?",40,"blaze","recallproc1","recall"
"READ_JOL A",61,1,3,"BlockProc1","Due - Assignment","S",41,"100",4584,"StudyProc3","JOL","BlockProc1","Due - ?",41,"assignent","recallproc1","recall"
"READ_JOL A",61,1,3,"BlockProc1","Number - Amount","S",42,"100",3815,"StudyProc3","JOL","BlockProc1","Number - ?",42,"two","recallproc1","recall"
"READ_JOL A",61,1,3,"BlockProc1","Location - Site","S",43,"70",3552,"StudyProc3","JOL","BlockProc1","Location - ?",43,"site","recallproc1","recall"
"READ_JOL A",61,1,3,"BlockProc1","Dump - Waste","S",44,"90",3007,"StudyProc3","JOL","BlockProc1","Dump - ?",44,"waste","recallproc1","recall"
"READ_JOL A",61,1,3,"BlockProc1","Trial - Jury","S",45,"90",3476,"StudyProc3","JOL","BlockProc1","Trial - ?",45,"jury","recallproc1","recall"
"READ_JOL A",61,1,3,"BlockProc1","Architecture - Design","S",46,"50",5979,"StudyProc3","JOL","BlockProc1","Architecture - ?",46,"design","recallproc1","recall"
"READ_JOL A",61,1,3,"BlockProc1","Grill - Bar","S",47,"100",5724,"StudyProc3","JOL","BlockProc1","Grill - ?",47,"bar","recallproc1","recall"
"READ_JOL A",61,1,3,"BlockProc1","Kidney - Liver","S",48,"90",4215,"StudyProc3","JOL","BlockProc1","Kidney - ?",48,"organ","recallproc1","recall"
"READ_JOL A",61,1,3,"BlockProc1","Begin - End","S",49,"100",3161,"StudyProc3","JOL","BlockProc1","Begin - ?",49,"end","recallproc1","recall"
"READ_JOL A",61,1,3,"BlockProc1","Blow - Wind","S",50,"90",5530,"StudyProc3","JOL","BlockProc1","Blow - ?",50,"wind","recallproc1","recall"
"READ_JOL A",61,1,3,"BlockProc1","Pop - Soda","S",51,"100",6419,"StudyProc3","JOL","BlockProc1","Pop - ?",51,"soda","recallproc1","recall"
"READ_JOL A",61,1,3,"BlockProc1","Wine - Cheese","S",52,"30",3237,"StudyProc3","JOL","BlockProc1","Wine - ?",52,"drink","recallproc1","recall"
"READ_JOL A",61,1,3,"BlockProc1","Bathroom - Toilet","S",53,"80",6373,"StudyProc3","JOL","BlockProc1","Bathroom - ?",53,"toilet","recallproc1","recall"
"READ_JOL A",61,1,3,"BlockProc1","Lettuce - Salad","S",54,"100",4954,"StudyProc3","JOL","BlockProc1","Lettuce - ?",54,"salad","recallproc1","recall"
"READ_JOL A",61,1,3,"BlockProc1","Shoe - Foot","S",55,"90",4252,"StudyProc3","JOL","BlockProc1","Shoe - ?",55,"foot","recallproc1","recall"
"READ_JOL A",61,1,3,"BlockProc1","Past - Future","S",56,"100",3060,"StudyProc3","JOL","BlockProc1","Past - ?",56,"present","recallproc1","recall"
"READ_JOL A",61,1,3,"BlockProc1","Choice - Decision","S",57,"90",2995,"StudyProc3","JOL","BlockProc1","Choice - ?",57,"decision","recallproc1","recall"
"READ_JOL A",61,1,3,"BlockProc1","Honey - Bee","S",58,"100",3751,"StudyProc3","JOL","BlockProc1","Honey - ?",58,"food","recallproc1","recall"
"READ_JOL A",61,1,3,"BlockProc1","Baby - Child","S",59,"90",10231,"StudyProc3","JOL","BlockProc1","Baby - ?",59,"boy","recallproc1","recall"
"READ_JOL A",61,1,3,"BlockProc1","Circle - Round","S",60,"100",4621,"StudyProc3","JOL","BlockProc1","Circle - ?",60,"round","recallproc1","recall"
"READ_JOL A",61,1,3,"BlockProc1","Pusher - Clutter","U",61,"30",3617,"StudyProc3","JOL","BlockProc1","Pusher - ?",61,"puller","recallproc1","recall"
"READ_JOL A",61,1,3,"BlockProc1","Dietary - Slacking","U",62,"60",4891,"StudyProc3","JOL","BlockProc1","Dietary - ?",62,"slacking","recallproc1","recall"
"READ_JOL A",61,1,3,"BlockProc1","Park - Hungry","U",63,"30",3345,"StudyProc3","JOL","BlockProc1","Park - ?",63,"fun","recallproc1","recall"
"READ_JOL A",61,1,3,"BlockProc1","Lift - Woman","U",64,"30",5276,"StudyProc3","JOL","BlockProc1","Lift - ?",64,"heavy","recallproc1","recall"
"READ_JOL A",61,1,3,"BlockProc1","Soon - Belt","U",65,"50",4231,"StudyProc3","JOL","BlockProc1","Soon - ?",65,"future","recallproc1","recall"
"READ_JOL A",61,1,3,"BlockProc1","Discover - Floor","U",66,"0",3340,"StudyProc3","JOL","BlockProc1","Discover - ?",66,"locate","recallproc1","recall"
"READ_JOL A",61,1,3,"BlockProc1","Death - Business","U",67,"0",6042,"StudyProc3","JOL","BlockProc1","Death - ?",67,"died","recallproc1","recall"
"READ_JOL A",61,1,3,"BlockProc1","Debate - Sight","U",68,"30",3320,"StudyProc3","JOL","BlockProc1","Debate - ?",68,"discussion","recallproc1","recall"
"READ_JOL A",61,1,3,"BlockProc1","Artery - Bronze","U",69,"30",4110,"StudyProc3","JOL","BlockProc1","Artery - ?",69,"kidney","recallproc1","recall"
"READ_JOL A",61,1,3,"BlockProc1","Fix - Hand","U",70,"30",4075,"StudyProc3","JOL","BlockProc1","Fix - ?",70,"hand","recallproc1","recall"
"READ_JOL A",61,1,3,"BlockProc1","Machine - Position","U",71,"30",2628,"StudyProc3","JOL","BlockProc1","Machine - ?",71,"human","recallproc1","recall"
"READ_JOL A",61,1,3,"BlockProc1","Happy - Car","U",72,"100",6153,"StudyProc3","JOL","BlockProc1","Happy - ?",72,"sad","recallproc1","recall"
"READ_JOL A",61,1,3,"BlockProc1","Allow - Tuck","U",73,"40",6983,"StudyProc3","JOL","BlockProc1","Allow - ?",73,"took","recallproc1","recall"
"READ_JOL A",61,1,3,"BlockProc1","Art - Lion","U",74,"30",2950,"StudyProc3","JOL","BlockProc1","Art - ?",74,"desighn","recallproc1","recall"
"READ_JOL A",61,1,3,"BlockProc1","Strong - Accident","U",75,"60",4666,"StudyProc3","JOL","BlockProc1","Strong - ?",75,"weak","recallproc1","recall"
"READ_JOL A",61,1,3,"BlockProc1","Sugar - Riddle","U",76,"40",4591,"StudyProc3","JOL","BlockProc1","Sugar - ?",76,"candy","recallproc1","recall"
"READ_JOL A",61,1,3,"BlockProc1","Valley - Add","U",77,"40",4050,"StudyProc3","JOL","BlockProc1","Valley - ?",77,"water","recallproc1","recall"
"READ_JOL A",61,1,3,"BlockProc1","Cash - Would","U",78,"40",3720,"StudyProc3","JOL","BlockProc1","Cash - ?",78,"money","recallproc1","recall"
"READ_JOL A",61,1,3,"BlockProc1","Hide - Sick","U",79,"50",4215,"StudyProc3","JOL","BlockProc1","Hide - ?",79,"sick","recallproc1","recall"
"READ_JOL A",61,1,3,"BlockProc1","King - Vase","U",80,"30",3519,"StudyProc3","JOL","BlockProc1","King - ?",80,"vale","recallproc1","recall"
"IS_JOL A",65,1,3,"BlockProc1","Delinquent - Bad","F",1,"80",19385,"StudyProc7","JOL","BlockProc1","Delinquent - ?",1,"BAD","recallproc1","recall"
"IS_JOL A",65,1,3,"BlockProc1","Digestion - Stomach","F",2,"90",11888,"StudyProc7","JOL","BlockProc1","Digestion - ?",2,"STOMACH","recallproc1","recall"
"IS_JOL A",65,1,3,"BlockProc1","Wage - Money","F",3,"90",12197,"StudyProc7","JOL","BlockProc1","Wage - ?",3,"WORK","recallproc1","recall"
"IS_JOL A",65,1,3,"BlockProc1","Chisel - Hammer","F",4,"90",16337,"StudyProc7","JOL","BlockProc1","Chisel - ?",4,"HAMMER","recallproc1","recall"
"IS_JOL A",65,1,3,"BlockProc1","Editor - News","F",5,"90",17141,"StudyProc7","JOL","BlockProc1","Editor - ?",5,"ART","recallproc1","recall"
"IS_JOL A",65,1,3,"BlockProc1","Hornet - Sting","F",6,"80",24538,"StudyProc7","JOL","BlockProc1","Hornet - ?",6,"WASP","recallproc1","recall"
"IS_JOL A",65,1,3,"BlockProc1","Bitter - Cold","F",7,"90",19077,"StudyProc7","JOL","BlockProc1","Bitter - ?",7,"SAD","recallproc1","recall"
"IS_JOL A",65,1,3,"BlockProc1","Root - Plant","F",8,"90",26035,"StudyProc7","JOL","BlockProc1","Root - ?",8,"SITE","recallproc1","recall"
"IS_JOL A",65,1,3,"BlockProc1","Swan - Bird","F",9,"90",7597,"StudyProc7","JOL","BlockProc1","Swan - ?",9,"BIRD","recallproc1","recall"
"IS_JOL A",65,1,3,"BlockProc1","Paw - Dog","F",10,"70",18736,"StudyProc7","JOL","BlockProc1","Paw - ?",10,"DOG","recallproc1","recall"
"IS_JOL A",65,1,3,"BlockProc1","Way - Out","F",11,"90",12551,"StudyProc7","JOL","BlockProc1","Way - ?",11,"ONE","recallproc1","recall"
"IS_JOL A",65,1,3,"BlockProc1","Hygiene - Clean","F",12,"90",22398,"StudyProc7","JOL","BlockProc1","Hygiene - ?",12,"CLEAN","recallproc1","recall"
"IS_JOL A",65,1,3,"BlockProc1","Bridge - Water","F",13,"90",16807,"StudyProc7","JOL","BlockProc1","Bridge - ?",13,"WATER","recallproc1","recall"
"IS_JOL A",65,1,3,"BlockProc1","Geology - Rock","F",14,"80",13995,"StudyProc7","JOL","BlockProc1","Geology - ?",14,"ROCK","recallproc1","recall"
"IS_JOL A",65,1,3,"BlockProc1","Revolution - War","F",15,"90",23479,"StudyProc7","JOL","BlockProc1","Revolution - ?",15,"WAR","recallproc1","recall"
"IS_JOL A",65,1,3,"BlockProc1","Discussion - Talk","F",16,"90",14109,"StudyProc7","JOL","BlockProc1","Discussion - ?",16,"DEBATE","recallproc1","recall"
"IS_JOL A",65,1,3,"BlockProc1","Herd - Cow","F",17,"90",5581,"StudyProc7","JOL","BlockProc1","Herd - ?",17,"COW","recallproc1","recall"
"IS_JOL A",65,1,3,"BlockProc1","Credit - Card","F",18,"90",27158,"StudyProc7","JOL","BlockProc1","Credit - ?",18,"CARD","recallproc1","recall"
"IS_JOL A",65,1,3,"BlockProc1","Orchid - Flower","F",19,"40",13645,"StudyProc7","JOL","BlockProc1","Orchid - ?",19,"FISH","recallproc1","recall"
"IS_JOL A",65,1,3,"BlockProc1","Tuna - Fish","F",20,"90",21884,"StudyProc7","JOL","BlockProc1","Tuna - ?",20,"FISH","recallproc1","recall"
"IS_JOL A",65,1,3,"BlockProc1","Full - Enough","B",21,"90",18446,"StudyProc7","JOL","BlockProc1","Full - ?",21,"ENOUGH","recallproc1","recall"
"IS_JOL A",65,1,3,"BlockProc1","Drink - Sip","B",22,"70",20261,"StudyProc7","JOL","BlockProc1","Drink - ?",22,"WINE","recallproc1","recall"
"IS_JOL A",65,1,3,"BlockProc1","Dark - Cave","B",23,"90",14140,"StudyProc7","JOL","BlockProc1","Dark - ?",23,"LIGHT","recallproc1","recall"
"IS_JOL A",65,1,3,"BlockProc1","Take - Seize","B",24,"40",24072,"StudyProc7","JOL","BlockProc1","Take - ?",24,"GRAB","recallproc1","recall"
"IS_JOL A",65,1,3,"BlockProc1","Height - Growth","B",25,"70",18890,"StudyProc7","JOL","BlockProc1","Height - ?",25,"GROWTH","recallproc1","recall"
"IS_JOL A",65,1,3,"BlockProc1","Sentence - Word","B",26,"90",19709,"StudyProc7","JOL","BlockProc1","Sentence - ?",26,"WORD","recallproc1","recall"
"IS_JOL A",65,1,3,"BlockProc1","Bug - Wasp","B",27,"90",12853,"StudyProc7","JOL","BlockProc1","Bug - ?",27,"WASP","recallproc1","recall"
"IS_JOL A",65,1,3,"BlockProc1","Math - Division","B",28,"50",15324,"StudyProc7","JOL","BlockProc1","Math - ?",28,"DIVISION","recallproc1","recall"
"IS_JOL A",65,1,3,"BlockProc1","Law - Attorney","B",29,"90",20126,"StudyProc7","JOL","BlockProc1","Law - ?",29,"ATTORNEY","recallproc1","recall"
"IS_JOL A",65,1,3,"BlockProc1","Great - Fantastic","B",30,"90",15316,"StudyProc7","JOL","BlockProc1","Great - ?",30,"FANTASTIC","recallproc1","recall"
"IS_JOL A",65,1,3,"BlockProc1","Key - Latch","B",31,"90",17124,"StudyProc7","JOL","BlockProc1","Key - ?",31,"LATCH","recallproc1","recall"
"IS_JOL A",65,1,3,"BlockProc1","Hot - Chili","B",32,"90",22712,"StudyProc7","JOL","BlockProc1","Hot - ?",32,"cold","recallproc1","recall"
"IS_JOL A",65,1,3,"BlockProc1","Ball - Racket","B",33,"90",18425,"StudyProc7","JOL","BlockProc1","Ball - ?",33,"SOCCER","recallproc1","recall"
"IS_JOL A",65,1,3,"BlockProc1","Work - Chore","B",34,"90",9736,"StudyProc7","JOL","BlockProc1","Work - ?",34,"CHORE","recallproc1","recall"
"IS_JOL A",65,1,3,"BlockProc1","Hunger - Famine","B",35,"90",19183,"StudyProc7","JOL","BlockProc1","Hunger - ?",35,"FAMINE","recallproc1","recall"
"IS_JOL A",65,1,3,"BlockProc1","Sleep - Drowsy","B",36,"90",11784,"StudyProc7","JOL","BlockProc1","Sleep - ?",36,"DROWSY","recallproc1","recall"
"IS_JOL A",65,1,3,"BlockProc1","Smell - Stench","B",37,"90",20741,"StudyProc7","JOL","BlockProc1","Smell - ?",37,"STENCH","recallproc1","recall"
"IS_JOL A",65,1,3,"BlockProc1","Clothes - Attire","B",38,"90",17575,"StudyProc7","JOL","BlockProc1","Clothes - ?",38,"ATTIRE","recallproc1","recall"
"IS_JOL A",65,1,3,"BlockProc1","Plane - Pilot","B",39,"90",13373,"StudyProc7","JOL","BlockProc1","Plane - ?",39,"PILOT","recallproc1","recall"
"IS_JOL A",65,1,3,"BlockProc1","Fire - Blaze","B",40,"90",12902,"StudyProc7","JOL","BlockProc1","Fire - ?",40,"COLD","recallproc1","recall"
"IS_JOL A",65,1,3,"BlockProc1","Due - Assignment","S",41,"80",21487,"StudyProc3","JOL","BlockProc1","Due - ?",41,"ASSIGNMENT","recallproc1","recall"
"IS_JOL A",65,1,3,"BlockProc1","Number - Amount","S",42,"100",10265,"StudyProc3","JOL","BlockProc1","Number - ?",42,"MATH","recallproc1","recall"
"IS_JOL A",65,1,3,"BlockProc1","Location - Site","S",43,"89",16091,"StudyProc3","JOL","BlockProc1","Location - ?",43,"SITE","recallproc1","recall"
"IS_JOL A",65,1,3,"BlockProc1","Dump - Waste","S",44,"80",10369,"StudyProc3","JOL","BlockProc1","Dump - ?",44,"WASTE","recallproc1","recall"
"IS_JOL A",65,1,3,"BlockProc1","Trial - Jury","S",45,"100",12174,"StudyProc3","JOL","BlockProc1","Trial - ?",45,"JURY","recallproc1","recall"
"IS_JOL A",65,1,3,"BlockProc1","Architecture - Design","S",46,"70",17391,"StudyProc3","JOL","BlockProc1","Architecture - ?",46,"SITE","recallproc1","recall"
"IS_JOL A",65,1,3,"BlockProc1","Grill - Bar","S",47,"90",17885,"StudyProc3","JOL","BlockProc1","Grill - ?",47,"MEAT","recallproc1","recall"
"IS_JOL A",65,1,3,"BlockProc1","Kidney - Liver","S",48,"0",30584,"StudyProc3","JOL","BlockProc1","Kidney - ?",48,"LIVER","recallproc1","recall"
"IS_JOL A",65,1,3,"BlockProc1","Begin - End","S",49,"100",5933,"StudyProc3","JOL","BlockProc1","Begin - ?",49,"END","recallproc1","recall"
"IS_JOL A",65,1,3,"BlockProc1","Blow - Wind","S",50,"100",13334,"StudyProc3","JOL","BlockProc1","Blow - ?",50,"WIND","recallproc1","recall"
"IS_JOL A",65,1,3,"BlockProc1","Pop - Soda","S",51,"70",15939,"StudyProc3","JOL","BlockProc1","Pop - ?",51,"SODA","recallproc1","recall"
"IS_JOL A",65,1,3,"BlockProc1","Wine - Cheese","S",52,"80",10621,"StudyProc3","JOL","BlockProc1","Wine - ?",52,"POP","recallproc1","recall"
"IS_JOL A",65,1,3,"BlockProc1","Bathroom - Toilet","S",53,"100",20526,"StudyProc3","JOL","BlockProc1","Bathroom - ?",53,"TOILET","recallproc1","recall"
"IS_JOL A",65,1,3,"BlockProc1","Lettuce - Salad","S",54,"100",15738,"StudyProc3","JOL","BlockProc1","Lettuce - ?",54,"SALAD","recallproc1","recall"
"IS_JOL A",65,1,3,"BlockProc1","Shoe - Foot","S",55,"60",16440,"StudyProc3","JOL","BlockProc1","Shoe - ?",55,"FOOT","recallproc1","recall"
"IS_JOL A",65,1,3,"BlockProc1","Past - Future","S",56,"100",9717,"StudyProc3","JOL","BlockProc1","Past - ?",56,"FUTURE","recallproc1","recall"
"IS_JOL A",65,1,3,"BlockProc1","Choice - Decision","S",57,"80",22949,"StudyProc3","JOL","BlockProc1","Choice - ?",57,"DECISION","recallproc1","recall"
"IS_JOL A",65,1,3,"BlockProc1","Honey - Bee","S",58,"60",22582,"StudyProc3","JOL","BlockProc1","Honey - ?",58,"BEE","recallproc1","recall"
"IS_JOL A",65,1,3,"BlockProc1","Baby - Child","S",59,"100",19710,"StudyProc3","JOL","BlockProc1","Baby - ?",59,"CHLD","recallproc1","recall"
"IS_JOL A",65,1,3,"BlockProc1","Circle - Round","S",60,"100",15013,"StudyProc3","JOL","BlockProc1","Circle - ?",60,"ROUND","recallproc1","recall"
"IS_JOL A",65,1,3,"BlockProc1","Pusher - Clutter","U",61,"60",9896,"StudyProc3","JOL","BlockProc1","Pusher - ?",61,"DIETARY","recallproc1","recall"
"IS_JOL A",65,1,3,"BlockProc1","Dietary - Sacking","U",62,"80",17178,"StudyProc3","JOL","BlockProc1","Dietary - ?",62,"FULL","recallproc1","recall"
"IS_JOL A",65,1,3,"BlockProc1","Park - Hungry","U",63,"80",11018,"StudyProc3","JOL","BlockProc1","Park - ?",63,"BALL","recallproc1","recall"
"IS_JOL A",65,1,3,"BlockProc1","Lift - Woman","U",64,"70",12586,"StudyProc3","JOL","BlockProc1","Lift - ?",64,"DROP","recallproc1","recall"
"IS_JOL A",65,1,3,"BlockProc1","Soon - Belt","U",65,"100",10910,"StudyProc3","JOL","BlockProc1","Soon - ?",65,"DUE","recallproc1","recall"
"IS_JOL A",65,1,3,"BlockProc1","Discover - Floor","U",66,"80",13443,"StudyProc3","JOL","BlockProc1","Discover - ?",66,"FIND","recallproc1","recall"
"IS_JOL A",65,1,3,"BlockProc1","Death - Business","U",67,"75",19695,"StudyProc3","JOL","BlockProc1","Death - ?",67,"LIFE","recallproc1","recall"
"IS_JOL A",65,1,3,"BlockProc1","Debate - Sight","U",68,"100",11735,"StudyProc3","JOL","BlockProc1","Debate - ?",68,"DISCUSSION","recallproc1","recall"
"IS_JOL A",65,1,3,"BlockProc1","Artery - Bronze","U",69,"50",18176,"StudyProc3","JOL","BlockProc1","Artery - ?",69,"DIETARY","recallproc1","recall"
"IS_JOL A",65,1,3,"BlockProc1","Fix - Hand","U",70,"70",13058,"StudyProc3","JOL","BlockProc1","Fix - ?",70,"MAKE","recallproc1","recall"
"IS_JOL A",65,1,3,"BlockProc1","Machine - Position","U",71,"70",20229,"StudyProc3","JOL","BlockProc1","Machine - ?",71,"GRILL","recallproc1","recall"
"IS_JOL A",65,1,3,"BlockProc1","Happy - Car","U",72,"100",6349,"StudyProc3","JOL","BlockProc1","Happy - ?",72,"FANTASTIC","recallproc1","recall"
"IS_JOL A",65,1,3,"BlockProc1","Allow - Tuck","U",73,"80",10859,"StudyProc3","JOL","BlockProc1","Allow - ?",73,"MAKE","recallproc1","recall"
"IS_JOL A",65,1,3,"BlockProc1","Art - Lion","U",74,"100",14268,"StudyProc3","JOL","BlockProc1","Art - ?",74,"PICTURE","recallproc1","recall"
"IS_JOL A",65,1,3,"BlockProc1","Strong - Accident","U",75,"80",9313,"StudyProc3","JOL","BlockProc1","Strong - ?",75,"WEAK","recallproc1","recall"
"IS_JOL A",65,1,3,"BlockProc1","Sugar - Riddle","U",76,"80",11090,"StudyProc3","JOL","BlockProc1","Sugar - ?",76,"SALT","recallproc1","recall"
"IS_JOL A",65,1,3,"BlockProc1","Valley - Add","U",77,"0",14588,"StudyProc3","JOL","BlockProc1","Valley - ?",77,"CAVE","recallproc1","recall"
"IS_JOL A",65,1,3,"BlockProc1","Cash - Would","U",78,"30",12984,"StudyProc3","JOL","BlockProc1","Cash - ?",78,"MONEY","recallproc1","recall"
"IS_JOL A",65,1,3,"BlockProc1","Hide - Sick","U",79,"70",10646,"StudyProc3","JOL","BlockProc1","Hide - ?",79,"OUT","recallproc1","recall"
"IS_JOL A",65,1,3,"BlockProc1","King - Vase","U",80,"70",13267,"StudyProc3","JOL","BlockProc1","King - ?",80,"PAW","recallproc1","recall"
"RL_JOL A",69,1,3,"BlockProc1","Delinquent - Bad","F",1,"80",7239,"StudyProc7","JOL","BlockProc1","Delinquent - ?",1,"bad","recallproc1","recall"
"RL_JOL A",69,1,3,"BlockProc1","Digestion - Stomach","F",2,"100",4478,"StudyProc7","JOL","BlockProc1","Digestion - ?",2,"stomach","recallproc1","recall"
"RL_JOL A",69,1,3,"BlockProc1","Wage - Money","F",3,"40",5176,"StudyProc7","JOL","BlockProc1","Wage - ?",3,"money","recallproc1","recall"
"RL_JOL A",69,1,3,"BlockProc1","Chisel - Hammer","F",4,"75",7314,"StudyProc7","JOL","BlockProc1","Chisel - ?",4,"hammer","recallproc1","recall"
"RL_JOL A",69,1,3,"BlockProc1","Editor - News","F",5,"80",6876,"StudyProc7","JOL","BlockProc1","Editor - ?",5,"news","recallproc1","recall"
"RL_JOL A",69,1,3,"BlockProc1","Hornet - Sting","F",6,"70",6208,"StudyProc7","JOL","BlockProc1","Hornet - ?",6,"sting","recallproc1","recall"
"RL_JOL A",69,1,3,"BlockProc1","Bitter - Cold","F",7,"80",7096,"StudyProc7","JOL","BlockProc1","Bitter - ?",7,"cold","recallproc1","recall"
"RL_JOL A",69,1,3,"BlockProc1","Root - Plant","F",8,"50",5326,"StudyProc7","JOL","BlockProc1","Root - ?",8,"plant","recallproc1","recall"
"RL_JOL A",69,1,3,"BlockProc1","Swan - Bird","F",9,"90",5527,"StudyProc7","JOL","BlockProc1","Swan - ?",9,"fish","recallproc1","recall"
"RL_JOL A",69,1,3,"BlockProc1","Paw - Dog","F",10,"85",6152,"StudyProc7","JOL","BlockProc1","Paw - ?",10,"dog","recallproc1","recall"
"RL_JOL A",69,1,3,"BlockProc1","Way - Out","F",11,"50",5866,"StudyProc7","JOL","BlockProc1","Way - ?",11,"hard","recallproc1","recall"
"RL_JOL A",69,1,3,"BlockProc1","Hygiene - Clean","F",12,"100",7868,"StudyProc7","JOL","BlockProc1","Hygiene - ?",12,"clean","recallproc1","recall"
"RL_JOL A",69,1,3,"BlockProc1","Bridge - Water","F",13,"80",6327,"StudyProc7","JOL","BlockProc1","Bridge - ?",13,"water","recallproc1","recall"
"RL_JOL A",69,1,3,"BlockProc1","Geology - Rock","F",14,"70",10868,"StudyProc7","JOL","BlockProc1","Geology - ?",14,"rock","recallproc1","recall"
"RL_JOL A",69,1,3,"BlockProc1","Revolution - War","F",15,"89",5708,"StudyProc7","JOL","BlockProc1","Revolution - ?",15,"war","recallproc1","recall"
"RL_JOL A",69,1,3,"BlockProc1","Discussion - Talk","F",16,"90",6712,"StudyProc7","JOL","BlockProc1","Discussion - ?",16,"talk","recallproc1","recall"
"RL_JOL A",69,1,3,"BlockProc1","Herd - Cow","F",17,"70",8952,"StudyProc7","JOL","BlockProc1","Herd - ?",17,"cow","recallproc1","recall"
"RL_JOL A",69,1,3,"BlockProc1","Credit - Card","F",18,"100",8051,"StudyProc7","JOL","BlockProc1","Credit - ?",18,"card","recallproc1","recall"
"RL_JOL A",69,1,3,"BlockProc1","Orchid - Flower","F",19,"90",6695,"StudyProc7","JOL","BlockProc1","Orchid - ?",19,"plant","recallproc1","recall"
"RL_JOL A",69,1,3,"BlockProc1","Tuna - Fish","F",20,"65",5122,"StudyProc7","JOL","BlockProc1","Tuna - ?",20,"fish","recallproc1","recall"
"RL_JOL A",69,1,3,"BlockProc1","Full - Enough","B",21,"85",7896,"StudyProc7","JOL","BlockProc1","Full - ?",21,"enough","recallproc1","recall"
"RL_JOL A",69,1,3,"BlockProc1","Drink - Sip","B",22,"50",7308,"StudyProc7","JOL","BlockProc1","Drink - ?",22,"soda","recallproc1","recall"
"RL_JOL A",69,1,3,"BlockProc1","Dark - Cave","B",23,"70",8535,"StudyProc7","JOL","BlockProc1","Dark - ?",23,"cave","recallproc1","recall"
"RL_JOL A",69,1,3,"BlockProc1","Take - Seize","B",24,"61",13278,"StudyProc7","JOL","BlockProc1","Take - ?",24,"sieze","recallproc1","recall"
"RL_JOL A",69,1,3,"BlockProc1","Height - Growth","B",25,"89",12139,"StudyProc7","JOL","BlockProc1","Height - ?",25,"growth","recallproc1","recall"
"RL_JOL A",69,1,3,"BlockProc1","Sentence - Word","B",26,"90",5450,"StudyProc7","JOL","BlockProc1","Sentence - ?",26,"word","recallproc1","recall"
"RL_JOL A",69,1,3,"BlockProc1","Bug - Wasp","B",27,"73",8410,"StudyProc7","JOL","BlockProc1","Bug - ?",27,"wasp","recallproc1","recall"
"RL_JOL A",69,1,3,"BlockProc1","Math - Division","B",28,"72",9681,"StudyProc7","JOL","BlockProc1","Math - ?",28,"division","recallproc1","recall"
"RL_JOL A",69,1,3,"BlockProc1","Law - Attorney","B",29,"95",4863,"StudyProc7","JOL","BlockProc1","Law - ?",29,"student","recallproc1","recall"
"RL_JOL A",69,1,3,"BlockProc1","Great - Fantastic","B",30,"75",7225,"StudyProc7","JOL","BlockProc1","Great - ?",30,"fantastic","recallproc1","recall"
"RL_JOL A",69,1,3,"BlockProc1","Key - Latch","B",31,"70",7370,"StudyProc7","JOL","BlockProc1","Key - ?",31,"latch","recallproc1","recall"
"RL_JOL A",69,1,3,"BlockProc1","Hot - Chili","B",32,"60",4512,"StudyProc7","JOL","BlockProc1","Hot - ?",32,"chili","recallproc1","recall"
"RL_JOL A",69,1,3,"BlockProc1","Ball - Racket","B",33,"64",6847,"StudyProc7","JOL","BlockProc1","Ball - ?",33,"racket","recallproc1","recall"
"RL_JOL A",69,1,3,"BlockProc1","Work - Chore","B",34,"30",9246,"StudyProc7","JOL","BlockProc1","Work - ?",34,"study","recallproc1","recall"
"RL_JOL A",69,1,3,"BlockProc1","Hunger - Famine","B",35,"83",7520,"StudyProc7","JOL","BlockProc1","Hunger - ?",35,"food","recallproc1","recall"
"RL_JOL A",69,1,3,"BlockProc1","Sleep - Drowsy","B",36,"100",6202,"StudyProc7","JOL","BlockProc1","Sleep - ?",36,"rest","recallproc1","recall"
"RL_JOL A",69,1,3,"BlockProc1","Smell - Stench","B",37,"45",7762,"StudyProc7","JOL","BlockProc1","Smell - ?",37,"stench","recallproc1","recall"
"RL_JOL A",69,1,3,"BlockProc1","Clothes - Attire","B",38,"90",7787,"StudyProc7","JOL","BlockProc1","Clothes - ?",38,"attire","recallproc1","recall"
"RL_JOL A",69,1,3,"BlockProc1","Plane - Pilot","B",39,"80",5628,"StudyProc7","JOL","BlockProc1","Plane - ?",39,"pilot","recallproc1","recall"
"RL_JOL A",69,1,3,"BlockProc1","Fire - Blaze","B",40,"61",6474,"StudyProc7","JOL","BlockProc1","Fire - ?",40,"blaze","recallproc1","recall"
"RL_JOL A",69,1,3,"BlockProc1","Due - Assignment","S",41,"100",6969,"StudyProc3","JOL","BlockProc1","Due - ?",41,"assignment","recallproc1","recall"
"RL_JOL A",69,1,3,"BlockProc1","Number - Amount","S",42,"80",10481,"StudyProc3","JOL","BlockProc1","Number - ?",42,"amount","recallproc1","recall"
"RL_JOL A",69,1,3,"BlockProc1","Location - Site","S",43,"90",6491,"StudyProc3","JOL","BlockProc1","Location - ?",43,"site","recallproc1","recall"
"RL_JOL A",69,1,3,"BlockProc1","Dump - Waste","S",44,"100",4070,"StudyProc3","JOL","BlockProc1","Dump - ?",44,"waste","recallproc1","recall"
"RL_JOL A",69,1,3,"BlockProc1","Trial - Jury","S",45,"83",9679,"StudyProc3","JOL","BlockProc1","Trial - ?",45,"jury","recallproc1","recall"
"RL_JOL A",69,1,3,"BlockProc1","Architecture - Design","S",46,"99",11578,"StudyProc3","JOL","BlockProc1","Architecture - ?",46,"design","recallproc1","recall"
"RL_JOL A",69,1,3,"BlockProc1","Grill - Bar","S",47,"70",8911,"StudyProc3","JOL","BlockProc1","Grill - ?",47,"bar","recallproc1","recall"
"RL_JOL A",69,1,3,"BlockProc1","Kidney - Liver","S",48,"100",7029,"StudyProc3","JOL","BlockProc1","Kidney - ?",48,"pancreas","recallproc1","recall"
"RL_JOL A",69,1,3,"BlockProc1","Begin - End","S",49,"100",9842,"StudyProc3","JOL","BlockProc1","Begin - ?",49,"end","recallproc1","recall"
"RL_JOL A",69,1,3,"BlockProc1","Blow - Wind","S",50,"75",8665,"StudyProc3","JOL","BlockProc1","Blow - ?",50,"food","recallproc1","recall"
"RL_JOL A",69,1,3,"BlockProc1","Pop - Soda","S",51,"100",5357,"StudyProc3","JOL","BlockProc1","Pop - ?",51,"soda","recallproc1","recall"
"RL_JOL A",69,1,3,"BlockProc1","Wine - Cheese","S",52,"85",7103,"StudyProc3","JOL","BlockProc1","Wine - ?",52,"cheese","recallproc1","recall"
"RL_JOL A",69,1,3,"BlockProc1","Bathroom - Toilet","S",53,"100",6250,"StudyProc3","JOL","BlockProc1","Bathroom - ?",53,"toilet","recallproc1","recall"
"RL_JOL A",69,1,3,"BlockProc1","Lettuce - Salad","S",54,"98",8867,"StudyProc3","JOL","BlockProc1","Lettuce - ?",54,"salad","recallproc1","recall"
"RL_JOL A",69,1,3,"BlockProc1","Shoe - Foot","S",55,"85",10661,"StudyProc3","JOL","BlockProc1","Shoe - ?",55,"foot","recallproc1","recall"
"RL_JOL A",69,1,3,"BlockProc1","Past - Future","S",56,"90",9617,"StudyProc3","JOL","BlockProc1","Past - ?",56,"future","recallproc1","recall"
"RL_JOL A",69,1,3,"BlockProc1","Choice - Decision","S",57,"100",4831,"StudyProc3","JOL","BlockProc1","Choice - ?",57,"decision","recallproc1","recall"
"RL_JOL A",69,1,3,"BlockProc1","Honey - Bee","S",58,"100",7897,"StudyProc3","JOL","BlockProc1","Honey - ?",58,"bee","recallproc1","recall"
"RL_JOL A",69,1,3,"BlockProc1","Baby - Child","S",59,"100",5747,"StudyProc3","JOL","BlockProc1","Baby - ?",59,"child","recallproc1","recall"
"RL_JOL A",69,1,3,"BlockProc1","Circle - Round","S",60,"90",11160,"StudyProc3","JOL","BlockProc1","Circle - ?",60,"round","recallproc1","recall"
"RL_JOL A",69,1,3,"BlockProc1","Pusher - Clutter","U",61,"0",5337,"StudyProc3","JOL","BlockProc1","Pusher - ?",61,"taker","recallproc1","recall"
"RL_JOL A",69,1,3,"BlockProc1","Dietary - Slacking","U",62,"30",8669,"StudyProc3","JOL","BlockProc1","Dietary - ?",62,"cheat","recallproc1","recall"
"RL_JOL A",69,1,3,"BlockProc1","Park - Hungry","U",63,"10",14521,"StudyProc3","JOL","BlockProc1","Park - ?",63,"hungry","recallproc1","recall"
"RL_JOL A",69,1,3,"BlockProc1","Lift - Woman","U",64,"0",5080,"StudyProc3","JOL","BlockProc1","Lift - ?",64,"pull","recallproc1","recall"
"RL_JOL A",69,1,3,"BlockProc1","Soon - Belt","U",65,"0",6921,"StudyProc3","JOL","BlockProc1","Soon - ?",65,"almost","recallproc1","recall"
"RL_JOL A",69,1,3,"BlockProc1","Discover - Floor","U",66,"0",10302,"StudyProc3","JOL","BlockProc1","Discover - ?",66,"find","recallproc1","recall"
"RL_JOL A",69,1,3,"BlockProc1","Death - Business","U",67,"40",12627,"StudyProc3","JOL","BlockProc1","Death - ?",67,"business","recallproc1","recall"
"RL_JOL A",69,1,3,"BlockProc1","Debate - Sight","U",68,"0",6519,"StudyProc3","JOL","BlockProc1","Debate - ?",68,"discussion","recallproc1","recall"
"RL_JOL A",69,1,3,"BlockProc1","Artery - Bronze","U",69,"0",8809,"StudyProc3","JOL","BlockProc1","Artery - ?",69,"vein","recallproc1","recall"
"RL_JOL A",69,1,3,"BlockProc1","Fix - Hand","U",70,"0",5659,"StudyProc3","JOL","BlockProc1","Fix - ?",70,"hand","recallproc1","recall"
"RL_JOL A",69,1,3,"BlockProc1","Machine - Position","U",71,"0",4543,"StudyProc3","JOL","BlockProc1","Machine - ?",71,"number","recallproc1","recall"
"RL_JOL A",69,1,3,"BlockProc1","Happy - Car","U",72,"60",6258,"StudyProc3","JOL","BlockProc1","Happy - ?",72,"car","recallproc1","recall"
"RL_JOL A",69,1,3,"BlockProc1","Allow - Tuck","U",73,"0",5241,"StudyProc3","JOL","BlockProc1","Allow - ?",73,"vase","recallproc1","recall"
"RL_JOL A",69,1,3,"BlockProc1","Art - Lion","U",74,"0",9232,"StudyProc3","JOL","BlockProc1","Art - ?",74,"design","recallproc1","recall"
"RL_JOL A",69,1,3,"BlockProc1","Strong - Accident","U",75,"10",12464,"StudyProc3","JOL","BlockProc1","Strong - ?",75,"arm","recallproc1","recall"
"RL_JOL A",69,1,3,"BlockProc1","Sugar - Riddle","U",76,"0",5738,"StudyProc3","JOL","BlockProc1","Sugar - ?",76,"dessert","recallproc1","recall"
"RL_JOL A",69,1,3,"BlockProc1","Valley - Add","U",77,"0",3620,"StudyProc3","JOL","BlockProc1","Valley - ?",77,"flower","recallproc1","recall"
"RL_JOL A",69,1,3,"BlockProc1","Cash - Would","U",78,"0",8489,"StudyProc3","JOL","BlockProc1","Cash - ?",78,"cow","recallproc1","recall"
"RL_JOL A",69,1,3,"BlockProc1","Hide - Sick","U",79,"50",8985,"StudyProc3","JOL","BlockProc1","Hide - ?",79,"sike","recallproc1","recall"
"RL_JOL A",69,1,3,"BlockProc1","King - Vase","U",80,"0",6261,"StudyProc3","JOL","BlockProc1","King - ?",80,"vase","recallproc1","recall"
"READ_JOL A",73,1,3,"BlockProc1","Delinquent - Bad","F",1,"25",3604,"StudyProc7","JOL","BlockProc1","Delinquent - ?",1,"child","recallproc1","recall"
"READ_JOL A",73,1,3,"BlockProc1","Digestion - Stomach","F",2,"100",2417,"StudyProc7","JOL","BlockProc1","Digestion - ?",2,"stomach","recallproc1","recall"
"READ_JOL A",73,1,3,"BlockProc1","Wage - Money","F",3,"75",3041,"StudyProc7","JOL","BlockProc1","Wage - ?",3,"saay","recallproc1","recall"
"READ_JOL A",73,1,3,"BlockProc1","Chisel - Hammer","F",4,"75",3195,"StudyProc7","JOL","BlockProc1","Chisel - ?",4,"rock","recallproc1","recall"
"READ_JOL A",73,1,3,"BlockProc1","Editor - News","F",5,"25",7663,"StudyProc7","JOL","BlockProc1","Editor - ?",5,"author","recallproc1","recall"
"READ_JOL A",73,1,3,"BlockProc1","Hornet - Sting","F",6,"50",3831,"StudyProc7","JOL","BlockProc1","Hornet - ?",6,"sting","recallproc1","recall"
"READ_JOL A",73,1,3,"BlockProc1","Bitter - Cold","F",7,"25",3747,"StudyProc7","JOL","BlockProc1","Bitter - ?",7,"sweet","recallproc1","recall"
"READ_JOL A",73,1,3,"BlockProc1","Root - Plant","F",8,"100",4155,"StudyProc7","JOL","BlockProc1","Root - ?",8,"plant","recallproc1","recall"
"READ_JOL A",73,1,3,"BlockProc1","Swan - Bird","F",9,"75",2239,"StudyProc7","JOL","BlockProc1","Swan - ?",9,"bird","recallproc1","recall"
"READ_JOL A",73,1,3,"BlockProc1","Paw - Dog","F",10,"100",3554,"StudyProc7","JOL","BlockProc1","Paw - ?",10,"dog","recallproc1","recall"
"READ_JOL A",73,1,3,"BlockProc1","Way - Out","F",11,"25",4630,"StudyProc7","JOL","BlockProc1","Way - ?",11,"out","recallproc1","recall"
"READ_JOL A",73,1,3,"BlockProc1","Hygiene - Clean","F",12,"100",2241,"StudyProc7","JOL","BlockProc1","Hygiene - ?",12,"clean","recallproc1","recall"
"READ_JOL A",73,1,3,"BlockProc1","Bridge - Water","F",13,"75",3224,"StudyProc7","JOL","BlockProc1","Bridge - ?",13,"stone","recallproc1","recall"
"READ_JOL A",73,1,3,"BlockProc1","Geology - Rock","F",14,"75",3327,"StudyProc7","JOL","BlockProc1","Geology - ?",14,"rock","recallproc1","recall"
"READ_JOL A",73,1,3,"BlockProc1","Revolution - War","F",15,"75",5669,"StudyProc7","JOL","BlockProc1","Revolution - ?",15,"war","recallproc1","recall"
"READ_JOL A",73,1,3,"BlockProc1","Discussion - Talk","F",16,"25",3241,"StudyProc7","JOL","BlockProc1","Discussion - ?",16,"conversation","recallproc1","recall"
"READ_JOL A",73,1,3,"BlockProc1","Herd - Cow","F",17,"75",1810,"StudyProc7","JOL","BlockProc1","Herd - ?",17,"cow","recallproc1","recall"
"READ_JOL A",73,1,3,"BlockProc1","Credit - Card","F",18,"100",4638,"StudyProc7","JOL","BlockProc1","Credit - ?",18,"card","recallproc1","recall"
"READ_JOL A",73,1,3,"BlockProc1","Orchid - Flower","F",19,"75",2718,"StudyProc7","JOL","BlockProc1","Orchid - ?",19,"flower","recallproc1","recall"
"READ_JOL A",73,1,3,"BlockProc1","Tuna - Fish","F",20,"100",4603,"StudyProc7","JOL","BlockProc1","Tuna - ?",20,"fish","recallproc1","recall"
"READ_JOL A",73,1,3,"BlockProc1","Full - Enough","B",21,"50",2733,"StudyProc7","JOL","BlockProc1","Full - ?",21,"empty","recallproc1","recall"
"READ_JOL A",73,1,3,"BlockProc1","Drink - Sip","B",22,"25",8127,"StudyProc7","JOL","BlockProc1","Drink - ?",22,"soda","recallproc1","recall"
"READ_JOL A",73,1,3,"BlockProc1","Dark - Cave","B",23,"75",2270,"StudyProc7","JOL","BlockProc1","Dark - ?",23,"black","recallproc1","recall"
"READ_JOL A",73,1,3,"BlockProc1","Take - Seize","B",24,"100",3455,"StudyProc7","JOL","BlockProc1","Take - ?",24,"away","recallproc1","recall"
"READ_JOL A",73,1,3,"BlockProc1","Height - Growth","B",25,"100",26215,"StudyProc7","JOL","BlockProc1","Height - ?",25,"weight","recallproc1","recall"
"READ_JOL A",73,1,3,"BlockProc1","Sentence - Word","B",26,"25",4028,"StudyProc7","JOL","BlockProc1","Sentence - ?",26,"word","recallproc1","recall"
"READ_JOL A",73,1,3,"BlockProc1","Bug - Wasp","B",27,"75",12528,"StudyProc7","JOL","BlockProc1","Bug - ?",27,"sting","recallproc1","recall"
"READ_JOL A",73,1,3,"BlockProc1","Math - Division","B",28,"50",3082,"StudyProc7","JOL","BlockProc1","Math - ?",28,"division","recallproc1","recall"
"READ_JOL A",73,1,3,"BlockProc1","Law - Attorney","B",29,"100",2855,"StudyProc7","JOL","BlockProc1","Law - ?",29,"attorney","recallproc1","recall"
"READ_JOL A",73,1,3,"BlockProc1","Great - Fantastic","B",30,"75",3019,"StudyProc7","JOL","BlockProc1","Great - ?",30,"excellent","recallproc1","recall"
"READ_JOL A",73,1,3,"BlockProc1","Key - Latch","B",31,"24",3975,"StudyProc7","JOL","BlockProc1","Key - ?",31,"lock","recallproc1","recall"
"READ_JOL A",73,1,3,"BlockProc1","Hot - Chili","B",32,"75",2070,"StudyProc7","JOL","BlockProc1","Hot - ?",32,"cold","recallproc1","recall"
"READ_JOL A",73,1,3,"BlockProc1","Ball - Racket","B",33,"75",2396,"StudyProc7","JOL","BlockProc1","Ball - ?",33,"racket","recallproc1","recall"
"READ_JOL A",73,1,3,"BlockProc1","Work - Chore","B",34,"75",4208,"StudyProc7","JOL","BlockProc1","Work - ?",34,"job","recallproc1","recall"
"READ_JOL A",73,1,3,"BlockProc1","Hunger - Famine","B",35,"75",4983,"StudyProc7","JOL","BlockProc1","Hunger - ?",35,"phamon","recallproc1","recall"
"READ_JOL A",73,1,3,"BlockProc1","Sleep - Drowsy","B",36,"75",2036,"StudyProc7","JOL","BlockProc1","Sleep - ?",36,"awake","recallproc1","recall"
"READ_JOL A",73,1,3,"BlockProc1","Smell - Stench","B",37,"25",4332,"StudyProc7","JOL","BlockProc1","Smell - ?",37,"taste","recallproc1","recall"
"READ_JOL A",73,1,3,"BlockProc1","Clothes - Attire","B",38,"100",2903,"StudyProc7","JOL","BlockProc1","Clothes - ?",38,"attire","recallproc1","recall"
"READ_JOL A",73,1,3,"BlockProc1","Plane - Pilot","B",39,"100",2906,"StudyProc7","JOL","BlockProc1","Plane - ?",39,"air","recallproc1","recall"
"READ_JOL A",73,1,3,"BlockProc1","Fire - Blaze","B",40,"50",6754,"StudyProc7","JOL","BlockProc1","Fire - ?",40,"blaze","recallproc1","recall"
"READ_JOL A",73,1,3,"BlockProc1","Due - Assignment","S",41,"75",4038,"StudyProc3","JOL","BlockProc1","Due - ?",41,"assignment","recallproc1","recall"
"READ_JOL A",73,1,3,"BlockProc1","Number - Amount","S",42,"100",3344,"StudyProc3","JOL","BlockProc1","Number - ?",42,"math","recallproc1","recall"
"READ_JOL A",73,1,3,"BlockProc1","Location - Site","S",43,"100",2451,"StudyProc3","JOL","BlockProc1","Location - ?",43,"time","recallproc1","recall"
"READ_JOL A",73,1,3,"BlockProc1","Dump - Waste","S",44,"100",3067,"StudyProc3","JOL","BlockProc1","Dump - ?",44,"garbage","recallproc1","recall"
"READ_JOL A",73,1,3,"BlockProc1","Trial - Jury","S",45,"100",3306,"StudyProc3","JOL","BlockProc1","Trial - ?",45,"court","recallproc1","recall"
"READ_JOL A",73,1,3,"BlockProc1","Architecture - Design","S",46,"75",23000,"StudyProc3","JOL","BlockProc1","Architecture - ?",46,"idea","recallproc1","recall"
"READ_JOL A",73,1,3,"BlockProc1","Grill - Bar","S",47,"100",2922,"StudyProc3","JOL","BlockProc1","Grill - ?",47,"oven","recallproc1","recall"
"READ_JOL A",73,1,3,"BlockProc1","Kidney - Liver","S",48,"100",2749,"StudyProc3","JOL","BlockProc1","Kidney - ?",48,"liver","recallproc1","recall"
"READ_JOL A",73,1,3,"BlockProc1","Begin - End","S",49,"100",2491,"StudyProc3","JOL","BlockProc1","Begin - ?",49,"start","recallproc1","recall"
"READ_JOL A",73,1,3,"BlockProc1","Blow - Wind","S",50,"0",17123,"StudyProc3","JOL","BlockProc1","Blow - ?",50,"wind","recallproc1","recall"
"READ_JOL A",73,1,3,"BlockProc1","Pop - Soda","S",51,"100",2692,"StudyProc3","JOL","BlockProc1","Pop - ?",51,"soda","recallproc1","recall"
"READ_JOL A",73,1,3,"BlockProc1","Wine - Cheese","S",52,"100",4564,"StudyProc3","JOL","BlockProc1","Wine - ?",52,"cheese","recallproc1","recall"
"READ_JOL A",73,1,3,"BlockProc1","Bathroom - Toilet","S",53,"100",2428,"StudyProc3","JOL","BlockProc1","Bathroom - ?",53,"toilet","recallproc1","recall"
"READ_JOL A",73,1,3,"BlockProc1","Lettuce - Salad","S",54,"100",3249,"StudyProc3","JOL","BlockProc1","Lettuce - ?",54,"salad","recallproc1","recall"
"READ_JOL A",73,1,3,"BlockProc1","Shoe - Foot","S",55,"100",8812,"StudyProc3","JOL","BlockProc1","Shoe - ?",55,"foot","recallproc1","recall"
"READ_JOL A",73,1,3,"BlockProc1","Past - Future","S",56,"100",2424,"StudyProc3","JOL","BlockProc1","Past - ?",56,"future","recallproc1","recall"
"READ_JOL A",73,1,3,"BlockProc1","Choice - Decision","S",57,"100",2907,"StudyProc3","JOL","BlockProc1","Choice - ?",57,"decscion","recallproc1","recall"
"READ_JOL A",73,1,3,"BlockProc1","Honey - Bee","S",58,"100",4067,"StudyProc3","JOL","BlockProc1","Honey - ?",58,"bee","recallproc1","recall"
"READ_JOL A",73,1,3,"BlockProc1","Baby - Child","S",59,"25",3632,"StudyProc3","JOL","BlockProc1","Baby - ?",59,"child","recallproc1","recall"
"READ_JOL A",73,1,3,"BlockProc1","Circle - Round","S",60,"75",3427,"StudyProc3","JOL","BlockProc1","Circle - ?",60,"oval","recallproc1","recall"
"READ_JOL A",73,1,3,"BlockProc1","Pusher - Clutter","U",61,"0",9682,"StudyProc3","JOL","BlockProc1","Pusher - ?",61,"ll","recallproc1","recall"
"READ_JOL A",73,1,3,"BlockProc1","Dietary - Slacking","U",62,"25",6500,"StudyProc3","JOL","BlockProc1","Dietary - ?",62,"healthy","recallproc1","recall"
"READ_JOL A",73,1,3,"BlockProc1","Park - Hungry","U",63,"50",4556,"StudyProc3","JOL","BlockProc1","Park - ?",63,"hungry","recallproc1","recall"
"READ_JOL A",73,1,3,"BlockProc1","Lift - Woman","U",64,"15",3572,"StudyProc3","JOL","BlockProc1","Lift - ?",64,"women","recallproc1","recall"
"READ_JOL A",73,1,3,"BlockProc1","Soon - Belt","U",65,"0",2092,"StudyProc3","JOL","BlockProc1","Soon - ?",65,"later","recallproc1","recall"
"READ_JOL A",73,1,3,"BlockProc1","Discover - Floor","U",66,"25",3373,"StudyProc3","JOL","BlockProc1","Discover - ?",66,"bury","recallproc1","recall"
"READ_JOL A",73,1,3,"BlockProc1","Death - Business","U",67,"0",2542,"StudyProc3","JOL","BlockProc1","Death - ?",67,"life","recallproc1","recall"
"READ_JOL A",73,1,3,"BlockProc1","Debate - Sight","U",68,"25",3072,"StudyProc3","JOL","BlockProc1","Debate - ?",68,"arguement","recallproc1","recall"
"READ_JOL A",73,1,3,"BlockProc1","Artery - Bronze","U",69,"0",2062,"StudyProc3","JOL","BlockProc1","Artery - ?",69,"heart","recallproc1","recall"
"READ_JOL A",73,1,3,"BlockProc1","Fix - Hand","U",70,"0",1433,"StudyProc3","JOL","BlockProc1","Fix - ?",70,"break","recallproc1","recall"
"READ_JOL A",73,1,3,"BlockProc1","Machine - Position","U",71,"10",3813,"StudyProc3","JOL","BlockProc1","Machine - ?",71,"work","recallproc1","recall"
"READ_JOL A",73,1,3,"BlockProc1","Happy - Car","U",72,"0",3400,"StudyProc3","JOL","BlockProc1","Happy - ?",72,"upset","recallproc1","recall"
"READ_JOL A",73,1,3,"BlockProc1","Allow - Tuck","U",73,"25",2916,"StudyProc3","JOL","BlockProc1","Allow - ?",73,"privilge","recallproc1","recall"
"READ_JOL A",73,1,3,"BlockProc1","Art - Lion","U",74,"0",3304,"StudyProc3","JOL","BlockProc1","Art - ?",74,"sculpture","recallproc1","recall"
"READ_JOL A",73,1,3,"BlockProc1","Strong - Accident","U",75,"25",8008,"StudyProc3","JOL","BlockProc1","Strong - ?",75,"tough","recallproc1","recall"
"READ_JOL A",73,1,3,"BlockProc1","Sugar - Riddle","U",76,"0",2106,"StudyProc3","JOL","BlockProc1","Sugar - ?",76,"candy","recallproc1","recall"
"READ_JOL A",73,1,3,"BlockProc1","Valley - Add","U",77,"0",3441,"StudyProc3","JOL","BlockProc1","Valley - ?",77,"hill","recallproc1","recall"
"READ_JOL A",73,1,3,"BlockProc1","Cash - Would","U",78,"25",5661,"StudyProc3","JOL","BlockProc1","Cash - ?",78,"money","recallproc1","recall"
"READ_JOL A",73,1,3,"BlockProc1","Hide - Sick","U",79,"25",6929,"StudyProc3","JOL","BlockProc1","Hide - ?",79,"seek","recallproc1","recall"
"READ_JOL A",73,1,3,"BlockProc1","King - Vase","U",80,"0",1496,"StudyProc3","JOL","BlockProc1","King - ?",80,"castle","recallproc1","recall"
"IS_JOL A",77,1,3,"BlockProc1","Delinquent - Bad","F",1,"30",27040,"StudyProc7","JOL","BlockProc1","Delinquent - ?",1,"quickly","recallproc1","recall"
"IS_JOL A",77,1,3,"BlockProc1","Digestion - Stomach","F",2,"80",13191,"StudyProc7","JOL","BlockProc1","Digestion - ?",2,"stomach","recallproc1","recall"
"IS_JOL A",77,1,3,"BlockProc1","Wage - Money","F",3,"30",22229,"StudyProc7","JOL","BlockProc1","Wage - ?",3,"money","recallproc1","recall"
"IS_JOL A",77,1,3,"BlockProc1","Chisel - Hammer","F",4,"0",18937,"StudyProc7","JOL","BlockProc1","Chisel - ?",4,"music","recallproc1","recall"
"IS_JOL A",77,1,3,"BlockProc1","Editor - News","F",5,"70",13608,"StudyProc7","JOL","BlockProc1","Editor - ?",5,"news","recallproc1","recall"
"IS_JOL A",77,1,3,"BlockProc1","Hornet - Sting","F",6,"70",14747,"StudyProc7","JOL","BlockProc1","Hornet - ?",6,"stinger","recallproc1","recall"
"IS_JOL A",77,1,3,"BlockProc1","Bitter - Cold","F",7,"50",17045,"StudyProc7","JOL","BlockProc1","Bitter - ?",7,"taste","recallproc1","recall"
"IS_JOL A",77,1,3,"BlockProc1","Root - Plant","F",8,"80",14299,"StudyProc7","JOL","BlockProc1","Root - ?",8,"plant","recallproc1","recall"
"IS_JOL A",77,1,3,"BlockProc1","Swan - Bird","F",9,"50",15996,"StudyProc7","JOL","BlockProc1","Swan - ?",9,"bird","recallproc1","recall"
"IS_JOL A",77,1,3,"BlockProc1","Paw - Dog","F",10,"70",20619,"StudyProc7","JOL","BlockProc1","Paw - ?",10,"dog","recallproc1","recall"
"IS_JOL A",77,1,3,"BlockProc1","Way - Out","F",11,"40",17093,"StudyProc7","JOL","BlockProc1","Way - ?",11,"path","recallproc1","recall"
"IS_JOL A",77,1,3,"BlockProc1","Hygiene - Clean","F",12,"50",16648,"StudyProc7","JOL","BlockProc1","Hygiene - ?",12,"clean","recallproc1","recall"
"IS_JOL A",77,1,3,"BlockProc1","Bridge - Water","F",13,"60",13114,"StudyProc7","JOL","BlockProc1","Bridge - ?",13,"water","recallproc1","recall"
"IS_JOL A",77,1,3,"BlockProc1","Geology - Rock","F",14,"30",12478,"StudyProc7","JOL","BlockProc1","Geology - ?",14,"human","recallproc1","recall"
"IS_JOL A",77,1,3,"BlockProc1","Revolution - War","F",15,"80",17349,"StudyProc7","JOL","BlockProc1","Revolution - ?",15,"war","recallproc1","recall"
"IS_JOL A",77,1,3,"BlockProc1","Discussion - Talk","F",16,"60",14182,"StudyProc7","JOL","BlockProc1","Discussion - ?",16,"talk","recallproc1","recall"
"IS_JOL A",77,1,3,"BlockProc1","Herd - Cow","F",17,"60",20532,"StudyProc7","JOL","BlockProc1","Herd - ?",17,"cow","recallproc1","recall"
"IS_JOL A",77,1,3,"BlockProc1","Credit - Card","F",18,"60",21567,"StudyProc7","JOL","BlockProc1","Credit - ?",18,"card","recallproc1","recall"
"IS_JOL A",77,1,3,"BlockProc1","Orchid - Flower","F",19,"10",18399,"StudyProc7","JOL","BlockProc1","Orchid - ?",19,"bird","recallproc1","recall"
"IS_JOL A",77,1,3,"BlockProc1","Tuna - Fish","F",20,"70",21620,"StudyProc7","JOL","BlockProc1","Tuna - ?",20,"fish","recallproc1","recall"
"IS_JOL A",77,1,3,"BlockProc1","Full - Enough","B",21,"70",25584,"StudyProc7","JOL","BlockProc1","Full - ?",21,"enough","recallproc1","recall"
"IS_JOL A",77,1,3,"BlockProc1","Drink - Sip","B",22,"80",9255,"StudyProc7","JOL","BlockProc1","Drink - ?",22,"sip","recallproc1","recall"
"IS_JOL A",77,1,3,"BlockProc1","Dark - Cave","B",23,"70",16934,"StudyProc7","JOL","BlockProc1","Dark - ?",23,"cave","recallproc1","recall"
"IS_JOL A",77,1,3,"BlockProc1","Take - Seize","B",24,"20",18739,"StudyProc7","JOL","BlockProc1","Take - ?",24,"grab","recallproc1","recall"
"IS_JOL A",77,1,3,"BlockProc1","Height - Growth","B",25,"60",15057,"StudyProc7","JOL","BlockProc1","Height - ?",25,"size","recallproc1","recall"
"IS_JOL A",77,1,3,"BlockProc1","Sentence - Word","B",26,"70",18231,"StudyProc7","JOL","BlockProc1","Sentence - ?",26,"word","recallproc1","recall"
"IS_JOL A",77,1,3,"BlockProc1","Bug - Wasp","B",27,"50",19877,"StudyProc7","JOL","BlockProc1","Bug - ?",27,"wasp","recallproc1","recall"
"IS_JOL A",77,1,3,"BlockProc1","Math - Division","B",28,"70",19588,"StudyProc7","JOL","BlockProc1","Math - ?",28,"divison","recallproc1","recall"
"IS_JOL A",77,1,3,"BlockProc1","Law - Attorney","B",29,"70",17398,"StudyProc7","JOL","BlockProc1","Law - ?",29,"attorney","recallproc1","recall"
"IS_JOL A",77,1,3,"BlockProc1","Great - Fantastic","B",30,"40",19902,"StudyProc7","JOL","BlockProc1","Great - ?",30,"fanstatic","recallproc1","recall"
"IS_JOL A",77,1,3,"BlockProc1","Key - Latch","B",31,"40",13074,"StudyProc7","JOL","BlockProc1","Key - ?",31,"latch","recallproc1","recall"
"IS_JOL A",77,1,3,"BlockProc1","Hot - Chili","B",32,"80",14422,"StudyProc7","JOL","BlockProc1","Hot - ?",32,"chili","recallproc1","recall"
"IS_JOL A",77,1,3,"BlockProc1","Ball - Racket","B",33,"60",10985,"StudyProc7","JOL","BlockProc1","Ball - ?",33,"grab","recallproc1","recall"
"IS_JOL A",77,1,3,"BlockProc1","Work - Chore","B",34,"60",18583,"StudyProc7","JOL","BlockProc1","Work - ?",34,"chore","recallproc1","recall"
"IS_JOL A",77,1,3,"BlockProc1","Hunger - Famine","B",35,"10",21719,"StudyProc7","JOL","BlockProc1","Hunger - ?",35,"hungry","recallproc1","recall"
"IS_JOL A",77,1,3,"BlockProc1","Sleep - Drowsy","B",36,"60",19338,"StudyProc7","JOL","BlockProc1","Sleep - ?",36,"drowsy","recallproc1","recall"
"IS_JOL A",77,1,3,"BlockProc1","Smell - Stench","B",37,"70",13251,"StudyProc7","JOL","BlockProc1","Smell - ?",37,"stinch","recallproc1","recall"
"IS_JOL A",77,1,3,"BlockProc1","Clothes - Attire","B",38,"70",14394,"StudyProc7","JOL","BlockProc1","Clothes - ?",38,"attire","recallproc1","recall"
"IS_JOL A",77,1,3,"BlockProc1","Plane - Pilot","B",39,"80",14307,"StudyProc7","JOL","BlockProc1","Plane - ?",39,"poliet","recallproc1","recall"
"IS_JOL A",77,1,3,"BlockProc1","Fire - Blaze","B",40,"30",22526,"StudyProc7","JOL","BlockProc1","Fire - ?",40,"blazzer","recallproc1","recall"
"IS_JOL A",77,1,3,"BlockProc1","Due - Assignment","S",41,"50",18372,"StudyProc3","JOL","BlockProc1","Due - ?",41,"assignment","recallproc1","recall"
"IS_JOL A",77,1,3,"BlockProc1","Number - Amount","S",42,"70",23763,"StudyProc3","JOL","BlockProc1","Number - ?",42,"amount","recallproc1","recall"
"IS_JOL A",77,1,3,"BlockProc1","Location - Site","S",43,"60",32946,"StudyProc3","JOL","BlockProc1","Location - ?",43,"site","recallproc1","recall"
"IS_JOL A",77,1,3,"BlockProc1","Dump - Waste","S",44,"40",29022,"StudyProc3","JOL","BlockProc1","Dump - ?",44,"waste","recallproc1","recall"
"IS_JOL A",77,1,3,"BlockProc1","Trial - Jury","S",45,"60",20428,"StudyProc3","JOL","BlockProc1","Trial - ?",45,"jury","recallproc1","recall"
"IS_JOL A",77,1,3,"BlockProc1","Architecture - Design","S",46,"50",21186,"StudyProc3","JOL","BlockProc1","Architecture - ?",46,"design","recallproc1","recall"
"IS_JOL A",77,1,3,"BlockProc1","Grill - Bar","S",47,"50",21512,"StudyProc3","JOL","BlockProc1","Grill - ?",47,"bar","recallproc1","recall"
"IS_JOL A",77,1,3,"BlockProc1","Kidney - Liver","S",48,"30",36888,"StudyProc3","JOL","BlockProc1","Kidney - ?",48,"liver","recallproc1","recall"
"IS_JOL A",77,1,3,"BlockProc1","Begin - End","S",49,"90",7078,"StudyProc3","JOL","BlockProc1","Begin - ?",49,"end","recallproc1","recall"
"IS_JOL A",77,1,3,"BlockProc1","Blow - Wind","S",50,"60",14803,"StudyProc3","JOL","BlockProc1","Blow - ?",50,"wind","recallproc1","recall"
"IS_JOL A",77,1,3,"BlockProc1","Pop - Soda","S",51,"80",12378,"StudyProc3","JOL","BlockProc1","Pop - ?",51,"soda","recallproc1","recall"
"IS_JOL A",77,1,3,"BlockProc1","Wine - Cheese","S",52,"70",15846,"StudyProc3","JOL","BlockProc1","Wine - ?",52,"cheese","recallproc1","recall"
"IS_JOL A",77,1,3,"BlockProc1","Bathroom - Toilet","S",53,"90",14522,"StudyProc3","JOL","BlockProc1","Bathroom - ?",53,"toliet","recallproc1","recall"
"IS_JOL A",77,1,3,"BlockProc1","Lettuce - Salad","S",54,"70",18377,"StudyProc3","JOL","BlockProc1","Lettuce - ?",54,"salad","recallproc1","recall"
"IS_JOL A",77,1,3,"BlockProc1","Shoe - Foot","S",55,"60",15955,"StudyProc3","JOL","BlockProc1","Shoe - ?",55,"foot","recallproc1","recall"
"IS_JOL A",77,1,3,"BlockProc1","Past - Future","S",56,"80",12672,"StudyProc3","JOL","BlockProc1","Past - ?",56,"future","recallproc1","recall"
"IS_JOL A",77,1,3,"BlockProc1","Choice - Decision","S",57,"60",17334,"StudyProc3","JOL","BlockProc1","Choice - ?",57,"desicison","recallproc1","recall"
"IS_JOL A",77,1,3,"BlockProc1","Honey - Bee","S",58,"90",12079,"StudyProc3","JOL","BlockProc1","Honey - ?",58,"bee","recallproc1","recall"
"IS_JOL A",77,1,3,"BlockProc1","Baby - Child","S",59,"80",22952,"StudyProc3","JOL","BlockProc1","Baby - ?",59,"child","recallproc1","recall"
"IS_JOL A",77,1,3,"BlockProc1","Circle - Round","S",60,"60",24955,"StudyProc3","JOL","BlockProc1","Circle - ?",60,"round","recallproc1","recall"
"IS_JOL A",77,1,3,"BlockProc1","Pusher - Clutter","U",61,"50",21260,"StudyProc3","JOL","BlockProc1","Pusher - ?",61,"clutter","recallproc1","recall"
"IS_JOL A",77,1,3,"BlockProc1","Dietary - Sacking","U",62,"30",19631,"StudyProc3","JOL","BlockProc1","Dietary - ?",62,"diet","recallproc1","recall"
"IS_JOL A",77,1,3,"BlockProc1","Park - Hungry","U",63,"30",16443,"StudyProc3","JOL","BlockProc1","Park - ?",63,"site","recallproc1","recall"
"IS_JOL A",77,1,3,"BlockProc1","Lift - Woman","U",64,"20",14179,"StudyProc3","JOL","BlockProc1","Lift - ?",64,"heavy","recallproc1","recall"
"IS_JOL A",77,1,3,"BlockProc1","Soon - Belt","U",65,"20",16494,"StudyProc3","JOL","BlockProc1","Soon - ?",65,"late","recallproc1","recall"
"IS_JOL A",77,1,3,"BlockProc1","Discover - Floor","U",66,"10",16928,"StudyProc3","JOL","BlockProc1","Discover - ?",66,"found","recallproc1","recall"
"IS_JOL A",77,1,3,"BlockProc1","Death - Business","U",67,"40",26505,"StudyProc3","JOL","BlockProc1","Death - ?",67,"row","recallproc1","recall"
"IS_JOL A",77,1,3,"BlockProc1","Debate - Sight","U",68,"40",18313,"StudyProc3","JOL","BlockProc1","Debate - ?",68,"discussion","recallproc1","recall"
"IS_JOL A",77,1,3,"BlockProc1","Artery - Bronze","U",69,"30",25401,"StudyProc3","JOL","BlockProc1","Artery - ?",69,"liver","recallproc1","recall"
"IS_JOL A",77,1,3,"BlockProc1","Fix - Hand","U",70,"40",17614,"StudyProc3","JOL","BlockProc1","Fix - ?",70,"unfixable","recallproc1","recall"
"IS_JOL A",77,1,3,"BlockProc1","Machine - Position","U",71,"20",14530,"StudyProc3","JOL","BlockProc1","Machine - ?",71,"input","recallproc1","recall"
"IS_JOL A",77,1,3,"BlockProc1","Happy - Car","U",72,"40",15483,"StudyProc3","JOL","BlockProc1","Happy - ?",72,"enthustastic","recallproc1","recall"
"IS_JOL A",77,1,3,"BlockProc1","Allow - Tuck","U",73,"40",19257,"StudyProc3","JOL","BlockProc1","Allow - ?",73,"fix","recallproc1","recall"
"IS_JOL A",77,1,3,"BlockProc1","Art - Lion","U",74,"40",15346,"StudyProc3","JOL","BlockProc1","Art - ?",74,"vally","recallproc1","recall"
"IS_JOL A",77,1,3,"BlockProc1","Strong - Accident","U",75,"70",19467,"StudyProc3","JOL","BlockProc1","Strong - ?",75,"war","recallproc1","recall"
"IS_JOL A",77,1,3,"BlockProc1","Sugar - Riddle","U",76,"30",37826,"StudyProc3","JOL","BlockProc1","Sugar - ?",76,"riddle","recallproc1","recall"
"IS_JOL A",77,1,3,"BlockProc1","Valley - Add","U",77,"30",28210,"StudyProc3","JOL","BlockProc1","Valley - ?",77,"art","recallproc1","recall"
"IS_JOL A",77,1,3,"BlockProc1","Cash - Would","U",78,"30",22897,"StudyProc3","JOL","BlockProc1","Cash - ?",78,"money","recallproc1","recall"
"IS_JOL A",77,1,3,"BlockProc1","Hide - Sick","U",79,"30",18098,"StudyProc3","JOL","BlockProc1","Hide - ?",79,"place","recallproc1","recall"
"IS_JOL A",77,1,3,"BlockProc1","King - Vase","U",80,"40",15520,"StudyProc3","JOL","BlockProc1","King - ?",80,"person","recallproc1","recall"
"RL_JOL A",81,1,3,"BlockProc1","Delinquent - Bad","F",1,"100",3044,"StudyProc7","JOL","BlockProc1","Delinquent - ?",1,"bad","recallproc1","recall"
"RL_JOL A",81,1,3,"BlockProc1","Digestion - Stomach","F",2,"40",3784,"StudyProc7","JOL","BlockProc1","Digestion - ?",2,"stomach","recallproc1","recall"
"RL_JOL A",81,1,3,"BlockProc1","Wage - Money","F",3,"70",3958,"StudyProc7","JOL","BlockProc1","Wage - ?",3,"salary","recallproc1","recall"
"RL_JOL A",81,1,3,"BlockProc1","Chisel - Hammer","F",4,"0",11181,"StudyProc7","JOL","BlockProc1","Chisel - ?",4,"music","recallproc1","recall"
"RL_JOL A",81,1,3,"BlockProc1","Editor - News","F",5,"100",2880,"StudyProc7","JOL","BlockProc1","Editor - ?",5,"journal","recallproc1","recall"
"RL_JOL A",81,1,3,"BlockProc1","Hornet - Sting","F",6,"90",2933,"StudyProc7","JOL","BlockProc1","Hornet - ?",6,"sting","recallproc1","recall"
"RL_JOL A",81,1,3,"BlockProc1","Bitter - Cold","F",7,"0",3484,"StudyProc7","JOL","BlockProc1","Bitter - ?",7,"cold","recallproc1","recall"
"RL_JOL A",81,1,3,"BlockProc1","Root - Plant","F",8,"65",6088,"StudyProc7","JOL","BlockProc1","Root - ?",8,"plant","recallproc1","recall"
"RL_JOL A",81,1,3,"BlockProc1","Swan - Bird","F",9,"56",2943,"StudyProc7","JOL","BlockProc1","Swan - ?",9,"bird","recallproc1","recall"
"RL_JOL A",81,1,3,"BlockProc1","Paw - Dog","F",10,"30",4037,"StudyProc7","JOL","BlockProc1","Paw - ?",10,"dog","recallproc1","recall"
"RL_JOL A",81,1,3,"BlockProc1","Way - Out","F",11,"45",6064,"StudyProc7","JOL","BlockProc1","Way - ?",11,"out","recallproc1","recall"
"RL_JOL A",81,1,3,"BlockProc1","Hygiene - Clean","F",12,"100",3118,"StudyProc7","JOL","BlockProc1","Hygiene - ?",12,"clean","recallproc1","recall"
"RL_JOL A",81,1,3,"BlockProc1","Bridge - Water","F",13,"20",8149,"StudyProc7","JOL","BlockProc1","Bridge - ?",13,"water","recallproc1","recall"
"RL_JOL A",81,1,3,"BlockProc1","Geology - Rock","F",14,"60",4074,"StudyProc7","JOL","BlockProc1","Geology - ?",14,"rock","recallproc1","recall"
"RL_JOL A",81,1,3,"BlockProc1","Revolution - War","F",15,"20",4197,"StudyProc7","JOL","BlockProc1","Revolution - ?",15,"war","recallproc1","recall"
"RL_JOL A",81,1,3,"BlockProc1","Discussion - Talk","F",16,"50",5968,"StudyProc7","JOL","BlockProc1","Discussion - ?",16,"argument","recallproc1","recall"
"RL_JOL A",81,1,3,"BlockProc1","Herd - Cow","F",17,"20",6000,"StudyProc7","JOL","BlockProc1","Herd - ?",17,"cows","recallproc1","recall"
"RL_JOL A",81,1,3,"BlockProc1","Credit - Card","F",18,"60",3518,"StudyProc7","JOL","BlockProc1","Credit - ?",18,"card","recallproc1","recall"
"RL_JOL A",81,1,3,"BlockProc1","Orchid - Flower","F",19,"70",4456,"StudyProc7","JOL","BlockProc1","Orchid - ?",19,"flower","recallproc1","recall"
"RL_JOL A",81,1,3,"BlockProc1","Tuna - Fish","F",20,"75",4493,"StudyProc7","JOL","BlockProc1","Tuna - ?",20,"fish","recallproc1","recall"
"RL_JOL A",81,1,3,"BlockProc1","Full - Enough","B",21,"50",3460,"StudyProc7","JOL","BlockProc1","Full - ?",21,"empty","recallproc1","recall"
"RL_JOL A",81,1,3,"BlockProc1","Drink - Sip","B",22,"90",4934,"StudyProc7","JOL","BlockProc1","Drink - ?",22,"eat","recallproc1","recall"
"RL_JOL A",81,1,3,"BlockProc1","Dark - Cave","B",23,"50",3256,"StudyProc7","JOL","BlockProc1","Dark - ?",23,"cloud","recallproc1","recall"
"RL_JOL A",81,1,3,"BlockProc1","Take - Seize","B",24,"70",5041,"StudyProc7","JOL","BlockProc1","Take - ?",24,"away","recallproc1","recall"
"RL_JOL A",81,1,3,"BlockProc1","Height - Growth","B",25,"67",2654,"StudyProc7","JOL","BlockProc1","Height - ?",25,"weight","recallproc1","recall"
"RL_JOL A",81,1,3,"BlockProc1","Sentence - Word","B",26,"80",7491,"StudyProc7","JOL","BlockProc1","Sentence - ?",26,"paragraph","recallproc1","recall"
"RL_JOL A",81,1,3,"BlockProc1","Bug - Wasp","B",27,"34",2508,"StudyProc7","JOL","BlockProc1","Bug - ?",27,"sting","recallproc1","recall"
"RL_JOL A",81,1,3,"BlockProc1","Math - Division","B",28,"89",4535,"StudyProc7","JOL","BlockProc1","Math - ?",28,"circle","recallproc1","recall"
"RL_JOL A",81,1,3,"BlockProc1","Law - Attorney","B",29,"50",5387,"StudyProc7","JOL","BlockProc1","Law - ?",29,"attorney","recallproc1","recall"
"RL_JOL A",81,1,3,"BlockProc1","Great - Fantastic","B",30,"78",3251,"StudyProc7","JOL","BlockProc1","Great - ?",30,"awfull","recallproc1","recall"
"RL_JOL A",81,1,3,"BlockProc1","Key - Latch","B",31,"68",6032,"StudyProc7","JOL","BlockProc1","Key - ?",31,"hold","recallproc1","recall"
"RL_JOL A",81,1,3,"BlockProc1","Hot - Chili","B",32,"70",3234,"StudyProc7","JOL","BlockProc1","Hot - ?",32,"blazing","recallproc1","recall"
"RL_JOL A",81,1,3,"BlockProc1","Ball - Racket","B",33,"70",4988,"StudyProc7","JOL","BlockProc1","Ball - ?",33,"baseball","recallproc1","recall"
"RL_JOL A",81,1,3,"BlockProc1","Work - Chore","B",34,"20",3272,"StudyProc7","JOL","BlockProc1","Work - ?",34,"travel","recallproc1","recall"
"RL_JOL A",81,1,3,"BlockProc1","Hunger - Famine","B",35,"0",6821,"StudyProc7","JOL","BlockProc1","Hunger - ?",35,"full","recallproc1","recall"
"RL_JOL A",81,1,3,"BlockProc1","Sleep - Drowsy","B",36,"50",4073,"StudyProc7","JOL","BlockProc1","Sleep - ?",36,"tired","recallproc1","recall"
"RL_JOL A",81,1,3,"BlockProc1","Smell - Stench","B",37,"90",2485,"StudyProc7","JOL","BlockProc1","Smell - ?",37,"bad","recallproc1","recall"
"RL_JOL A",81,1,3,"BlockProc1","Clothes - Attire","B",38,"100",2407,"StudyProc7","JOL","BlockProc1","Clothes - ?",38,"attitre","recallproc1","recall"
"RL_JOL A",81,1,3,"BlockProc1","Plane - Pilot","B",39,"90",7172,"StudyProc7","JOL","BlockProc1","Plane - ?",39,"pilot","recallproc1","recall"
"RL_JOL A",81,1,3,"BlockProc1","Fire - Blaze","B",40,"57",6299,"StudyProc7","JOL","BlockProc1","Fire - ?",40,"blazing","recallproc1","recall"
"RL_JOL A",81,1,3,"BlockProc1","Due - Assignment","S",41,"70",4814,"StudyProc3","JOL","BlockProc1","Due - ?",41,"date","recallproc1","recall"
"RL_JOL A",81,1,3,"BlockProc1","Number - Amount","S",42,"100",3424,"StudyProc3","JOL","BlockProc1","Number - ?",42,"name","recallproc1","recall"
"RL_JOL A",81,1,3,"BlockProc1","Location - Site","S",43,"70",4817,"StudyProc3","JOL","BlockProc1","Location - ?",43,"map","recallproc1","recall"
"RL_JOL A",81,1,3,"BlockProc1","Dump - Waste","S",44,"50",4053,"StudyProc3","JOL","BlockProc1","Dump - ?",44,"trash","recallproc1","recall"
"RL_JOL A",81,1,3,"BlockProc1","Trial - Jury","S",45,"90",4063,"StudyProc3","JOL","BlockProc1","Trial - ?",45,"jury","recallproc1","recall"
"RL_JOL A",81,1,3,"BlockProc1","Architecture - Design","S",46,"16",6068,"StudyProc3","JOL","BlockProc1","Architecture - ?",46,"design","recallproc1","recall"
"RL_JOL A",81,1,3,"BlockProc1","Grill - Bar","S",47,"100",3841,"StudyProc3","JOL","BlockProc1","Grill - ?",47,"meat","recallproc1","recall"
"RL_JOL A",81,1,3,"BlockProc1","Kidney - Liver","S",48,"60",4089,"StudyProc3","JOL","BlockProc1","Kidney - ?",48,"liver","recallproc1","recall"
"RL_JOL A",81,1,3,"BlockProc1","Begin - End","S",49,"100",4433,"StudyProc3","JOL","BlockProc1","Begin - ?",49,"done","recallproc1","recall"
"RL_JOL A",81,1,3,"BlockProc1","Blow - Wind","S",50,"100",4810,"StudyProc3","JOL","BlockProc1","Blow - ?",50,"away","recallproc1","recall"
"RL_JOL A",81,1,3,"BlockProc1","Pop - Soda","S",51,"80",3646,"StudyProc3","JOL","BlockProc1","Pop - ?",51,"soda","recallproc1","recall"
"RL_JOL A",81,1,3,"BlockProc1","Wine - Cheese","S",52,"50",4480,"StudyProc3","JOL","BlockProc1","Wine - ?",52,"cheese","recallproc1","recall"
"RL_JOL A",81,1,3,"BlockProc1","Bathroom - Toilet","S",53,"80",4591,"StudyProc3","JOL","BlockProc1","Bathroom - ?",53,"toilet","recallproc1","recall"
"RL_JOL A",81,1,3,"BlockProc1","Lettuce - Salad","S",54,"70",3812,"StudyProc3","JOL","BlockProc1","Lettuce - ?",54,"salad","recallproc1","recall"
"RL_JOL A",81,1,3,"BlockProc1","Shoe - Foot","S",55,"60",4381,"StudyProc3","JOL","BlockProc1","Shoe - ?",55,"lace","recallproc1","recall"
"RL_JOL A",81,1,3,"BlockProc1","Past - Future","S",56,"100",4251,"StudyProc3","JOL","BlockProc1","Past - ?",56,"present","recallproc1","recall"
"RL_JOL A",81,1,3,"BlockProc1","Choice - Decision","S",57,"80",5134,"StudyProc3","JOL","BlockProc1","Choice - ?",57,"decision","recallproc1","recall"
"RL_JOL A",81,1,3,"BlockProc1","Honey - Bee","S",58,"50",4887,"StudyProc3","JOL","BlockProc1","Honey - ?",58,"bee","recallproc1","recall"
"RL_JOL A",81,1,3,"BlockProc1","Baby - Child","S",59,"100",3658,"StudyProc3","JOL","BlockProc1","Baby - ?",59,"boy","recallproc1","recall"
"RL_JOL A",81,1,3,"BlockProc1","Circle - Round","S",60,"100",4607,"StudyProc3","JOL","BlockProc1","Circle - ?",60,"math","recallproc1","recall"
"RL_JOL A",81,1,3,"BlockProc1","Pusher - Clutter","U",61,"30",7326,"StudyProc3","JOL","BlockProc1","Pusher - ?",61,"tuck","recallproc1","recall"
"RL_JOL A",81,1,3,"BlockProc1","Dietary - Slacking","U",62,"20",3182,"StudyProc3","JOL","BlockProc1","Dietary - ?",62,"food","recallproc1","recall"
"RL_JOL A",81,1,3,"BlockProc1","Park - Hungry","U",63,"100",5084,"StudyProc3","JOL","BlockProc1","Park - ?",63,"exercise","recallproc1","recall"
"RL_JOL A",81,1,3,"BlockProc1","Lift - Woman","U",64,"0",3832,"StudyProc3","JOL","BlockProc1","Lift - ?",64,"heavy","recallproc1","recall"
"RL_JOL A",81,1,3,"BlockProc1","Soon - Belt","U",65,"0",5496,"StudyProc3","JOL","BlockProc1","Soon - ?",65,"now","recallproc1","recall"
"RL_JOL A",81,1,3,"BlockProc1","Discover - Floor","U",66,"0",2839,"StudyProc3","JOL","BlockProc1","Discover - ?",66,"away","recallproc1","recall"
"RL_JOL A",81,1,3,"BlockProc1","Death - Business","U",67,"20",7534,"StudyProc3","JOL","BlockProc1","Death - ?",67,"buissiness","recallproc1","recall"
"RL_JOL A",81,1,3,"BlockProc1","Debate - Sight","U",68,"0",2868,"StudyProc3","JOL","BlockProc1","Debate - ?",68,"group","recallproc1","recall"
"RL_JOL A",81,1,3,"BlockProc1","Artery - Bronze","U",69,"15",7261,"StudyProc3","JOL","BlockProc1","Artery - ?",69,"heart","recallproc1","recall"
"RL_JOL A",81,1,3,"BlockProc1","Fix - Hand","U",70,"0",2578,"StudyProc3","JOL","BlockProc1","Fix - ?",70,"broken","recallproc1","recall"
"RL_JOL A",81,1,3,"BlockProc1","Machine - Position","U",71,"0",2772,"StudyProc3","JOL","BlockProc1","Machine - ?",71,"car","recallproc1","recall"
"RL_JOL A",81,1,3,"BlockProc1","Happy - Car","U",72,"100",4920,"StudyProc3","JOL","BlockProc1","Happy - ?",72,"sad","recallproc1","recall"
"RL_JOL A",81,1,3,"BlockProc1","Allow - Tuck","U",73,"15",5274,"StudyProc3","JOL","BlockProc1","Allow - ?",73,"me","recallproc1","recall"
"RL_JOL A",81,1,3,"BlockProc1","Art - Lion","U",74,"100",3848,"StudyProc3","JOL","BlockProc1","Art - ?",74,"lion","recallproc1","recall"
"RL_JOL A",81,1,3,"BlockProc1","Strong - Accident","U",75,"90",4923,"StudyProc3","JOL","BlockProc1","Strong - ?",75,"weak","recallproc1","recall"
"RL_JOL A",81,1,3,"BlockProc1","Sugar - Riddle","U",76,"0",3235,"StudyProc3","JOL","BlockProc1","Sugar - ?",76,"coffee","recallproc1","recall"
"RL_JOL A",81,1,3,"BlockProc1","Valley - Add","U",77,"0",20318,"StudyProc3","JOL","BlockProc1","Valley - ?",77,"tress","recallproc1","recall"
"RL_JOL A",81,1,3,"BlockProc1","Cash - Would","U",78,"0",3342,"StudyProc3","JOL","BlockProc1","Cash - ?",78,"money","recallproc1","recall"
"RL_JOL A",81,1,3,"BlockProc1","Hide - Sick","U",79,"0",6543,"StudyProc3","JOL","BlockProc1","Hide - ?",79,"tuck","recallproc1","recall"
"RL_JOL A",81,1,3,"BlockProc1","King - Vase","U",80,"0",4824,"StudyProc3","JOL","BlockProc1","King - ?",80,"lot","recallproc1","recall"
"READ_JOL A",85,1,3,"BlockProc1","Delinquent - Bad","F",1,"90",2000,"StudyProc7","JOL","BlockProc1","Delinquent - ?",1,"bad","recallproc1","recall"
"READ_JOL A",85,1,3,"BlockProc1","Digestion - Stomach","F",2,"90",4708,"StudyProc7","JOL","BlockProc1","Digestion - ?",2,"food","recallproc1","recall"
"READ_JOL A",85,1,3,"BlockProc1","Wage - Money","F",3,"90",1307,"StudyProc7","JOL","BlockProc1","Wage - ?",3,"money","recallproc1","recall"
"READ_JOL A",85,1,3,"BlockProc1","Chisel - Hammer","F",4,"0",7325,"StudyProc7","JOL","BlockProc1","Chisel - ?",4,"chisel","recallproc1","recall"
"READ_JOL A",85,1,3,"BlockProc1","Editor - News","F",5,"0",12881,"StudyProc7","JOL","BlockProc1","Editor - ?",5,"news","recallproc1","recall"
"READ_JOL A",85,1,3,"BlockProc1","Hornet - Sting","F",6,"90",4172,"StudyProc7","JOL","BlockProc1","Hornet - ?",6,"sting","recallproc1","recall"
"READ_JOL A",85,1,3,"BlockProc1","Bitter - Cold","F",7,"90",2144,"StudyProc7","JOL","BlockProc1","Bitter - ?",7,"sour","recallproc1","recall"
"READ_JOL A",85,1,3,"BlockProc1","Root - Plant","F",8,"0",1060,"StudyProc7","JOL","BlockProc1","Root - ?",8,"tree","recallproc1","recall"
"READ_JOL A",85,1,3,"BlockProc1","Swan - Bird","F",9,"0",3569,"StudyProc7","JOL","BlockProc1","Swan - ?",9,"bird","recallproc1","recall"
"READ_JOL A",85,1,3,"BlockProc1","Paw - Dog","F",10,"0",1637,"StudyProc7","JOL","BlockProc1","Paw - ?",10,"dog","recallproc1","recall"
"READ_JOL A",85,1,3,"BlockProc1","Way - Out","F",11,"100",2490,"StudyProc7","JOL","BlockProc1","Way - ?",11,"out","recallproc1","recall"
"READ_JOL A",85,1,3,"BlockProc1","Hygiene - Clean","F",12,"90",5288,"StudyProc7","JOL","BlockProc1","Hygiene - ?",12,"clean","recallproc1","recall"
"READ_JOL A",85,1,3,"BlockProc1","Bridge - Water","F",13,"80",5379,"StudyProc7","JOL","BlockProc1","Bridge - ?",13,"water","recallproc1","recall"
"READ_JOL A",85,1,3,"BlockProc1","Geology - Rock","F",14,"0",1386,"StudyProc7","JOL","BlockProc1","Geology - ?",14,"rock","recallproc1","recall"
"READ_JOL A",85,1,3,"BlockProc1","Revolution - War","F",15,"90",3460,"StudyProc7","JOL","BlockProc1","Revolution - ?",15,"war","recallproc1","recall"
"READ_JOL A",85,1,3,"BlockProc1","Discussion - Talk","F",16,"90",2811,"StudyProc7","JOL","BlockProc1","Discussion - ?",16,"talk","recallproc1","recall"
"READ_JOL A",85,1,3,"BlockProc1","Herd - Cow","F",17,"0",1742,"StudyProc7","JOL","BlockProc1","Herd - ?",17,"cow","recallproc1","recall"
"READ_JOL A",85,1,3,"BlockProc1","Credit - Card","F",18,"100",3437,"StudyProc7","JOL","BlockProc1","Credit - ?",18,"crd","recallproc1","recall"
"READ_JOL A",85,1,3,"BlockProc1","Orchid - Flower","F",19,"90",3126,"StudyProc7","JOL","BlockProc1","Orchid - ?",19,"flower","recallproc1","recall"
"READ_JOL A",85,1,3,"BlockProc1","Tuna - Fish","F",20,"90",4956,"StudyProc7","JOL","BlockProc1","Tuna - ?",20,"fish","recallproc1","recall"
"READ_JOL A",85,1,3,"BlockProc1","Full - Enough","B",21,"100",11060,"StudyProc7","JOL","BlockProc1","Full - ?",21,"empty","recallproc1","recall"
"READ_JOL A",85,1,3,"BlockProc1","Drink - Sip","B",22,"90",1839,"StudyProc7","JOL","BlockProc1","Drink - ?",22,"hunger","recallproc1","recall"
"READ_JOL A",85,1,3,"BlockProc1","Dark - Cave","B",23,"90",2649,"StudyProc7","JOL","BlockProc1","Dark - ?",23,"ligh","recallproc1","recall"
"READ_JOL A",85,1,3,"BlockProc1","Take - Seize","B",24,"0",3618,"StudyProc7","JOL","BlockProc1","Take - ?",24,"took","recallproc1","recall"
"READ_JOL A",85,1,3,"BlockProc1","Height - Growth","B",25,"100",5920,"StudyProc7","JOL","BlockProc1","Height - ?",25,"small","recallproc1","recall"
"READ_JOL A",85,1,3,"BlockProc1","Sentence - Word","B",26,"80",3723,"StudyProc7","JOL","BlockProc1","Sentence - ?",26,"word","recallproc1","recall"
"READ_JOL A",85,1,3,"BlockProc1","Bug - Wasp","B",27,"50",6944,"StudyProc7","JOL","BlockProc1","Bug - ?",27,"wasp","recallproc1","recall"
"READ_JOL A",85,1,3,"BlockProc1","Math - Division","B",28,"90",2195,"StudyProc7","JOL","BlockProc1","Math - ?",28,"test","recallproc1","recall"
"READ_JOL A",85,1,3,"BlockProc1","Law - Attorney","B",29,"90",2188,"StudyProc7","JOL","BlockProc1","Law - ?",29,"attorny","recallproc1","recall"
"READ_JOL A",85,1,3,"BlockProc1","Great - Fantastic","B",30,"0",2930,"StudyProc7","JOL","BlockProc1","Great - ?",30,"bad","recallproc1","recall"
"READ_JOL A",85,1,3,"BlockProc1","Key - Latch","B",31,"0",3314,"StudyProc7","JOL","BlockProc1","Key - ?",31,"lock","recallproc1","recall"
"READ_JOL A",85,1,3,"BlockProc1","Hot - Chili","B",32,"90",6363,"StudyProc7","JOL","BlockProc1","Hot - ?",32,"cold","recallproc1","recall"
"READ_JOL A",85,1,3,"BlockProc1","Ball - Racket","B",33,"0",10656,"StudyProc7","JOL","BlockProc1","Ball - ?",33,"sport","recallproc1","recall"
"READ_JOL A",85,1,3,"BlockProc1","Work - Chore","B",34,"90",2329,"StudyProc7","JOL","BlockProc1","Work - ?",34,"chore","recallproc1","recall"
"READ_JOL A",85,1,3,"BlockProc1","Hunger - Famine","B",35,"0",1807,"StudyProc7","JOL","BlockProc1","Hunger - ?",35,"famine","recallproc1","recall"
"READ_JOL A",85,1,3,"BlockProc1","Sleep - Drowsy","B",36,"0",1577,"StudyProc7","JOL","BlockProc1","Sleep - ?",36,"rest","recallproc1","recall"
"READ_JOL A",85,1,3,"BlockProc1","Smell - Stench","B",37,"90",3959,"StudyProc7","JOL","BlockProc1","Smell - ?",37,"bad","recallproc1","recall"
"READ_JOL A",85,1,3,"BlockProc1","Clothes - Attire","B",38,"100",10221,"StudyProc7","JOL","BlockProc1","Clothes - ?",38,"body","recallproc1","recall"
"READ_JOL A",85,1,3,"BlockProc1","Plane - Pilot","B",39,"90",3385,"StudyProc7","JOL","BlockProc1","Plane - ?",39,"travel","recallproc1","recall"
"READ_JOL A",85,1,3,"BlockProc1","Fire - Blaze","B",40,"0",1505,"StudyProc7","JOL","BlockProc1","Fire - ?",40,"hot","recallproc1","recall"
"READ_JOL A",85,1,3,"BlockProc1","Due - Assignment","S",41,"100",10532,"StudyProc3","JOL","BlockProc1","Due - ?",41,"assignment","recallproc1","recall"
"READ_JOL A",85,1,3,"BlockProc1","Number - Amount","S",42,"90",6586,"StudyProc3","JOL","BlockProc1","Number - ?",42,"letter","recallproc1","recall"
"READ_JOL A",85,1,3,"BlockProc1","Location - Site","S",43,"30",6265,"StudyProc3","JOL","BlockProc1","Location - ?",43,"site","recallproc1","recall"
"READ_JOL A",85,1,3,"BlockProc1","Dump - Waste","S",44,"90",11329,"StudyProc3","JOL","BlockProc1","Dump - ?",44,"trash","recallproc1","recall"
"READ_JOL A",85,1,3,"BlockProc1","Trial - Jury","S",45,"95",4721,"StudyProc3","JOL","BlockProc1","Trial - ?",45,"jury","recallproc1","recall"
"READ_JOL A",85,1,3,"BlockProc1","Architecture - Design","S",46,"50",6372,"StudyProc3","JOL","BlockProc1","Architecture - ?",46,"build","recallproc1","recall"
"READ_JOL A",85,1,3,"BlockProc1","Grill - Bar","S",47,"90",6855,"StudyProc3","JOL","BlockProc1","Grill - ?",47,"bar","recallproc1","recall"
"READ_JOL A",85,1,3,"BlockProc1","Kidney - Liver","S",48,"90",4409,"StudyProc3","JOL","BlockProc1","Kidney - ?",48,"lung","recallproc1","recall"
"READ_JOL A",85,1,3,"BlockProc1","Begin - End","S",49,"100",11114,"StudyProc3","JOL","BlockProc1","Begin - ?",49,"end","recallproc1","recall"
"READ_JOL A",85,1,3,"BlockProc1","Blow - Wind","S",50,"50",4387,"StudyProc3","JOL","BlockProc1","Blow - ?",50,"up","recallproc1","recall"
"READ_JOL A",85,1,3,"BlockProc1","Pop - Soda","S",51,"100",8619,"StudyProc3","JOL","BlockProc1","Pop - ?",51,"corn","recallproc1","recall"
"READ_JOL A",85,1,3,"BlockProc1","Wine - Cheese","S",52,"100",2284,"StudyProc3","JOL","BlockProc1","Wine - ?",52,"cheese","recallproc1","recall"
"READ_JOL A",85,1,3,"BlockProc1","Bathroom - Toilet","S",53,"100",2146,"StudyProc3","JOL","BlockProc1","Bathroom - ?",53,"toilet","recallproc1","recall"
"READ_JOL A",85,1,3,"BlockProc1","Lettuce - Salad","S",54,"90",3445,"StudyProc3","JOL","BlockProc1","Lettuce - ?",54,"salad","recallproc1","recall"
"READ_JOL A",85,1,3,"BlockProc1","Shoe - Foot","S",55,"100",16851,"StudyProc3","JOL","BlockProc1","Shoe - ?",55,"size","recallproc1","recall"
"READ_JOL A",85,1,3,"BlockProc1","Past - Future","S",56,"100",2991,"StudyProc3","JOL","BlockProc1","Past - ?",56,"future","recallproc1","recall"
"READ_JOL A",85,1,3,"BlockProc1","Choice - Decision","S",57,"9",3994,"StudyProc3","JOL","BlockProc1","Choice - ?",57,"choose","recallproc1","recall"
"READ_JOL A",85,1,3,"BlockProc1","Honey - Bee","S",58,"80",4937,"StudyProc3","JOL","BlockProc1","Honey - ?",58,"bee","recallproc1","recall"
"READ_JOL A",85,1,3,"BlockProc1","Baby - Child","S",59,"80",8657,"StudyProc3","JOL","BlockProc1","Baby - ?",59,"chid","recallproc1","recall"
"READ_JOL A",85,1,3,"BlockProc1","Circle - Round","S",60,"90",9546,"StudyProc3","JOL","BlockProc1","Circle - ?",60,"measure","recallproc1","recall"
"READ_JOL A",85,1,3,"BlockProc1","Pusher - Clutter","U",61,"0",12061,"StudyProc3","JOL","BlockProc1","Pusher - ?",61,"push","recallproc1","recall"
"READ_JOL A",85,1,3,"BlockProc1","Dietary - Slacking","U",62,"2",5117,"StudyProc3","JOL","BlockProc1","Dietary - ?",62,"food","recallproc1","recall"
"READ_JOL A",85,1,3,"BlockProc1","Park - Hungry","U",63,"0",1315,"StudyProc3","JOL","BlockProc1","Park - ?",63,"hungry","recallproc1","recall"
"READ_JOL A",85,1,3,"BlockProc1","Lift - Woman","U",64,"0",5011,"StudyProc3","JOL","BlockProc1","Lift - ?",64,"women","recallproc1","recall"
"READ_JOL A",85,1,3,"BlockProc1","Soon - Belt","U",65,"0",8018,"StudyProc3","JOL","BlockProc1","Soon - ?",65,"later","recallproc1","recall"
"READ_JOL A",85,1,3,"BlockProc1","Discover - Floor","U",66,"0",9792,"StudyProc3","JOL","BlockProc1","Discover - ?",66,"planet","recallproc1","recall"
"READ_JOL A",85,1,3,"BlockProc1","Death - Business","U",67,"0",8327,"StudyProc3","JOL","BlockProc1","Death - ?",67,"valley","recallproc1","recall"
"READ_JOL A",85,1,3,"BlockProc1","Debate - Sight","U",68,"0",4774,"StudyProc3","JOL","BlockProc1","Debate - ?",68,"fight","recallproc1","recall"
"READ_JOL A",85,1,3,"BlockProc1","Artery - Bronze","U",69,"0",2311,"StudyProc3","JOL","BlockProc1","Artery - ?",69,"lung","recallproc1","recall"
"READ_JOL A",85,1,3,"BlockProc1","Fix - Hand","U",70,"0",2470,"StudyProc3","JOL","BlockProc1","Fix - ?",70,"hand","recallproc1","recall"
"READ_JOL A",85,1,3,"BlockProc1","Machine - Position","U",71,"0",1623,"StudyProc3","JOL","BlockProc1","Machine - ?",71,"move","recallproc1","recall"
"READ_JOL A",85,1,3,"BlockProc1","Happy - Car","U",72,"0",5563,"StudyProc3","JOL","BlockProc1","Happy - ?",72,"sad","recallproc1","recall"
"READ_JOL A",85,1,3,"BlockProc1","Allow - Tuck","U",73,"0",1439,"StudyProc3","JOL","BlockProc1","Allow - ?",73,"know","recallproc1","recall"
"READ_JOL A",85,1,3,"BlockProc1","Art - Lion","U",74,"0",1886,"StudyProc3","JOL","BlockProc1","Art - ?",74,"lion","recallproc1","recall"
"READ_JOL A",85,1,3,"BlockProc1","Strong - Accident","U",75,"0",3045,"StudyProc3","JOL","BlockProc1","Strong - ?",75,"weak","recallproc1","recall"
"READ_JOL A",85,1,3,"BlockProc1","Sugar - Riddle","U",76,"0",1512,"StudyProc3","JOL","BlockProc1","Sugar - ?",76,"spice","recallproc1","recall"
"READ_JOL A",85,1,3,"BlockProc1","Valley - Add","U",77,"0",2888,"StudyProc3","JOL","BlockProc1","Valley - ?",77,"road","recallproc1","recall"
"READ_JOL A",85,1,3,"BlockProc1","Cash - Would","U",78,"0",2378,"StudyProc3","JOL","BlockProc1","Cash - ?",78,"money","recallproc1","recall"
"READ_JOL A",85,1,3,"BlockProc1","Hide - Sick","U",79,"0",3674,"StudyProc3","JOL","BlockProc1","Hide - ?",79,"sick","recallproc1","recall"
"READ_JOL A",85,1,3,"BlockProc1","King - Vase","U",80,"0",3179,"StudyProc3","JOL","BlockProc1","King - ?",80,"queen","recallproc1","recall"
"IS_JOL A",89,1,3,"BlockProc1","Delinquent - Bad","F",1,"10",15626,"StudyProc7","JOL","BlockProc1","Delinquent - ?",1,"herd","recallproc1","recall"
"IS_JOL A",89,1,3,"BlockProc1","Digestion - Stomach","F",2,"90",11876,"StudyProc7","JOL","BlockProc1","Digestion - ?",2,"stomach","recallproc1","recall"
"IS_JOL A",89,1,3,"BlockProc1","Wage - Money","F",3,"80",7578,"StudyProc7","JOL","BlockProc1","Wage - ?",3,"money","recallproc1","recall"
"IS_JOL A",89,1,3,"BlockProc1","Chisel - Hammer","F",4,"10",40073,"StudyProc7","JOL","BlockProc1","Chisel - ?",4,"hammer","recallproc1","recall"
"IS_JOL A",89,1,3,"BlockProc1","Editor - News","F",5,"70",8636,"StudyProc7","JOL","BlockProc1","Editor - ?",5,"film","recallproc1","recall"
"IS_JOL A",89,1,3,"BlockProc1","Hornet - Sting","F",6,"50",9869,"StudyProc7","JOL","BlockProc1","Hornet - ?",6,"car","recallproc1","recall"
"IS_JOL A",89,1,3,"BlockProc1","Bitter - Cold","F",7,"50",7691,"StudyProc7","JOL","BlockProc1","Bitter - ?",7,"sugar","recallproc1","recall"
"IS_JOL A",89,1,3,"BlockProc1","Root - Plant","F",8,"80",26340,"StudyProc7","JOL","BlockProc1","Root - ?",8,"plant","recallproc1","recall"
"IS_JOL A",89,1,3,"BlockProc1","Swan - Bird","F",9,"40",12009,"StudyProc7","JOL","BlockProc1","Swan - ?",9,"bird","recallproc1","recall"
"IS_JOL A",89,1,3,"BlockProc1","Paw - Dog","F",10,"80",19378,"StudyProc7","JOL","BlockProc1","Paw - ?",10,"hand","recallproc1","recall"
"IS_JOL A",89,1,3,"BlockProc1","Way - Out","F",11,"70",11675,"StudyProc7","JOL","BlockProc1","Way - ?",11,"out","recallproc1","recall"
"IS_JOL A",89,1,3,"BlockProc1","Hygiene - Clean","F",12,"90",8198,"StudyProc7","JOL","BlockProc1","Hygiene - ?",12,"smell","recallproc1","recall"
"IS_JOL A",89,1,3,"BlockProc1","Bridge - Water","F",13,"80",10532,"StudyProc7","JOL","BlockProc1","Bridge - ?",13,"water","recallproc1","recall"
"IS_JOL A",89,1,3,"BlockProc1","Geology - Rock","F",14,"10",12986,"StudyProc7","JOL","BlockProc1","Geology - ?",14,"science","recallproc1","recall"
"IS_JOL A",89,1,3,"BlockProc1","Revolution - War","F",15,"90",9062,"StudyProc7","JOL","BlockProc1","Revolution - ?",15,"war","recallproc1","recall"
"IS_JOL A",89,1,3,"BlockProc1","Discussion - Talk","F",16,"90",7881,"StudyProc7","JOL","BlockProc1","Discussion - ?",16,"choice","recallproc1","recall"
"IS_JOL A",89,1,3,"BlockProc1","Herd - Cow","F",17,"30",10591,"StudyProc7","JOL","BlockProc1","Herd - ?",17,"group","recallproc1","recall"
"IS_JOL A",89,1,3,"BlockProc1","Credit - Card","F",18,"100",12975,"StudyProc7","JOL","BlockProc1","Credit - ?",18,"card","recallproc1","recall"
"IS_JOL A",89,1,3,"BlockProc1","Orchid - Flower","F",19,"50",12306,"StudyProc7","JOL","BlockProc1","Orchid - ?",19,"flower","recallproc1","recall"
"IS_JOL A",89,1,3,"BlockProc1","Tuna - Fish","F",20,"90",18943,"StudyProc7","JOL","BlockProc1","Tuna - ?",20,"fish","recallproc1","recall"
"IS_JOL A",89,1,3,"BlockProc1","Full - Enough","B",21,"40",11782,"StudyProc7","JOL","BlockProc1","Full - ?",21,"complete","recallproc1","recall"
"IS_JOL A",89,1,3,"BlockProc1","Drink - Sip","B",22,"50",19627,"StudyProc7","JOL","BlockProc1","Drink - ?",22,"beverage","recallproc1","recall"
"IS_JOL A",89,1,3,"BlockProc1","Dark - Cave","B",23,"50",16622,"StudyProc7","JOL","BlockProc1","Dark - ?",23,"owl","recallproc1","recall"
"IS_JOL A",89,1,3,"BlockProc1","Take - Seize","B",24,"30",8883,"StudyProc7","JOL","BlockProc1","Take - ?",24,"money","recallproc1","recall"
"IS_JOL A",89,1,3,"BlockProc1","Height - Growth","B",25,"70",18242,"StudyProc7","JOL","BlockProc1","Height - ?",25,"weight","recallproc1","recall"
"IS_JOL A",89,1,3,"BlockProc1","Sentence - Word","B",26,"95",9867,"StudyProc7","JOL","BlockProc1","Sentence - ?",26,"word","recallproc1","recall"
"IS_JOL A",89,1,3,"BlockProc1","Bug - Wasp","B",27,"80",8775,"StudyProc7","JOL","BlockProc1","Bug - ?",27,"fly","recallproc1","recall"
"IS_JOL A",89,1,3,"BlockProc1","Math - Division","B",28,"90",10563,"StudyProc7","JOL","BlockProc1","Math - ?",28,"calculator","recallproc1","recall"
"IS_JOL A",89,1,3,"BlockProc1","Law - Attorney","B",29,"90",8938,"StudyProc7","JOL","BlockProc1","Law - ?",29,"attorny","recallproc1","recall"
"IS_JOL A",89,1,3,"BlockProc1","Great - Fantastic","B",30,"100",27922,"StudyProc7","JOL","BlockProc1","Great - ?",30,"fantastic","recallproc1","recall"
"IS_JOL A",89,1,3,"BlockProc1","Key - Latch","B",31,"70",17812,"StudyProc7","JOL","BlockProc1","Key - ?",31,"latch","recallproc1","recall"
"IS_JOL A",89,1,3,"BlockProc1","Hot - Chili","B",32,"90",10781,"StudyProc7","JOL","BlockProc1","Hot - ?",32,"cold","recallproc1","recall"
"IS_JOL A",89,1,3,"BlockProc1","Ball - Racket","B",33,"20",11933,"StudyProc7","JOL","BlockProc1","Ball - ?",33,"pitcher","recallproc1","recall"
"IS_JOL A",89,1,3,"BlockProc1","Work - Chore","B",34,"85",15471,"StudyProc7","JOL","BlockProc1","Work - ?",34,"allowance","recallproc1","recall"
"IS_JOL A",89,1,3,"BlockProc1","Hunger - Famine","B",35,"10",13358,"StudyProc7","JOL","BlockProc1","Hunger - ?",35,"eat","recallproc1","recall"
"IS_JOL A",89,1,3,"BlockProc1","Sleep - Drowsy","B",36,"90",13930,"StudyProc7","JOL","BlockProc1","Sleep - ?",36,"awake","recallproc1","recall"
"IS_JOL A",89,1,3,"BlockProc1","Smell - Stench","B",37,"30",19574,"StudyProc7","JOL","BlockProc1","Smell - ?",37,"nose","recallproc1","recall"
"IS_JOL A",89,1,3,"BlockProc1","Clothes - Attire","B",38,"90",22613,"StudyProc7","JOL","BlockProc1","Clothes - ?",38,"wardrobe","recallproc1","recall"
"IS_JOL A",89,1,3,"BlockProc1","Plane - Pilot","B",39,"90",14886,"StudyProc7","JOL","BlockProc1","Plane - ?",39,"piliot","recallproc1","recall"
"IS_JOL A",89,1,3,"BlockProc1","Fire - Blaze","B",40,"80",16104,"StudyProc7","JOL","BlockProc1","Fire - ?",40,"blaze","recallproc1","recall"
"IS_JOL A",89,1,3,"BlockProc1","Due - Assignment","S",41,"80",11216,"StudyProc3","JOL","BlockProc1","Due - ?",41,"assignment","recallproc1","recall"
"IS_JOL A",89,1,3,"BlockProc1","Number - Amount","S",42,"100",8631,"StudyProc3","JOL","BlockProc1","Number - ?",42,"one","recallproc1","recall"
"IS_JOL A",89,1,3,"BlockProc1","Location - Site","S",43,"50",16424,"StudyProc3","JOL","BlockProc1","Location - ?",43,"vslley","recallproc1","recall"
"IS_JOL A",89,1,3,"BlockProc1","Dump - Waste","S",44,"50",23467,"StudyProc3","JOL","BlockProc1","Dump - ?",44,"spill","recallproc1","recall"
"IS_JOL A",89,1,3,"BlockProc1","Trial - Jury","S",45,"80",25275,"StudyProc3","JOL","BlockProc1","Trial - ?",45,"jury","recallproc1","recall"
"IS_JOL A",89,1,3,"BlockProc1","Architecture - Design","S",46,"60",22289,"StudyProc3","JOL","BlockProc1","Architecture - ?",46,"biuld","recallproc1","recall"
"IS_JOL A",89,1,3,"BlockProc1","Grill - Bar","S",47,"90",8429,"StudyProc3","JOL","BlockProc1","Grill - ?",47,"bar","recallproc1","recall"
"IS_JOL A",89,1,3,"BlockProc1","Kidney - Liver","S",48,"100",10564,"StudyProc3","JOL","BlockProc1","Kidney - ?",48,"liver","recallproc1","recall"
"IS_JOL A",89,1,3,"BlockProc1","Begin - End","S",49,"100",5513,"StudyProc3","JOL","BlockProc1","Begin - ?",49,"end","recallproc1","recall"
"IS_JOL A",89,1,3,"BlockProc1","Blow - Wind","S",50,"90",11228,"StudyProc3","JOL","BlockProc1","Blow - ?",50,"wind","recallproc1","recall"
"IS_JOL A",89,1,3,"BlockProc1","Pop - Soda","S",51,"95",9661,"StudyProc3","JOL","BlockProc1","Pop - ?",51,"soda","recallproc1","recall"
"IS_JOL A",89,1,3,"BlockProc1","Wine - Cheese","S",52,"80",6570,"StudyProc3","JOL","BlockProc1","Wine - ?",52,"cheese","recallproc1","recall"
"IS_JOL A",89,1,3,"BlockProc1","Bathroom - Toilet","S",53,"90",8534,"StudyProc3","JOL","BlockProc1","Bathroom - ?",53,"toilet","recallproc1","recall"
"IS_JOL A",89,1,3,"BlockProc1","Lettuce - Salad","S",54,"80",16392,"StudyProc3","JOL","BlockProc1","Lettuce - ?",54,"salad","recallproc1","recall"
"IS_JOL A",89,1,3,"BlockProc1","Shoe - Foot","S",55,"90",13897,"StudyProc3","JOL","BlockProc1","Shoe - ?",55,"foot","recallproc1","recall"
