ExperimentName,Subject,Block,list,Procedure[Block],cue_target,Direction,ListNum,pword3.RESP,pword3.RT,pword5.RESP,pword5.RT,Rword1.RESP,Rword1.RT,Rword2.RESP,pword8.RESP,pword8.RT,pword10.RESP,pword10.RT,Procedure[Trial]
IS_JOL A,17,1,,BlockProc1,Hinge-Swing,,5,,,,,,,,,,,,Practice1
IS_JOL A,17,1,,BlockProc1,Ham-Bone,,3,,,,,,,,,,,,Practice1
IS_JOL A,17,1,,BlockProc1,Deaf-Mute,,2,,,,,,,,,,,,Practice1
IS_JOL A,17,1,,BlockProc1,Aardvark-Zoo,,1,,,,,,,,,,,,Practice1
IS_JOL A,17,1,,BlockProc1,Disbelieve-Skeptic,,6,,,,,,,,,,,,Practice1
IS_JOL A,17,1,,BlockProc1,Paddle-Row,,4,,,,,,,,,,,,Practice1
IS_JOL A,17,1,,BlockProc1,Behavior-Social,,9,,,,,,,,,,,,Practice1
IS_JOL A,17,1,,BlockProc1,Chocolate-Bar,,7,,,,,,,,,,,,Practice1
IS_JOL A,17,1,,BlockProc1,Chime-Music,,8,,,,,,,,,,,,Practice1
IS_JOL A,17,1,,BlockProc1,Fashion-Model,,10,,,,,,,,,,,,Practice1
IS_JOL A,17,1,3,BlockProc1,Shrimp - Fish,,4,,,,,,,,,,,,StudyProc1
IS_JOL A,17,1,3,BlockProc1,Member - Group,,5,,,,,,,,,,,,StudyProc1
IS_JOL A,17,1,3,BlockProc1,Snow - Ice,,3,,,,,,,,,,,,StudyProc1
IS_JOL A,17,1,3,BlockProc1,Curtain - Drapes,,2,,,,,,,,,,,,StudyProc1
IS_JOL A,17,1,3,BlockProc1,Haircut-Scissors,,1,,,,,,,,,,,,StudyProc1
IS_JOL A,17,1,3,BlockProc1,Kidney - Liver,S,48,76,12201,,,,,,,,,,StudyProc3
IS_JOL A,17,1,3,BlockProc1,Lift - Woman,U,64,30,20605,,,,,,,,,,StudyProc3
IS_JOL A,17,1,3,BlockProc1,Location - Site,S,43,60,13735,,,,,,,,,,StudyProc3
IS_JOL A,17,1,3,BlockProc1,Past - Future,S,56,90,10091,,,,,,,,,,StudyProc3
IS_JOL A,17,1,3,BlockProc1,Choice - Decision,S,57,89,11462,,,,,,,,,,StudyProc3
IS_JOL A,17,1,3,BlockProc1,Soon - Belt,U,65,10,12863,,,,,,,,,,StudyProc3
IS_JOL A,17,1,3,BlockProc1,Happy - Car,U,72,55,16080,,,,,,,,,,StudyProc3
IS_JOL A,17,1,3,BlockProc1,Wine - Cheese,S,52,67,14299,,,,,,,,,,StudyProc3
IS_JOL A,17,1,3,BlockProc1,Grill - Bar,S,47,60,8424,,,,,,,,,,StudyProc3
IS_JOL A,17,1,3,BlockProc1,Bathroom - Toilet,S,53,80,15423,,,,,,,,,,StudyProc3
IS_JOL A,17,1,3,BlockProc1,Hide - Sick,U,79,20,26070,,,,,,,,,,StudyProc3
IS_JOL A,17,1,3,BlockProc1,Debate - Sight,U,68,30,10153,,,,,,,,,,StudyProc3
IS_JOL A,17,1,3,BlockProc1,Fix - Hand,U,70,70,11392,,,,,,,,,,StudyProc3
IS_JOL A,17,1,3,BlockProc1,Honey - Bee,S,58,90,10581,,,,,,,,,,StudyProc3
IS_JOL A,17,1,3,BlockProc1,Art - Lion,U,74,65,22267,,,,,,,,,,StudyProc3
IS_JOL A,17,1,3,BlockProc1,Sugar - Riddle,U,76,40,31137,,,,,,,,,,StudyProc3
IS_JOL A,17,1,3,BlockProc1,Strong - Accident,U,75,45,21821,,,,,,,,,,StudyProc3
IS_JOL A,17,1,3,BlockProc1,Architecture - Design,S,46,85,14951,,,,,,,,,,StudyProc3
IS_JOL A,17,1,3,BlockProc1,Shoe - Foot,S,55,90,4217,,,,,,,,,,StudyProc3
IS_JOL A,17,1,3,BlockProc1,Death - Business,U,67,15,5787,,,,,,,,,,StudyProc3
IS_JOL A,17,1,3,BlockProc1,Park - Hungry,U,63,34,9062,,,,,,,,,,StudyProc3
IS_JOL A,17,1,3,BlockProc1,Pusher - Clutter,U,61,34,12593,,,,,,,,,,StudyProc3
IS_JOL A,17,1,3,BlockProc1,Allow - Tuck,U,73,23,14365,,,,,,,,,,StudyProc3
IS_JOL A,17,1,3,BlockProc1,Machine - Position,U,71,45,18576,,,,,,,,,,StudyProc3
IS_JOL A,17,1,3,BlockProc1,Pop - Soda,S,51,100,6270,,,,,,,,,,StudyProc3
IS_JOL A,17,1,3,BlockProc1,Valley - Add,U,77,25,10884,,,,,,,,,,StudyProc3
IS_JOL A,17,1,3,BlockProc1,Dietary - Slacking,U,62,45,10109,,,,,,,,,,StudyProc3
IS_JOL A,17,1,3,BlockProc1,Begin - End,S,49,95,6494,,,,,,,,,,StudyProc3
IS_JOL A,17,1,3,BlockProc1,Due - Assignment,S,41,89,7883,,,,,,,,,,StudyProc3
IS_JOL A,17,1,3,BlockProc1,Dump - Waste,S,44,80,12575,,,,,,,,,,StudyProc3
IS_JOL A,17,1,3,BlockProc1,Discover - Floor,U,66,35,7155,,,,,,,,,,StudyProc3
IS_JOL A,17,1,3,BlockProc1,Circle - Round,S,60,95,6997,,,,,,,,,,StudyProc3
IS_JOL A,17,1,3,BlockProc1,Blow - Wind,S,50,70,5278,,,,,,,,,,StudyProc3
IS_JOL A,17,1,3,BlockProc1,Number - Amount,S,42,67,6525,,,,,,,,,,StudyProc3
IS_JOL A,17,1,3,BlockProc1,Trial - Jury,S,45,76,5976,,,,,,,,,,StudyProc3
IS_JOL A,17,1,3,BlockProc1,Cash - Would,U,78,15,7834,,,,,,,,,,StudyProc3
IS_JOL A,17,1,3,BlockProc1,Artery - Bronze,U,69,24,9552,,,,,,,,,,StudyProc3
IS_JOL A,17,1,3,BlockProc1,Baby - Child,S,59,80,4776,,,,,,,,,,StudyProc3
IS_JOL A,17,1,3,BlockProc1,Lettuce - Salad,S,54,86,6291,,,,,,,,,,StudyProc3
IS_JOL A,17,1,3,BlockProc1,King - Vase,U,80,10,7704,,,,,,,,,,StudyProc3
IS_JOL A,17,1,3,BlockProc1,Math - Division,B,28,,,,,,,,,,,,StudyProc7
IS_JOL A,17,1,3,BlockProc1,Smell - Stench,B,37,,,,,,,,,,,,StudyProc7
IS_JOL A,17,1,3,BlockProc1,Key - Latch,B,31,,,,,,,,,,,,StudyProc7
IS_JOL A,17,1,3,BlockProc1,Bug - Wasp,B,27,,,,,,,,,,,,StudyProc7
IS_JOL A,17,1,3,BlockProc1,Swan - Bird,F,9,,,,,,,,,,,,StudyProc7
IS_JOL A,17,1,3,BlockProc1,Drink - Sip,B,22,,,,,,,,,,,,StudyProc7
IS_JOL A,17,1,3,BlockProc1,Way - Out,F,11,,,,,,,,,,,,StudyProc7
IS_JOL A,17,1,3,BlockProc1,Tuna - Fish,F,20,,,,,,,,,,,,StudyProc7
IS_JOL A,17,1,3,BlockProc1,Hygiene - Clean,F,12,,,,,,,,,,,,StudyProc7
IS_JOL A,17,1,3,BlockProc1,Root - Plant,F,8,,,,,,,,,,,,StudyProc7
IS_JOL A,17,1,3,BlockProc1,Sleep - Drowsy,B,36,,,,,,,,,,,,StudyProc7
IS_JOL A,17,1,3,BlockProc1,Great - Fantastic,B,30,,,,,,,,,,,,StudyProc7
IS_JOL A,17,1,3,BlockProc1,Dark - Cave,B,23,,,,,,,,,,,,StudyProc7
IS_JOL A,17,1,3,BlockProc1,Bridge - Water,F,13,,,,,,,,,,,,StudyProc7
IS_JOL A,17,1,3,BlockProc1,Editor - News,F,5,,,,,,,,,,,,StudyProc7
IS_JOL A,17,1,3,BlockProc1,Bitter - Cold,F,7,,,,,,,,,,,,StudyProc7
IS_JOL A,17,1,3,BlockProc1,Ball - Racket,B,33,,,,,,,,,,,,StudyProc7
IS_JOL A,17,1,3,BlockProc1,Hunger - Famine,B,35,,,,,,,,,,,,StudyProc7
IS_JOL A,17,1,3,BlockProc1,Revolution - War,F,15,,,,,,,,,,,,StudyProc7
IS_JOL A,17,1,3,BlockProc1,Paw - Dog,F,10,,,,,,,,,,,,StudyProc7
IS_JOL A,17,1,3,BlockProc1,Delinquent - Bad,F,1,,,,,,,,,,,,StudyProc7
IS_JOL A,17,1,3,BlockProc1,Sentence - Word,B,26,,,,,,,,,,,,StudyProc7
IS_JOL A,17,1,3,BlockProc1,Herd - Cow,F,17,,,,,,,,,,,,StudyProc7
IS_JOL A,17,1,3,BlockProc1,Orchid - Flower,F,19,,,,,,,,,,,,StudyProc7
IS_JOL A,17,1,3,BlockProc1,Full - Enough,B,21,,,,,,,,,,,,StudyProc7
IS_JOL A,17,1,3,BlockProc1,Chisel - Hammer,F,4,,,,,,,,,,,,StudyProc7
IS_JOL A,17,1,3,BlockProc1,Work - Chore,B,34,,,,,,,,,,,,StudyProc7
IS_JOL A,17,1,3,BlockProc1,Fire - Blaze,B,40,,,,,,,,,,,,StudyProc7
IS_JOL A,17,1,3,BlockProc1,Law - Attorney,B,29,,,,,,,,,,,,StudyProc7
IS_JOL A,17,1,3,BlockProc1,Take - Seize,B,24,,,,,,,,,,,,StudyProc7
IS_JOL A,17,1,3,BlockProc1,Hornet - Sting,F,6,,,,,,,,,,,,StudyProc7
IS_JOL A,17,1,3,BlockProc1,Hot - Chili,B,32,,,,,,,,,,,,StudyProc7
IS_JOL A,17,1,3,BlockProc1,Height - Growth,B,25,,,,,,,,,,,,StudyProc7
IS_JOL A,17,1,3,BlockProc1,Wage - Money,F,3,,,,,,,,,,,,StudyProc7
IS_JOL A,17,1,3,BlockProc1,Plane - Pilot,B,39,,,,,,,,,,,,StudyProc7
IS_JOL A,17,1,3,BlockProc1,Discussion - Talk,F,16,,,,,,,,,,,,StudyProc7
IS_JOL A,17,1,3,BlockProc1,Credit - Card,F,18,,,,,,,,,,,,StudyProc7
IS_JOL A,17,1,3,BlockProc1,Digestion - Stomach,F,2,,,,,,,,,,,,StudyProc7
IS_JOL A,17,1,3,BlockProc1,Geology - Rock,F,14,,,,,,,,,,,,StudyProc7
IS_JOL A,17,1,3,BlockProc1,Clothes - Attire,B,38,,,,,,,,,,,,StudyProc7
IS_JOL A,17,1,3,BlockProc1,Grab - Take,,2,,,,,,,,,,,,StudyProc2
IS_JOL A,17,1,3,BlockProc1,Trees - Green,,5,,,,,,,,,,,,StudyProc2
IS_JOL A,17,1,3,BlockProc1,Geese - Goose,,1,,,,,,,,,,,,StudyProc2
IS_JOL A,17,1,3,BlockProc1,Catcher - Baseball,,4,,,,,,,,,,,,StudyProc2
IS_JOL A,17,1,3,BlockProc1,Friendliness - Nice,,3,,,,,,,,,,,,StudyProc2
IS_JOL A,17,1,3,BlockProc1,Bug - ?,,27,,,,,idk,48215,,,,,,recallproc1
IS_JOL A,17,1,3,BlockProc1,Hide - ?,,79,,,,,site,9030,,,,,,recallproc1
IS_JOL A,17,1,3,BlockProc1,Height - ?,,25,,,,,growth,4147,,,,,,recallproc1
IS_JOL A,17,1,3,BlockProc1,Due - ?,,41,,,,,assignment,4497,,,,,,recallproc1
IS_JOL A,17,1,3,BlockProc1,Geology - ?,,14,,,,,rock,3183,,,,,,recallproc1
IS_JOL A,17,1,3,BlockProc1,Sleep - ?,,36,,,,,tired,14180,,,,,,recallproc1
IS_JOL A,17,1,3,BlockProc1,Discover - ?,,66,,,,,find,7999,,,,,,recallproc1
IS_JOL A,17,1,3,BlockProc1,Chisel - ?,,4,,,,,chimes,7382,,,,,,recallproc1
IS_JOL A,17,1,3,BlockProc1,Ball - ?,,33,,,,,baseball,4391,,,,,,recallproc1
IS_JOL A,17,1,3,BlockProc1,Grill - ?,,47,,,,,bar,2314,,,,,,recallproc1
IS_JOL A,17,1,3,BlockProc1,Digestion - ?,,2,,,,,stomach,4122,,,,,,recallproc1
IS_JOL A,17,1,3,BlockProc1,Honey - ?,,58,,,,,bee,1624,,,,,,recallproc1
IS_JOL A,17,1,3,BlockProc1,Law - ?,,29,,,,,attorney,3868,,,,,,recallproc1
IS_JOL A,17,1,3,BlockProc1,Baby - ?,,59,,,,,child,2837,,,,,,recallproc1
IS_JOL A,17,1,3,BlockProc1,Bridge - ?,,13,,,,,wat,4575,,,,,,recallproc1
IS_JOL A,17,1,3,BlockProc1,Hornet - ?,,6,,,,,wasp,8499,,,,,,recallproc1
IS_JOL A,17,1,3,BlockProc1,Math - ?,,28,,,,,division,7862,,,,,,recallproc1
IS_JOL A,17,1,3,BlockProc1,Take - ?,,24,,,,,grab,3530,,,,,,recallproc1
IS_JOL A,17,1,3,BlockProc1,Choice - ?,,57,,,,,deision,4449,,,,,,recallproc1
IS_JOL A,17,1,3,BlockProc1,Plane - ?,,39,,,,,pilot,10474,,,,,,recallproc1
IS_JOL A,17,1,3,BlockProc1,Hot - ?,,32,,,,,chili,3420,,,,,,recallproc1
IS_JOL A,17,1,3,BlockProc1,Fire - ?,,40,,,,,blaze,3143,,,,,,recallproc1
IS_JOL A,17,1,3,BlockProc1,Dump - ?,,44,,,,,waste,3901,,,,,,recallproc1
IS_JOL A,17,1,3,BlockProc1,King - ?,,80,,,,,vase,7325,,,,,,recallproc1
IS_JOL A,17,1,3,BlockProc1,Past - ?,,56,,,,,future,2935,,,,,,recallproc1
IS_JOL A,17,1,3,BlockProc1,Hunger - ?,,35,,,,,starve,5862,,,,,,recallproc1
IS_JOL A,17,1,3,BlockProc1,Pop - ?,,51,,,,,music,10709,,,,,,recallproc1
IS_JOL A,17,1,3,BlockProc1,Soon - ?,,65,,,,,take,8550,,,,,,recallproc1
IS_JOL A,17,1,3,BlockProc1,Revolution - ?,,15,,,,,war,3999,,,,,,recallproc1
IS_JOL A,17,1,3,BlockProc1,Blow - ?,,50,,,,,wind,2458,,,,,,recallproc1
IS_JOL A,17,1,3,BlockProc1,Cash - ?,,78,,,,,money,7044,,,,,,recallproc1
IS_JOL A,17,1,3,BlockProc1,Pusher - ?,,61,,,,,fixer,7370,,,,,,recallproc1
IS_JOL A,17,1,3,BlockProc1,Discussion - ?,,16,,,,,talk,3940,,,,,,recallproc1
IS_JOL A,17,1,3,BlockProc1,Fix - ?,,70,,,,,hand,7057,,,,,,recallproc1
IS_JOL A,17,1,3,BlockProc1,Art - ?,,74,,,,,ban,13567,,,,,,recallproc1
IS_JOL A,17,1,3,BlockProc1,Swan - ?,,9,,,,,bird,3770,,,,,,recallproc1
IS_JOL A,17,1,3,BlockProc1,Great - ?,,30,,,,,nic,15023,,,,,,recallproc1
IS_JOL A,17,1,3,BlockProc1,Happy - ?,,72,,,,,jpy,12391,,,,,,recallproc1
IS_JOL A,17,1,3,BlockProc1,Trial - ?,,45,,,,,jury,6778,,,,,,recallproc1
IS_JOL A,17,1,3,BlockProc1,Wine - ?,,52,,,,,cheese,4820,,,,,,recallproc1
IS_JOL A,17,1,3,BlockProc1,Lift - ?,,64,,,,,woman,2741,,,,,,recallproc1
IS_JOL A,17,1,3,BlockProc1,Wage - ?,,3,,,,,money,5116,,,,,,recallproc1
IS_JOL A,17,1,3,BlockProc1,Allow - ?,,73,,,,,stp,9330,,,,,,recallproc1
IS_JOL A,17,1,3,BlockProc1,Shoe - ?,,55,,,,,foot,4250,,,,,,recallproc1
IS_JOL A,17,1,3,BlockProc1,Work - ?,,34,,,,,chore,4731,,,,,,recallproc1
IS_JOL A,17,1,3,BlockProc1,Dark - ?,,23,,,,,cave,2129,,,,,,recallproc1
IS_JOL A,17,1,3,BlockProc1,Drink - ?,,22,,,,,sip,3088,,,,,,recallproc1
IS_JOL A,17,1,3,BlockProc1,Dietary - ?,,62,,,,,slacking,8977,,,,,,recallproc1
IS_JOL A,17,1,3,BlockProc1,Machine - ?,,71,,,,,sit,9544,,,,,,recallproc1
IS_JOL A,17,1,3,BlockProc1,Valley - ?,,77,,,,,math,11199,,,,,,recallproc1
IS_JOL A,17,1,3,BlockProc1,Herd - ?,,17,,,,,cow,2804,,,,,,recallproc1
IS_JOL A,17,1,3,BlockProc1,Credit - ?,,18,,,,,card,2463,,,,,,recallproc1
IS_JOL A,17,1,3,BlockProc1,Strong - ?,,75,,,,,lift,6650,,,,,,recallproc1
IS_JOL A,17,1,3,BlockProc1,Full - ?,,21,,,,,enough,4832,,,,,,recallproc1
IS_JOL A,17,1,3,BlockProc1,Delinquent - ?,,1,,,,,bad,2153,,,,,,recallproc1
IS_JOL A,17,1,3,BlockProc1,Sentence - ?,,26,,,,,word,3160,,,,,,recallproc1
IS_JOL A,17,1,3,BlockProc1,Bitter - ?,,7,,,,,good,8949,,,,,,recallproc1
IS_JOL A,17,1,3,BlockProc1,Smell - ?,,37,,,,,sting,7630,,,,,,recallproc1
IS_JOL A,17,1,3,BlockProc1,Editor - ?,,5,,,,,news,4300,,,,,,recallproc1
IS_JOL A,17,1,3,BlockProc1,Debate - ?,,68,,,,,write,4707,,,,,,recallproc1
IS_JOL A,17,1,3,BlockProc1,Lettuce - ?,,54,,,,,salad,3305,,,,,,recallproc1
IS_JOL A,17,1,3,BlockProc1,Key - ?,,31,,,,,latch,8048,,,,,,recallproc1
IS_JOL A,17,1,3,BlockProc1,Root - ?,,8,,,,,plant,2998,,,,,,recallproc1
IS_JOL A,17,1,3,BlockProc1,Park - ?,,63,,,,,drive,22562,,,,,,recallproc1
IS_JOL A,17,1,3,BlockProc1,Kidney - ?,,48,,,,,liver,3141,,,,,,recallproc1
IS_JOL A,17,1,3,BlockProc1,Location - ?,,43,,,,,site,2195,,,,,,recallproc1
IS_JOL A,17,1,3,BlockProc1,Way - ?,,11,,,,,out,2384,,,,,,recallproc1
IS_JOL A,17,1,3,BlockProc1,Paw - ?,,10,,,,,dog,2726,,,,,,recallproc1
IS_JOL A,17,1,3,BlockProc1,Hygiene - ?,,12,,,,,clean,2301,,,,,,recallproc1
IS_JOL A,17,1,3,BlockProc1,Tuna - ?,,20,,,,,fish,2990,,,,,,recallproc1
IS_JOL A,17,1,3,BlockProc1,Circle - ?,,60,,,,,round,2266,,,,,,recallproc1
IS_JOL A,17,1,3,BlockProc1,Number - ?,,42,,,,,bank,7933,,,,,,recallproc1
IS_JOL A,17,1,3,BlockProc1,Begin - ?,,49,,,,,end,2207,,,,,,recallproc1
IS_JOL A,17,1,3,BlockProc1,Architecture - ?,,46,,,,,design,4267,,,,,,recallproc1
IS_JOL A,17,1,3,BlockProc1,Clothes - ?,,38,,,,,attire,6971,,,,,,recallproc1
IS_JOL A,17,1,3,BlockProc1,Bathroom - ?,,53,,,,,toliet,4765,,,,,,recallproc1
IS_JOL A,17,1,3,BlockProc1,Orchid - ?,,19,,,,,flowe,2929,,,,,,recallproc1
IS_JOL A,17,1,3,BlockProc1,Artery - ?,,69,,,,,food,5440,,,,,,recallproc1
IS_JOL A,17,1,3,BlockProc1,Sugar - ?,,76,,,,,cane,6752,,,,,,recallproc1
IS_JOL A,17,1,3,BlockProc1,Death - ?,,67,,,,,life,5411,,,,,,recallproc1
IS_JOL A,17,2,3,BlockProc2,Disintegrate - Disappear,,3,,,,,,,,,,,,StudyProc4
IS_JOL A,17,2,3,BlockProc2,Malt - Chocolate,,5,,,,,,,,,,,,StudyProc4
IS_JOL A,17,2,3,BlockProc2,Essay - Write,,4,,,,,,,,,,,,StudyProc4
IS_JOL A,17,2,3,BlockProc2,Hide - Scare,,2,,,,,,,,,,,,StudyProc4
IS_JOL A,17,2,3,BlockProc2,Sheriff - Police,,1,,,,,,,,,,,,StudyProc4
IS_JOL A,17,2,3,BlockProc2,Flea - Tick,S,56,,,,,,,,,,87,18317,StudyProc8
IS_JOL A,17,2,3,BlockProc2,Give - Steak,U,63,,,,,,,,,,20,9047,StudyProc8
IS_JOL A,17,2,3,BlockProc2,Cake - Clothes,U,71,,,,,,,,,,76,15691,StudyProc8
IS_JOL A,17,2,3,BlockProc2,Water - Drink,S,48,,,,,,,,,,75,18159,StudyProc8
IS_JOL A,17,2,3,BlockProc2,Moat - Clear,U,74,,,,,,,,,,67,13254,StudyProc8
IS_JOL A,17,2,3,BlockProc2,Listen - Fiction,U,69,,,,,,,,,,70,20270,StudyProc8
IS_JOL A,17,2,3,BlockProc2,Vehicle - Charm,U,65,,,,,,,,,,65,18391,StudyProc8
IS_JOL A,17,2,3,BlockProc2,Earth - Ground,S,49,,,,,,,,,,90,16205,StudyProc8
IS_JOL A,17,2,3,BlockProc2,Truth - Lie,S,53,,,,,,,,,,100,9604,StudyProc8
IS_JOL A,17,2,3,BlockProc2,Candle - Wax,S,44,,,,,,,,,,65,50490,StudyProc8
IS_JOL A,17,2,3,BlockProc2,Mason - Jar,S,43,,,,,,,,,,90,3389,StudyProc8
IS_JOL A,17,2,3,BlockProc2,Own - Have,S,58,,,,,,,,,,75,15177,StudyProc8
IS_JOL A,17,2,3,BlockProc2,Name - Hate,U,72,,,,,,,,,,60,21234,StudyProc8
IS_JOL A,17,2,3,BlockProc2,Tantrum - Temper,S,59,,,,,,,,,,70,10340,StudyProc8
IS_JOL A,17,2,3,BlockProc2,Maze - Election,U,64,,,,,,,,,,65,15131,StudyProc8
IS_JOL A,17,2,3,BlockProc2,Loan - Sign,U,76,,,,,,,,,,76,8079,StudyProc8
IS_JOL A,17,2,3,BlockProc2,Keys - Joke,U,70,,,,,,,,,,65,27539,StudyProc8
IS_JOL A,17,2,3,BlockProc2,Sun - Tan,S,60,,,,,,,,,,95,14562,StudyProc8
IS_JOL A,17,2,3,BlockProc2,Razor - Shave,S,41,,,,,,,,,,100,7261,StudyProc8
IS_JOL A,17,2,3,BlockProc2,Main - Scar,U,80,,,,,,,,,,87,27506,StudyProc8
IS_JOL A,17,2,3,BlockProc2,Alone - Lonely,S,50,,,,,,,,,,100,8315,StudyProc8
IS_JOL A,17,2,3,BlockProc2,Safety - Seatbelt,S,52,,,,,,,,,,82,20813,StudyProc8
IS_JOL A,17,2,3,BlockProc2,Temperature - Morning,U,78,,,,,,,,,,55,22815,StudyProc8
IS_JOL A,17,2,3,BlockProc2,Rights - Equal,S,42,,,,,,,,,,76,24520,StudyProc8
IS_JOL A,17,2,3,BlockProc2,Dry - Wet,S,51,,,,,,,,,,0,13739,StudyProc8
IS_JOL A,17,2,3,BlockProc2,Both - Ounce,U,77,,,,,,,,,,10,40151,StudyProc8
IS_JOL A,17,2,3,BlockProc2,Meat - Obtain,U,66,,,,,,,,,,5,13298,StudyProc8
IS_JOL A,17,2,3,BlockProc2,Mirror - Children,U,79,,,,,,,,,,30,23712,StudyProc8
IS_JOL A,17,2,3,BlockProc2,Gone - Away,S,47,,,,,,,,,,76,8979,StudyProc8
IS_JOL A,17,2,3,BlockProc2,Phone - Communicatio,S,54,,,,,,,,,,90,24210,StudyProc8
IS_JOL A,17,2,3,BlockProc2,Justice - Maroon,U,61,,,,,,,,,,40,13177,StudyProc8
IS_JOL A,17,2,3,BlockProc2,Stretch - Cloth,U,62,,,,,,,,,,45,15853,StudyProc8
IS_JOL A,17,2,3,BlockProc2,Element - Carbon,S,46,,,,,,,,,,48,11330,StudyProc8
IS_JOL A,17,2,3,BlockProc2,Shell - Shake,U,68,,,,,,,,,,55,10489,StudyProc8
IS_JOL A,17,2,3,BlockProc2,Lease - Toil,U,75,,,,,,,,,,57,20714,StudyProc8
IS_JOL A,17,2,3,BlockProc2,Fuzzy - Bang,U,73,,,,,,,,,,34,5953,StudyProc8
IS_JOL A,17,2,3,BlockProc2,Loud - Noise,S,57,,,,,,,,,,89,20836,StudyProc8
IS_JOL A,17,2,3,BlockProc2,Wrist - Bracelet,S,45,,,,,,,,,,100,17486,StudyProc8
IS_JOL A,17,2,3,BlockProc2,Rod - Reel,S,55,,,,,,,,,,20,22537,StudyProc8
IS_JOL A,17,2,3,BlockProc2,Crackle - Able,U,67,,,,,,,,,,60,32900,StudyProc8
IS_JOL A,17,2,3,BlockProc2,Extension - Long,F,1,,,90,12203,,,,,,,,StudyProc5
IS_JOL A,17,2,3,BlockProc2,Fish - Sardine,B,35,,,80,12766,,,,,,,,StudyProc5
IS_JOL A,17,2,3,BlockProc2,Bird - Penguin,B,24,,,70,16650,,,,,,,,StudyProc5
IS_JOL A,17,2,3,BlockProc2,Pop - Balloon,B,28,,,90,24991,,,,,,,,StudyProc5
IS_JOL A,17,2,3,BlockProc2,Dine - Eat,F,16,,,80,21182,,,,,,,,StudyProc5
IS_JOL A,17,2,3,BlockProc2,Fruit - Strawberry,B,29,,,,170,,,,,,,,StudyProc5
IS_JOL A,17,2,3,BlockProc2,Chill - Cold,F,19,,,85,28403,,,,,,,,StudyProc5
IS_JOL A,17,2,3,BlockProc2,Shears - Scissors,F,17,,,55,17061,,,,,,,,StudyProc5
IS_JOL A,17,2,3,BlockProc2,Glass - Breakable,B,32,,,,130,,,,,,,,StudyProc5
IS_JOL A,17,2,3,BlockProc2,Turn - Flip,B,21,,,80,12547,,,,,,,,StudyProc5
IS_JOL A,17,2,3,BlockProc2,Detective - Mystery,F,5,,,85,27289,,,,,,,,StudyProc5
IS_JOL A,17,2,3,BlockProc2,Cactus - Plant,F,3,,,75,14162,,,,,,,,StudyProc5
IS_JOL A,17,2,3,BlockProc2,Document - Paper,F,14,,,89,26229,,,,,,,,StudyProc5
IS_JOL A,17,2,3,BlockProc2,Driver - Car,F,11,,,100,7697,,,,,,,,StudyProc5
IS_JOL A,17,2,3,BlockProc2,Adjourn - End,F,6,,,95,12501,,,,,,,,StudyProc5
IS_JOL A,17,2,3,BlockProc2,Clue - Game,F,2,,,85,18804,,,,,,,,StudyProc5
IS_JOL A,17,2,3,BlockProc2,Bad - Villain,B,23,,,70,18656,,,,,,,,StudyProc5
IS_JOL A,17,2,3,BlockProc2,Scalp - Head,F,10,,,85,25579,,,,,,,,StudyProc5
IS_JOL A,17,2,3,BlockProc2,Money - Banker,B,37,,,75,17250,,,,,,,,StudyProc5
IS_JOL A,17,2,3,BlockProc2,Best - Favorite,B,30,,,76,21831,,,,,,,,StudyProc5
IS_JOL A,17,2,3,BlockProc2,Car - Windshield,B,22,,,90,7855,,,,,,,,StudyProc5
IS_JOL A,17,2,3,BlockProc2,Incense - Smell,F,15,,,95,9373,,,,,,,,StudyProc5
IS_JOL A,17,2,3,BlockProc2,Affection - Love,F,20,,,85,9284,,,,,,,,StudyProc5
IS_JOL A,17,2,3,BlockProc2,Star - Actress,B,25,,,56,7455,,,,,,,,StudyProc5
IS_JOL A,17,2,3,BlockProc2,Fight - Brawl,B,40,,,65,6181,,,,,,,,StudyProc5
IS_JOL A,17,2,3,BlockProc2,Cherry - Red,F,9,,,87,5895,,,,,,,,StudyProc5
IS_JOL A,17,2,3,BlockProc2,Litter - Trash,F,8,,,95,9028,,,,,,,,StudyProc5
IS_JOL A,17,2,3,BlockProc2,Mule - Donkey,F,13,,,90,5337,,,,,,,,StudyProc5
IS_JOL A,17,2,3,BlockProc2,Chop - Cut,F,12,,,90,5518,,,,,,,,StudyProc5
IS_JOL A,17,2,3,BlockProc2,Feud - Fight,F,18,,,75,7747,,,,,,,,StudyProc5
IS_JOL A,17,2,3,BlockProc2,Plane - Aircraft,B,34,,,95,7636,,,,,,,,StudyProc5
IS_JOL A,17,2,3,BlockProc2,Furry - Dog,F,7,,,100,5891,,,,,,,,StudyProc5
IS_JOL A,17,2,3,BlockProc2,Honest - Truthful,B,38,,,100,17240,,,,,,,,StudyProc5
IS_JOL A,17,2,3,BlockProc2,Thread - Thimble,B,26,,,76,7373,,,,,,,,StudyProc5
IS_JOL A,17,2,3,BlockProc2,Sleep - Nap,B,39,,,95,4798,,,,,,,,StudyProc5
IS_JOL A,17,2,3,BlockProc2,Shoelace - Tie,F,4,,,90,8281,,,,,,,,StudyProc5
IS_JOL A,17,2,3,BlockProc2,Dead - Coffin,B,33,,,90,5220,,,,,,,,StudyProc5
IS_JOL A,17,2,3,BlockProc2,Even - Revenge,B,27,,,78,3774,,,,,,,,StudyProc5
IS_JOL A,17,2,3,BlockProc2,Baseball - League,B,36,,,90,2298,,,,,,,,StudyProc5
IS_JOL A,17,2,3,BlockProc2,Cat - Panther,B,31,,,100,3547,,,,,,,,StudyProc5
IS_JOL A,17,2,3,BlockProc2,Deciet - Cheat,,1,,,,,,,,,,,,StudyProc6
IS_JOL A,17,2,3,BlockProc2,Mind - Matter,,2,,,,,,,,,,,,StudyProc6
IS_JOL A,17,2,3,BlockProc2,Contest - Competition,,5,,,,,,,,,,,,StudyProc6
IS_JOL A,17,2,3,BlockProc2,Deaf - Hear,,3,,,,,,,,,,,,StudyProc6
IS_JOL A,17,2,3,BlockProc2,Magician - Magic,,4,,,,,,,,,,,,StudyProc6
IS_JOL A,17,2,3,BlockProc2,Alone - ?,,50,,,,,,,lonley,,,,,recallproc2
IS_JOL A,17,2,3,BlockProc2,Fruit - ?,,29,,,,,,,bol,,,,,recallproc2
IS_JOL A,17,2,3,BlockProc2,Truth - ?,,53,,,,,,,lie,,,,,recallproc2
IS_JOL A,17,2,3,BlockProc2,Main - ?,,80,,,,,,,idea,,,,,recallproc2
IS_JOL A,17,2,3,BlockProc2,Fuzzy - ?,,73,,,,,,,dog,,,,,recallproc2
IS_JOL A,17,2,3,BlockProc2,Mule - ?,,13,,,,,,,donkey,,,,,recallproc2
IS_JOL A,17,2,3,BlockProc2,Chill - ?,,19,,,,,,,cold,,,,,recallproc2
IS_JOL A,17,2,3,BlockProc2,Honest - ?,,38,,,,,,,lie,,,,,recallproc2
IS_JOL A,17,2,3,BlockProc2,Name - ?,,72,,,,,,,title,,,,,recallproc2
IS_JOL A,17,2,3,BlockProc2,Bad - ?,,23,,,,,,,villian,,,,,recallproc2
IS_JOL A,17,2,3,BlockProc2,Cat - ?,,31,,,,,,,panther,,,,,recallproc2
IS_JOL A,17,2,3,BlockProc2,Element - ?,,46,,,,,,,roc,,,,,recallproc2
IS_JOL A,17,2,3,BlockProc2,Temperature - ?,,78,,,,,,,morning,,,,,recallproc2
IS_JOL A,17,2,3,BlockProc2,Feud - ?,,18,,,,,,,brawl,,,,,recallproc2
IS_JOL A,17,2,3,BlockProc2,Phone - ?,,54,,,,,,,communication,,,,,recallproc2
IS_JOL A,17,2,3,BlockProc2,Sun - ?,,60,,,,,,,tan,,,,,recallproc2
IS_JOL A,17,2,3,BlockProc2,Shell - ?,,68,,,,,,,cover,,,,,recallproc2
IS_JOL A,17,2,3,BlockProc2,Furry - ?,,7,,,,,,,dog,,,,,recallproc2
IS_JOL A,17,2,3,BlockProc2,Own - ?,,58,,,,,,,have,,,,,recallproc2
IS_JOL A,17,2,3,BlockProc2,Mirror - ?,,79,,,,,,,children,,,,,recallproc2
IS_JOL A,17,2,3,BlockProc2,Moat - ?,,74,,,,,,,chocolate,,,,,recallproc2
IS_JOL A,17,2,3,BlockProc2,Safety - ?,,52,,,,,,,seatbelt,,,,,recallproc2
IS_JOL A,17,2,3,BlockProc2,Rod - ?,,55,,,,,,,rover,,,,,recallproc2
IS_JOL A,17,2,3,BlockProc2,Affection - ?,,20,,,,,,,love,,,,,recallproc2
IS_JOL A,17,2,3,BlockProc2,Candle - ?,,44,,,,,,,wax,,,,,recallproc2
IS_JOL A,17,2,3,BlockProc2,Dine - ?,,16,,,,,,,eat,,,,,recallproc2
IS_JOL A,17,2,3,BlockProc2,Best - ?,,30,,,,,,,favorite,,,,,recallproc2
IS_JOL A,17,2,3,BlockProc2,Extension - ?,,1,,,,,,,long,,,,,recallproc2
IS_JOL A,17,2,3,BlockProc2,Glass - ?,,32,,,,,,,water,,,,,recallproc2
IS_JOL A,17,2,3,BlockProc2,Shoelace - ?,,4,,,,,,,tie,,,,,recallproc2
IS_JOL A,17,2,3,BlockProc2,Fish - ?,,35,,,,,,,sardines,,,,,recallproc2
IS_JOL A,17,2,3,BlockProc2,Litter - ?,,8,,,,,,,trash,,,,,recallproc2
IS_JOL A,17,2,3,BlockProc2,Loan - ?,,76,,,,,,,debt,,,,,recallproc2
IS_JOL A,17,2,3,BlockProc2,Lease - ?,,75,,,,,,,tend,,,,,recallproc2
IS_JOL A,17,2,3,BlockProc2,Sleep - ?,,39,,,,,,,nap,,,,,recallproc2
IS_JOL A,17,2,3,BlockProc2,Loud - ?,,57,,,,,,,noise,,,,,recallproc2
IS_JOL A,17,2,3,BlockProc2,Thread - ?,,26,,,,,,,sew,,,,,recallproc2
IS_JOL A,17,2,3,BlockProc2,Chop - ?,,12,,,,,,,cut,,,,,recallproc2
IS_JOL A,17,2,3,BlockProc2,Document - ?,,14,,,,,,,paper,,,,,recallproc2
IS_JOL A,17,2,3,BlockProc2,Money - ?,,37,,,,,,,banker,,,,,recallproc2
IS_JOL A,17,2,3,BlockProc2,Crackle - ?,,67,,,,,,,cane,,,,,recallproc2
IS_JOL A,17,2,3,BlockProc2,Fight - ?,,40,,,,,,,brawl,,,,,recallproc2
IS_JOL A,17,2,3,BlockProc2,Keys - ?,,70,,,,,,,park,,,,,recallproc2
IS_JOL A,17,2,3,BlockProc2,Plane - ?,,34,,,,,,,aircraft,,,,,recallproc2
IS_JOL A,17,2,3,BlockProc2,Listen - ?,,69,,,,,,,learn,,,,,recallproc2
IS_JOL A,17,2,3,BlockProc2,Detective - ?,,5,,,,,,,mystery,,,,,recallproc2
IS_JOL A,17,2,3,BlockProc2,Scalp - ?,,10,,,,,,,head,,,,,recallproc2
IS_JOL A,17,2,3,BlockProc2,Cake - ?,,71,,,,,,,make,,,,,recallproc2
IS_JOL A,17,2,3,BlockProc2,Rights - ?,,42,,,,,,,equal,,,,,recallproc2
IS_JOL A,17,2,3,BlockProc2,Turn - ?,,21,,,,,,,drive,,,,,recallproc2
IS_JOL A,17,2,3,BlockProc2,Pop - ?,,28,,,,,,,ballon,,,,,recallproc2
IS_JOL A,17,2,3,BlockProc2,Clue - ?,,2,,,,,,,game,,,,,recallproc2
IS_JOL A,17,2,3,BlockProc2,Star - ?,,25,,,,,,,actress,,,,,recallproc2
IS_JOL A,17,2,3,BlockProc2,Incense - ?,,15,,,,,,,smell,,,,,recallproc2
IS_JOL A,17,2,3,BlockProc2,Wrist - ?,,45,,,,,,,braclettes,,,,,recallproc2
IS_JOL A,17,2,3,BlockProc2,Even - ?,,27,,,,,,,number,,,,,recallproc2
IS_JOL A,17,2,3,BlockProc2,Gone - ?,,47,,,,,,,adjourn,,,,,recallproc2
IS_JOL A,17,2,3,BlockProc2,Earth - ?,,49,,,,,,,ground,,,,,recallproc2
IS_JOL A,17,2,3,BlockProc2,Car - ?,,22,,,,,,,driver,,,,,recallproc2
IS_JOL A,17,2,3,BlockProc2,Cactus - ?,,3,,,,,,,plant,,,,,recallproc2
IS_JOL A,17,2,3,BlockProc2,Adjourn - ?,,6,,,,,,,end,,,,,recallproc2
IS_JOL A,17,2,3,BlockProc2,Bird - ?,,24,,,,,,,penguins,,,,,recallproc2
IS_JOL A,17,2,3,BlockProc2,Baseball - ?,,36,,,,,,,throw,,,,,recallproc2
IS_JOL A,17,2,3,BlockProc2,Cherry - ?,,9,,,,,,,red,,,,,recallproc2
IS_JOL A,17,2,3,BlockProc2,Stretch - ?,,62,,,,,,,extend,,,,,recallproc2
IS_JOL A,17,2,3,BlockProc2,Give - ?,,63,,,,,,,hand,,,,,recallproc2
IS_JOL A,17,2,3,BlockProc2,Dry - ?,,51,,,,,,,wet,,,,,recallproc2
IS_JOL A,17,2,3,BlockProc2,Driver - ?,,11,,,,,,,car,,,,,recallproc2
IS_JOL A,17,2,3,BlockProc2,Both - ?,,77,,,,,,,tell,,,,,recallproc2
IS_JOL A,17,2,3,BlockProc2,Dead - ?,,33,,,,,,,coffin,,,,,recallproc2
IS_JOL A,17,2,3,BlockProc2,Justice - ?,,61,,,,,,,plane,,,,,recallproc2
IS_JOL A,17,2,3,BlockProc2,Razor - ?,,41,,,,,,,shave,,,,,recallproc2
IS_JOL A,17,2,3,BlockProc2,Maze - ?,,64,,,,,,,experiment,,,,,recallproc2
IS_JOL A,17,2,3,BlockProc2,Shears - ?,,17,,,,,,,scissors,,,,,recallproc2
IS_JOL A,17,2,3,BlockProc2,Tantrum - ?,,59,,,,,,,temper,,,,,recallproc2
IS_JOL A,17,2,3,BlockProc2,Mason - ?,,43,,,,,,,jar,,,,,recallproc2
IS_JOL A,17,2,3,BlockProc2,Meat - ?,,66,,,,,,,moat,,,,,recallproc2
IS_JOL A,17,2,3,BlockProc2,Flea - ?,,56,,,,,,,tick,,,,,recallproc2
IS_JOL A,17,2,3,BlockProc2,Vehicle - ?,,65,,,,,,,car,,,,,recallproc2
IS_JOL A,17,2,3,BlockProc2,Water - ?,,48,,,,,,,drink,,,,,recallproc2
IS_JOL A,29,1,,BlockProc1,Aardvark-Zoo,,1,,,,,,,,,,,,Practice1
IS_JOL A,29,1,,BlockProc1,Chocolate-Bar,,7,,,,,,,,,,,,Practice1
IS_JOL A,29,1,,BlockProc1,Hinge-Swing,,5,,,,,,,,,,,,Practice1
IS_JOL A,29,1,,BlockProc1,Disbelieve-Skeptic,,6,,,,,,,,,,,,Practice1
IS_JOL A,29,1,,BlockProc1,Ham-Bone,,3,,,,,,,,,,,,Practice1
IS_JOL A,29,1,,BlockProc1,Behavior-Social,,9,,,,,,,,,,,,Practice1
IS_JOL A,29,1,,BlockProc1,Chime-Music,,8,,,,,,,,,,,,Practice1
IS_JOL A,29,1,,BlockProc1,Fashion-Model,,10,,,,,,,,,,,,Practice1
IS_JOL A,29,1,,BlockProc1,Deaf-Mute,,2,,,,,,,,,,,,Practice1
IS_JOL A,29,1,,BlockProc1,Paddle-Row,,4,,,,,,,,,,,,Practice1
IS_JOL A,29,1,3,BlockProc1,Haircut-Scissors,,1,,,,,,,,,,,,StudyProc1
IS_JOL A,29,1,3,BlockProc1,Curtain - Drapes,,2,,,,,,,,,,,,StudyProc1
IS_JOL A,29,1,3,BlockProc1,Snow - Ice,,3,,,,,,,,,,,,StudyProc1
IS_JOL A,29,1,3,BlockProc1,Member - Group,,5,,,,,,,,,,,,StudyProc1
IS_JOL A,29,1,3,BlockProc1,Shrimp - Fish,,4,,,,,,,,,,,,StudyProc1
IS_JOL A,29,1,3,BlockProc1,Allow - Tuck,U,73,50,11101,,,,,,,,,,StudyProc3
IS_JOL A,29,1,3,BlockProc1,Discover - Floor,U,66,80,10613,,,,,,,,,,StudyProc3
IS_JOL A,29,1,3,BlockProc1,Pusher - Clutter,U,61,70,9521,,,,,,,,,,StudyProc3
IS_JOL A,29,1,3,BlockProc1,Wine - Cheese,S,52,80,8394,,,,,,,,,,StudyProc3
IS_JOL A,29,1,3,BlockProc1,Soon - Belt,U,65,60,10009,,,,,,,,,,StudyProc3
IS_JOL A,29,1,3,BlockProc1,Due - Assignment,S,41,70,26719,,,,,,,,,,StudyProc3
IS_JOL A,29,1,3,BlockProc1,Sugar - Riddle,U,76,60,10191,,,,,,,,,,StudyProc3
IS_JOL A,29,1,3,BlockProc1,Shoe - Foot,S,55,90,6661,,,,,,,,,,StudyProc3
IS_JOL A,29,1,3,BlockProc1,Debate - Sight,U,68,90,6283,,,,,,,,,,StudyProc3
IS_JOL A,29,1,3,BlockProc1,Lift - Woman,U,64,65,7337,,,,,,,,,,StudyProc3
IS_JOL A,29,1,3,BlockProc1,Begin - End,S,49,90,24587,,,,,,,,,,StudyProc3
IS_JOL A,29,1,3,BlockProc1,Past - Future,S,56,97,7555,,,,,,,,,,StudyProc3
IS_JOL A,29,1,3,BlockProc1,Cash - Would,U,78,67,7285,,,,,,,,,,StudyProc3
IS_JOL A,29,1,3,BlockProc1,Baby - Child,S,59,90,10770,,,,,,,,,,StudyProc3
IS_JOL A,29,1,3,BlockProc1,Art - Lion,U,74,90,13096,,,,,,,,,,StudyProc3
IS_JOL A,29,1,3,BlockProc1,Death - Business,U,67,40,22127,,,,,,,,,,StudyProc3
IS_JOL A,29,1,3,BlockProc1,Artery - Bronze,U,69,70,18867,,,,,,,,,,StudyProc3
IS_JOL A,29,1,3,BlockProc1,Architecture - Design,S,46,80,6470,,,,,,,,,,StudyProc3
IS_JOL A,29,1,3,BlockProc1,Honey - Bee,S,58,70,10836,,,,,,,,,,StudyProc3
IS_JOL A,29,1,3,BlockProc1,Bathroom - Toilet,S,53,70,6967,,,,,,,,,,StudyProc3
IS_JOL A,29,1,3,BlockProc1,Happy - Car,U,72,70,5905,,,,,,,,,,StudyProc3
IS_JOL A,29,1,3,BlockProc1,Blow - Wind,S,50,80,24542,,,,,,,,,,StudyProc3
IS_JOL A,29,1,3,BlockProc1,King - Vase,U,80,90,17959,,,,,,,,,,StudyProc3
IS_JOL A,29,1,3,BlockProc1,Park - Hungry,U,63,90,7895,,,,,,,,,,StudyProc3
IS_JOL A,29,1,3,BlockProc1,Circle - Round,S,60,75,10610,,,,,,,,,,StudyProc3
IS_JOL A,29,1,3,BlockProc1,Grill - Bar,S,47,50,13999,,,,,,,,,,StudyProc3
IS_JOL A,29,1,3,BlockProc1,Machine - Position,U,71,78,13336,,,,,,,,,,StudyProc3
IS_JOL A,29,1,3,BlockProc1,Fix - Hand,U,70,60,9981,,,,,,,,,,StudyProc3
IS_JOL A,29,1,3,BlockProc1,Kidney - Liver,S,48,40,17979,,,,,,,,,,StudyProc3
IS_JOL A,29,1,3,BlockProc1,Dietary - Slacking,U,62,65,17506,,,,,,,,,,StudyProc3
IS_JOL A,29,1,3,BlockProc1,Valley - Add,U,77,60,5595,,,,,,,,,,StudyProc3
IS_JOL A,29,1,3,BlockProc1,Pop - Soda,S,51,80,7813,,,,,,,,,,StudyProc3
IS_JOL A,29,1,3,BlockProc1,Lettuce - Salad,S,54,50,12852,,,,,,,,,,StudyProc3
IS_JOL A,29,1,3,BlockProc1,Location - Site,S,43,60,14428,,,,,,,,,,StudyProc3
IS_JOL A,29,1,3,BlockProc1,Dump - Waste,S,44,30,20709,,,,,,,,,,StudyProc3
IS_JOL A,29,1,3,BlockProc1,Number - Amount,S,42,67,9171,,,,,,,,,,StudyProc3
IS_JOL A,29,1,3,BlockProc1,Hide - Sick,U,79,80,12443,,,,,,,,,,StudyProc3
IS_JOL A,29,1,3,BlockProc1,Choice - Decision,S,57,70,16892,,,,,,,,,,StudyProc3
IS_JOL A,29,1,3,BlockProc1,Trial - Jury,S,45,35,15271,,,,,,,,,,StudyProc3
IS_JOL A,29,1,3,BlockProc1,Strong - Accident,U,75,68,24837,,,,,,,,,,StudyProc3
IS_JOL A,29,1,3,BlockProc1,Sentence - Word,B,26,,,,,,,,,,,,StudyProc7
IS_JOL A,29,1,3,BlockProc1,Bug - Wasp,B,27,,,,,,,,,,,,StudyProc7
IS_JOL A,29,1,3,BlockProc1,Work - Chore,B,34,,,,,,,,,,,,StudyProc7
IS_JOL A,29,1,3,BlockProc1,Hunger - Famine,B,35,,,,,,,,,,,,StudyProc7
IS_JOL A,29,1,3,BlockProc1,Revolution - War,F,15,,,,,,,,,,,,StudyProc7
IS_JOL A,29,1,3,BlockProc1,Clothes - Attire,B,38,,,,,,,,,,,,StudyProc7
IS_JOL A,29,1,3,BlockProc1,Drink - Sip,B,22,,,,,,,,,,,,StudyProc7
IS_JOL A,29,1,3,BlockProc1,Wage - Money,F,3,,,,,,,,,,,,StudyProc7
IS_JOL A,29,1,3,BlockProc1,Tuna - Fish,F,20,,,,,,,,,,,,StudyProc7
IS_JOL A,29,1,3,BlockProc1,Swan - Bird,F,9,,,,,,,,,,,,StudyProc7
IS_JOL A,29,1,3,BlockProc1,Math - Division,B,28,,,,,,,,,,,,StudyProc7
IS_JOL A,29,1,3,BlockProc1,Way - Out,F,11,,,,,,,,,,,,StudyProc7
IS_JOL A,29,1,3,BlockProc1,Smell - Stench,B,37,,,,,,,,,,,,StudyProc7
IS_JOL A,29,1,3,BlockProc1,Take - Seize,B,24,,,,,,,,,,,,StudyProc7
IS_JOL A,29,1,3,BlockProc1,Credit - Card,F,18,,,,,,,,,,,,StudyProc7
IS_JOL A,29,1,3,BlockProc1,Great - Fantastic,B,30,,,,,,,,,,,,StudyProc7
IS_JOL A,29,1,3,BlockProc1,Chisel - Hammer,F,4,,,,,,,,,,,,StudyProc7
IS_JOL A,29,1,3,BlockProc1,Paw - Dog,F,10,,,,,,,,,,,,StudyProc7
IS_JOL A,29,1,3,BlockProc1,Dark - Cave,B,23,,,,,,,,,,,,StudyProc7
IS_JOL A,29,1,3,BlockProc1,Law - Attorney,B,29,,,,,,,,,,,,StudyProc7
IS_JOL A,29,1,3,BlockProc1,Full - Enough,B,21,,,,,,,,,,,,StudyProc7
IS_JOL A,29,1,3,BlockProc1,Geology - Rock,F,14,,,,,,,,,,,,StudyProc7
IS_JOL A,29,1,3,BlockProc1,Bridge - Water,F,13,,,,,,,,,,,,StudyProc7
IS_JOL A,29,1,3,BlockProc1,Digestion - Stomach,F,2,,,,,,,,,,,,StudyProc7
IS_JOL A,29,1,3,BlockProc1,Discussion - Talk,F,16,,,,,,,,,,,,StudyProc7
IS_JOL A,29,1,3,BlockProc1,Herd - Cow,F,17,,,,,,,,,,,,StudyProc7
IS_JOL A,29,1,3,BlockProc1,Plane - Pilot,B,39,,,,,,,,,,,,StudyProc7
IS_JOL A,29,1,3,BlockProc1,Orchid - Flower,F,19,,,,,,,,,,,,StudyProc7
IS_JOL A,29,1,3,BlockProc1,Ball - Racket,B,33,,,,,,,,,,,,StudyProc7
IS_JOL A,29,1,3,BlockProc1,Editor - News,F,5,,,,,,,,,,,,StudyProc7
IS_JOL A,29,1,3,BlockProc1,Fire - Blaze,B,40,,,,,,,,,,,,StudyProc7
IS_JOL A,29,1,3,BlockProc1,Sleep - Drowsy,B,36,,,,,,,,,,,,StudyProc7
IS_JOL A,29,1,3,BlockProc1,Hornet - Sting,F,6,,,,,,,,,,,,StudyProc7
IS_JOL A,29,1,3,BlockProc1,Hot - Chili,B,32,,,,,,,,,,,,StudyProc7
IS_JOL A,29,1,3,BlockProc1,Delinquent - Bad,F,1,,,,,,,,,,,,StudyProc7
IS_JOL A,29,1,3,BlockProc1,Key - Latch,B,31,,,,,,,,,,,,StudyProc7
IS_JOL A,29,1,3,BlockProc1,Hygiene - Clean,F,12,,,,,,,,,,,,StudyProc7
IS_JOL A,29,1,3,BlockProc1,Root - Plant,F,8,,,,,,,,,,,,StudyProc7
IS_JOL A,29,1,3,BlockProc1,Bitter - Cold,F,7,,,,,,,,,,,,StudyProc7
IS_JOL A,29,1,3,BlockProc1,Height - Growth,B,25,,,,,,,,,,,,StudyProc7
IS_JOL A,29,1,3,BlockProc1,Geese - Goose,,1,,,,,,,,,,,,StudyProc2
IS_JOL A,29,1,3,BlockProc1,Trees - Green,,5,,,,,,,,,,,,StudyProc2
IS_JOL A,29,1,3,BlockProc1,Friendliness - Nice,,3,,,,,,,,,,,,StudyProc2
IS_JOL A,29,1,3,BlockProc1,Grab - Take,,2,,,,,,,,,,,,StudyProc2
IS_JOL A,29,1,3,BlockProc1,Catcher - Baseball,,4,,,,,,,,,,,,StudyProc2
IS_JOL A,29,1,3,BlockProc1,Bathroom - ?,,53,,,,,toilet,5255,,,,,,recallproc1
IS_JOL A,29,1,3,BlockProc1,Soon - ?,,65,,,,,,9599,,,,,,recallproc1
IS_JOL A,29,1,3,BlockProc1,Take - ?,,24,,,,,grab,2509,,,,,,recallproc1
IS_JOL A,29,1,3,BlockProc1,Wine - ?,,52,,,,,cheese,2309,,,,,,recallproc1
IS_JOL A,29,1,3,BlockProc1,Machine - ?,,71,,,,,,7477,,,,,,recallproc1
IS_JOL A,29,1,3,BlockProc1,Hornet - ?,,6,,,,,sting,2138,,,,,,recallproc1
IS_JOL A,29,1,3,BlockProc1,Orchid - ?,,19,,,,,flower,4377,,,,,,recallproc1
IS_JOL A,29,1,3,BlockProc1,Location - ?,,43,,,,,site,2637,,,,,,recallproc1
IS_JOL A,29,1,3,BlockProc1,Smell - ?,,37,,,,,stench,2471,,,,,,recallproc1
IS_JOL A,29,1,3,BlockProc1,Chisel - ?,,4,,,,,hammer,2113,,,,,,recallproc1
IS_JOL A,29,1,3,BlockProc1,Lift - ?,,64,,,,,woman,6665,,,,,,recallproc1
IS_JOL A,29,1,3,BlockProc1,Height - ?,,25,,,,,growth,2711,,,,,,recallproc1
IS_JOL A,29,1,3,BlockProc1,Delinquent - ?,,1,,,,,bad,3959,,,,,,recallproc1
IS_JOL A,29,1,3,BlockProc1,Discover - ?,,66,,,,,,8116,,,,,,recallproc1
IS_JOL A,29,1,3,BlockProc1,Way - ?,,11,,,,,out,1702,,,,,,recallproc1
IS_JOL A,29,1,3,BlockProc1,Plane - ?,,39,,,,,pilot,2095,,,,,,recallproc1
IS_JOL A,29,1,3,BlockProc1,Allow - ?,,73,,,,,,11593,,,,,,recallproc1
IS_JOL A,29,1,3,BlockProc1,Number - ?,,42,,,,,amount,6461,,,,,,recallproc1
IS_JOL A,29,1,3,BlockProc1,Begin - ?,,49,,,,,end,3379,,,,,,recallproc1
IS_JOL A,29,1,3,BlockProc1,Fix - ?,,70,,,,,,7896,,,,,,recallproc1
IS_JOL A,29,1,3,BlockProc1,Lettuce - ?,,54,,,,,salad,4667,,,,,,recallproc1
IS_JOL A,29,1,3,BlockProc1,Sleep - ?,,36,,,,,drowsy,4787,,,,,,recallproc1
IS_JOL A,29,1,3,BlockProc1,Root - ?,,8,,,,,plant,2862,,,,,,recallproc1
IS_JOL A,29,1,3,BlockProc1,Tuna - ?,,20,,,,,fish,3320,,,,,,recallproc1
IS_JOL A,29,1,3,BlockProc1,Paw - ?,,10,,,,,dog,1839,,,,,,recallproc1
IS_JOL A,29,1,3,BlockProc1,Circle - ?,,60,,,,,round,2618,,,,,,recallproc1
IS_JOL A,29,1,3,BlockProc1,Choice - ?,,57,,,,,decision,3958,,,,,,recallproc1
IS_JOL A,29,1,3,BlockProc1,Shoe - ?,,55,,,,,foot,2499,,,,,,recallproc1
IS_JOL A,29,1,3,BlockProc1,Law - ?,,29,,,,,attourney,3180,,,,,,recallproc1
IS_JOL A,29,1,3,BlockProc1,Work - ?,,34,,,,,chore,2913,,,,,,recallproc1
IS_JOL A,29,1,3,BlockProc1,Debate - ?,,68,,,,,,10208,,,,,,recallproc1
IS_JOL A,29,1,3,BlockProc1,Discussion - ?,,16,,,,,talk,2933,,,,,,recallproc1
IS_JOL A,29,1,3,BlockProc1,Bug - ?,,27,,,,,wasp,3604,,,,,,recallproc1
IS_JOL A,29,1,3,BlockProc1,Digestion - ?,,2,,,,,stomach,3055,,,,,,recallproc1
IS_JOL A,29,1,3,BlockProc1,Blow - ?,,50,,,,,wind,2154,,,,,,recallproc1
IS_JOL A,29,1,3,BlockProc1,Clothes - ?,,38,,,,,attirer,2008,,,,,,recallproc1
IS_JOL A,29,1,3,BlockProc1,Dump - ?,,44,,,,,waste,3644,,,,,,recallproc1
IS_JOL A,29,1,3,BlockProc1,Pusher - ?,,61,,,,,,9502,,,,,,recallproc1
IS_JOL A,29,1,3,BlockProc1,Swan - ?,,9,,,,,bird,2176,,,,,,recallproc1
IS_JOL A,29,1,3,BlockProc1,Pop - ?,,51,,,,,soda,2197,,,,,,recallproc1
IS_JOL A,29,1,3,BlockProc1,Grill - ?,,47,,,,,bar,2755,,,,,,recallproc1
IS_JOL A,29,1,3,BlockProc1,Sentence - ?,,26,,,,,word,2568,,,,,,recallproc1
IS_JOL A,29,1,3,BlockProc1,Park - ?,,63,,,,,,8246,,,,,,recallproc1
IS_JOL A,29,1,3,BlockProc1,Valley - ?,,77,,,,,,4860,,,,,,recallproc1
IS_JOL A,29,1,3,BlockProc1,Strong - ?,,75,,,,,,11883,,,,,,recallproc1
IS_JOL A,29,1,3,BlockProc1,Key - ?,,31,,,,,latch,2251,,,,,,recallproc1
IS_JOL A,29,1,3,BlockProc1,Full - ?,,21,,,,,enough,4686,,,,,,recallproc1
IS_JOL A,29,1,3,BlockProc1,Revolution - ?,,15,,,,,war,1774,,,,,,recallproc1
IS_JOL A,29,1,3,BlockProc1,Ball - ?,,33,,,,,racket,7764,,,,,,recallproc1
IS_JOL A,29,1,3,BlockProc1,Hide - ?,,79,,,,,,6309,,,,,,recallproc1
IS_JOL A,29,1,3,BlockProc1,Past - ?,,56,,,,,future,4425,,,,,,recallproc1
IS_JOL A,29,1,3,BlockProc1,Great - ?,,30,,,,,fatastic,8131,,,,,,recallproc1
IS_JOL A,29,1,3,BlockProc1,Fire - ?,,40,,,,,blaze,4285,,,,,,recallproc1
IS_JOL A,29,1,3,BlockProc1,Architecture - ?,,46,,,,,design,4196,,,,,,recallproc1
IS_JOL A,29,1,3,BlockProc1,Wage - ?,,3,,,,,money,2655,,,,,,recallproc1
IS_JOL A,29,1,3,BlockProc1,Geology - ?,,14,,,,,rock,2665,,,,,,recallproc1
IS_JOL A,29,1,3,BlockProc1,Drink - ?,,22,,,,,,12275,,,,,,recallproc1
IS_JOL A,29,1,3,BlockProc1,Cash - ?,,78,,,,,wage,4908,,,,,,recallproc1
IS_JOL A,29,1,3,BlockProc1,Due - ?,,41,,,,,assignment,5329,,,,,,recallproc1
IS_JOL A,29,1,3,BlockProc1,Hygiene - ?,,12,,,,,clean,2646,,,,,,recallproc1
IS_JOL A,29,1,3,BlockProc1,Kidney - ?,,48,,,,,liver,5097,,,,,,recallproc1
IS_JOL A,29,1,3,BlockProc1,Bridge - ?,,13,,,,,water,2759,,,,,,recallproc1
IS_JOL A,29,1,3,BlockProc1,Dietary - ?,,62,,,,,,20677,,,,,,recallproc1
IS_JOL A,29,1,3,BlockProc1,Editor - ?,,5,,,,,news,9205,,,,,,recallproc1
IS_JOL A,29,1,3,BlockProc1,King - ?,,80,,,,,,12379,,,,,,recallproc1
IS_JOL A,29,1,3,BlockProc1,Art - ?,,74,,,,,,3503,,,,,,recallproc1
IS_JOL A,29,1,3,BlockProc1,Artery - ?,,69,,,,,bronze,5135,,,,,,recallproc1
IS_JOL A,29,1,3,BlockProc1,Death - ?,,67,,,,,,4980,,,,,,recallproc1
IS_JOL A,29,1,3,BlockProc1,Baby - ?,,59,,,,,child,4735,,,,,,recallproc1
IS_JOL A,29,1,3,BlockProc1,Credit - ?,,18,,,,,card,1932,,,,,,recallproc1
IS_JOL A,29,1,3,BlockProc1,Bitter - ?,,7,,,,,cold,2525,,,,,,recallproc1
IS_JOL A,29,1,3,BlockProc1,Trial - ?,,45,,,,,jury,2836,,,,,,recallproc1
IS_JOL A,29,1,3,BlockProc1,Happy - ?,,72,,,,,,13519,,,,,,recallproc1
IS_JOL A,29,1,3,BlockProc1,Math - ?,,28,,,,,,6772,,,,,,recallproc1
IS_JOL A,29,1,3,BlockProc1,Herd - ?,,17,,,,,cow,2799,,,,,,recallproc1
IS_JOL A,29,1,3,BlockProc1,Hot - ?,,32,,,,,chili,4162,,,,,,recallproc1
IS_JOL A,29,1,3,BlockProc1,Hunger - ?,,35,,,,,famine,3599,,,,,,recallproc1
IS_JOL A,29,1,3,BlockProc1,Sugar - ?,,76,,,,,,11042,,,,,,recallproc1
IS_JOL A,29,1,3,BlockProc1,Dark - ?,,23,,,,,cave,4293,,,,,,recallproc1
IS_JOL A,29,1,3,BlockProc1,Honey - ?,,58,,,,,bee,9964,,,,,,recallproc1
IS_JOL A,29,2,3,BlockProc2,Malt - Chocolate,,5,,,,,,,,,,,,StudyProc4
IS_JOL A,29,2,3,BlockProc2,Essay - Write,,4,,,,,,,,,,,,StudyProc4
IS_JOL A,29,2,3,BlockProc2,Sheriff - Police,,1,,,,,,,,,,,,StudyProc4
IS_JOL A,29,2,3,BlockProc2,Disintegrate - Disappear,,3,,,,,,,,,,,,StudyProc4
IS_JOL A,29,2,3,BlockProc2,Hide - Scare,,2,,,,,,,,,,,,StudyProc4
IS_JOL A,29,2,3,BlockProc2,Razor - Shave,S,41,,,,,,,,,,7,7009,StudyProc8
IS_JOL A,29,2,3,BlockProc2,Element - Carbon,S,46,,,,,,,,,,80,9025,StudyProc8
IS_JOL A,29,2,3,BlockProc2,Meat - Obtain,U,66,,,,,,,,,,60,11439,StudyProc8
IS_JOL A,29,2,3,BlockProc2,Truth - Lie,S,53,,,,,,,,,,80,6337,StudyProc8
IS_JOL A,29,2,3,BlockProc2,Flea - Tick,S,56,,,,,,,,,,30,15221,StudyProc8
IS_JOL A,29,2,3,BlockProc2,Alone - Lonely,S,50,,,,,,,,,,50,8764,StudyProc8
IS_JOL A,29,2,3,BlockProc2,Name - Hate,U,72,,,,,,,,,,40,14612,StudyProc8
IS_JOL A,29,2,3,BlockProc2,Wrist - Bracelet,S,45,,,,,,,,,,60,3765,StudyProc8
IS_JOL A,29,2,3,BlockProc2,Candle - Wax,S,44,,,,,,,,,,60,3986,StudyProc8
IS_JOL A,29,2,3,BlockProc2,Mason - Jar,S,43,,,,,,,,,,70,6158,StudyProc8
IS_JOL A,29,2,3,BlockProc2,Moat - Clear,U,74,,,,,,,,,,60,6048,StudyProc8
IS_JOL A,29,2,3,BlockProc2,Safety - Seatbelt,S,52,,,,,,,,,,75,19855,StudyProc8
IS_JOL A,29,2,3,BlockProc2,Mirror - Children,U,79,,,,,,,,,,60,10649,StudyProc8
IS_JOL A,29,2,3,BlockProc2,Water - Drink,S,48,,,,,,,,,,80,8580,StudyProc8
IS_JOL A,29,2,3,BlockProc2,Give - Steak,U,63,,,,,,,,,,60,16155,StudyProc8
IS_JOL A,29,2,3,BlockProc2,Own - Have,S,58,,,,,,,,,,80,10940,StudyProc8
IS_JOL A,29,2,3,BlockProc2,Cake - Clothes,U,71,,,,,,,,,,45,7435,StudyProc8
IS_JOL A,29,2,3,BlockProc2,Crackle - Able,U,67,,,,,,,,,,60,11226,StudyProc8
IS_JOL A,29,2,3,BlockProc2,Rod - Reel,S,55,,,,,,,,,,56,19589,StudyProc8
IS_JOL A,29,2,3,BlockProc2,Main - Scar,U,80,,,,,,,,,,20,30297,StudyProc8
IS_JOL A,29,2,3,BlockProc2,Keys - Joke,U,70,,,,,,,,,,60,14479,StudyProc8
IS_JOL A,29,2,3,BlockProc2,Stretch - Cloth,U,62,,,,,,,,,,55,22141,StudyProc8
IS_JOL A,29,2,3,BlockProc2,Loan - Sign,U,76,,,,,,,,,,0,11217,StudyProc8
IS_JOL A,29,2,3,BlockProc2,Maze - Election,U,64,,,,,,,,,,60,25149,StudyProc8
IS_JOL A,29,2,3,BlockProc2,Sun - Tan,S,60,,,,,,,,,,90,9237,StudyProc8
IS_JOL A,29,2,3,BlockProc2,Lease - Toil,U,75,,,,,,,,,,10,10042,StudyProc8
IS_JOL A,29,2,3,BlockProc2,Dry - Wet,S,51,,,,,,,,,,79,10990,StudyProc8
IS_JOL A,29,2,3,BlockProc2,Phone - Communicatio,S,54,,,,,,,,,,70,22115,StudyProc8
IS_JOL A,29,2,3,BlockProc2,Loud - Noise,S,57,,,,,,,,,,90,9584,StudyProc8
IS_JOL A,29,2,3,BlockProc2,Vehicle - Charm,U,65,,,,,,,,,,60,13223,StudyProc8
IS_JOL A,29,2,3,BlockProc2,Temperature - Morning,U,78,,,,,,,,,,54,13560,StudyProc8
IS_JOL A,29,2,3,BlockProc2,Shell - Shake,U,68,,,,,,,,,,30,23076,StudyProc8
IS_JOL A,29,2,3,BlockProc2,Justice - Maroon,U,61,,,,,,,,,,54,28497,StudyProc8
IS_JOL A,29,2,3,BlockProc2,Fuzzy - Bang,U,73,,,,,,,,,,60,11241,StudyProc8
IS_JOL A,29,2,3,BlockProc2,Rights - Equal,S,42,,,,,,,,,,90,6972,StudyProc8
IS_JOL A,29,2,3,BlockProc2,Listen - Fiction,U,69,,,,,,,,,,60,14125,StudyProc8
IS_JOL A,29,2,3,BlockProc2,Gone - Away,S,47,,,,,,,,,,70,12106,StudyProc8
IS_JOL A,29,2,3,BlockProc2,Both - Ounce,U,77,,,,,,,,,,12,10953,StudyProc8
IS_JOL A,29,2,3,BlockProc2,Tantrum - Temper,S,59,,,,,,,,,,67,12103,StudyProc8
IS_JOL A,29,2,3,BlockProc2,Earth - Ground,S,49,,,,,,,,,,70,9031,StudyProc8
IS_JOL A,29,2,3,BlockProc2,Document - Paper,F,14,,,68,4577,,,,,,,,StudyProc5
IS_JOL A,29,2,3,BlockProc2,Scalp - Head,F,10,,,60,31029,,,,,,,,StudyProc5
IS_JOL A,29,2,3,BlockProc2,Litter - Trash,F,8,,,78,11757,,,,,,,,StudyProc5
IS_JOL A,29,2,3,BlockProc2,Bad - Villain,B,23,,,0,5042,,,,,,,,StudyProc5
IS_JOL A,29,2,3,BlockProc2,Cat - Panther,B,31,,,70,5187,,,,,,,,StudyProc5
IS_JOL A,29,2,3,BlockProc2,Shears - Scissors,F,17,,,60,3445,,,,,,,,StudyProc5
IS_JOL A,29,2,3,BlockProc2,Detective - Mystery,F,5,,,70,11423,,,,,,,,StudyProc5
IS_JOL A,29,2,3,BlockProc2,Chop - Cut,F,12,,,80,12411,,,,,,,,StudyProc5
IS_JOL A,29,2,3,BlockProc2,Incense - Smell,F,15,,,50,17149,,,,,,,,StudyProc5
IS_JOL A,29,2,3,BlockProc2,Sleep - Nap,B,39,,,99,7054,,,,,,,,StudyProc5
IS_JOL A,29,2,3,BlockProc2,Adjourn - End,F,6,,,60,18965,,,,,,,,StudyProc5
IS_JOL A,29,2,3,BlockProc2,Plane - Aircraft,B,34,,,40,6955,,,,,,,,StudyProc5
IS_JOL A,29,2,3,BlockProc2,Dead - Coffin,B,33,,,60,7517,,,,,,,,StudyProc5
IS_JOL A,29,2,3,BlockProc2,Fish - Sardine,B,35,,,70,7488,,,,,,,,StudyProc5
IS_JOL A,29,2,3,BlockProc2,Cactus - Plant,F,3,,,70,8197,,,,,,,,StudyProc5
IS_JOL A,29,2,3,BlockProc2,Affection - Love,F,20,,,80,16660,,,,,,,,StudyProc5
IS_JOL A,29,2,3,BlockProc2,Star - Actress,B,25,,,70,8489,,,,,,,,StudyProc5
IS_JOL A,29,2,3,BlockProc2,Bird - Penguin,B,24,,,8,11252,,,,,,,,StudyProc5
IS_JOL A,29,2,3,BlockProc2,Glass - Breakable,B,32,,,80,3734,,,,,,,,StudyProc5
IS_JOL A,29,2,3,BlockProc2,Turn - Flip,B,21,,,60,12036,,,,,,,,StudyProc5
IS_JOL A,29,2,3,BlockProc2,Car - Windshield,B,22,,,80,3110,,,,,,,,StudyProc5
IS_JOL A,29,2,3,BlockProc2,Driver - Car,F,11,,,90,4814,,,,,,,,StudyProc5
IS_JOL A,29,2,3,BlockProc2,Furry - Dog,F,7,,,90,2312,,,,,,,,StudyProc5
IS_JOL A,29,2,3,BlockProc2,Best - Favorite,B,30,,,90,15176,,,,,,,,StudyProc5
IS_JOL A,29,2,3,BlockProc2,Pop - Balloon,B,28,,,67,9290,,,,,,,,StudyProc5
IS_JOL A,29,2,3,BlockProc2,Baseball - League,B,36,,,79,11612,,,,,,,,StudyProc5
IS_JOL A,29,2,3,BlockProc2,Thread - Thimble,B,26,,,68,10255,,,,,,,,StudyProc5
IS_JOL A,29,2,3,BlockProc2,Dine - Eat,F,16,,,90,14434,,,,,,,,StudyProc5
IS_JOL A,29,2,3,BlockProc2,Honest - Truthful,B,38,,,90,11474,,,,,,,,StudyProc5
IS_JOL A,29,2,3,BlockProc2,Clue - Game,F,2,,,47,18027,,,,,,,,StudyProc5
IS_JOL A,29,2,3,BlockProc2,Even - Revenge,B,27,,,67,8264,,,,,,,,StudyProc5
IS_JOL A,29,2,3,BlockProc2,Fight - Brawl,B,40,,,80,3028,,,,,,,,StudyProc5
IS_JOL A,29,2,3,BlockProc2,Money - Banker,B,37,,,70,1847,,,,,,,,StudyProc5
IS_JOL A,29,2,3,BlockProc2,Shoelace - Tie,F,4,,,90,2682,,,,,,,,StudyProc5
IS_JOL A,29,2,3,BlockProc2,Fruit - Strawberry,B,29,,,90,1996,,,,,,,,StudyProc5
IS_JOL A,29,2,3,BlockProc2,Mule - Donkey,F,13,,,70,6649,,,,,,,,StudyProc5
IS_JOL A,29,2,3,BlockProc2,Chill - Cold,F,19,,,88,14720,,,,,,,,StudyProc5
IS_JOL A,29,2,3,BlockProc2,Extension - Long,F,1,,,87,5397,,,,,,,,StudyProc5
IS_JOL A,29,2,3,BlockProc2,Feud - Fight,F,18,,,76,14870,,,,,,,,StudyProc5
IS_JOL A,29,2,3,BlockProc2,Cherry - Red,F,9,,,90,5683,,,,,,,,StudyProc5
IS_JOL A,29,2,3,BlockProc2,Deaf - Hear,,3,,,,,,,,,,,,StudyProc6
IS_JOL A,29,2,3,BlockProc2,Contest - Competition,,5,,,,,,,,,,,,StudyProc6
IS_JOL A,29,2,3,BlockProc2,Magician - Magic,,4,,,,,,,,,,,,StudyProc6
IS_JOL A,29,2,3,BlockProc2,Mind - Matter,,2,,,,,,,,,,,,StudyProc6
IS_JOL A,29,2,3,BlockProc2,Deciet - Cheat,,1,,,,,,,,,,,,StudyProc6
IS_JOL A,29,2,3,BlockProc2,Rod - ?,,55,,,,,,,reel,,,,,recallproc2
IS_JOL A,29,2,3,BlockProc2,Lease - ?,,75,,,,,,,sign,,,,,recallproc2
IS_JOL A,29,2,3,BlockProc2,Bad - ?,,23,,,,,,,delinquent,,,,,recallproc2
IS_JOL A,29,2,3,BlockProc2,Document - ?,,14,,,,,,,sign,,,,,recallproc2
IS_JOL A,29,2,3,BlockProc2,Turn - ?,,21,,,,,,,flip,,,,,recallproc2
IS_JOL A,29,2,3,BlockProc2,Earth - ?,,49,,,,,,,ground,,,,,recallproc2
IS_JOL A,29,2,3,BlockProc2,Name - ?,,72,,,,,,,hate,,,,,recallproc2
IS_JOL A,29,2,3,BlockProc2,Detective - ?,,5,,,,,,,mystery,,,,,recallproc2
IS_JOL A,29,2,3,BlockProc2,Chill - ?,,19,,,,,,,cold,,,,,recallproc2
IS_JOL A,29,2,3,BlockProc2,Fruit - ?,,29,,,,,,,strawberry,,,,,recallproc2
IS_JOL A,29,2,3,BlockProc2,Listen - ?,,69,,,,,,,hear,,,,,recallproc2
IS_JOL A,29,2,3,BlockProc2,Clue - ?,,2,,,,,,,game,,,,,recallproc2
IS_JOL A,29,2,3,BlockProc2,Mirror - ?,,79,,,,,,,children,,,,,recallproc2
IS_JOL A,29,2,3,BlockProc2,Wrist - ?,,45,,,,,,,bracelet,,,,,recallproc2
IS_JOL A,29,2,3,BlockProc2,Alone - ?,,50,,,,,,,lonely,,,,,recallproc2
IS_JOL A,29,2,3,BlockProc2,Own - ?,,58,,,,,,,have,,,,,recallproc2
IS_JOL A,29,2,3,BlockProc2,Cherry - ?,,9,,,,,,,red,,,,,recallproc2
IS_JOL A,29,2,3,BlockProc2,Moat - ?,,74,,,,,,,clear,,,,,recallproc2
IS_JOL A,29,2,3,BlockProc2,Best - ?,,30,,,,,,,favorite,,,,,recallproc2
IS_JOL A,29,2,3,BlockProc2,Bird - ?,,24,,,,,,,penguin,,,,,recallproc2
IS_JOL A,29,2,3,BlockProc2,Keys - ?,,70,,,,,,,joke,,,,,recallproc2
IS_JOL A,29,2,3,BlockProc2,Dead - ?,,33,,,,,,,coffin,,,,,recallproc2
IS_JOL A,29,2,3,BlockProc2,Safety - ?,,52,,,,,,,seatblt,,,,,recallproc2
IS_JOL A,29,2,3,BlockProc2,Loan - ?,,76,,,,,,,sign,,,,,recallproc2
IS_JOL A,29,2,3,BlockProc2,Justice - ?,,61,,,,,,,law,,,,,recallproc2
IS_JOL A,29,2,3,BlockProc2,Mason - ?,,43,,,,,,,jar,,,,,recallproc2
IS_JOL A,29,2,3,BlockProc2,Dine - ?,,16,,,,,,,eat,,,,,recallproc2
IS_JOL A,29,2,3,BlockProc2,Both - ?,,77,,,,,,,,,,,,recallproc2
IS_JOL A,29,2,3,BlockProc2,Glass - ?,,32,,,,,,,breakale,,,,,recallproc2
IS_JOL A,29,2,3,BlockProc2,Water - ?,,48,,,,,,,drink,,,,,recallproc2
IS_JOL A,29,2,3,BlockProc2,Sleep - ?,,39,,,,,,,nap,,,,,recallproc2
IS_JOL A,29,2,3,BlockProc2,Baseball - ?,,36,,,,,,,league,,,,,recallproc2
IS_JOL A,29,2,3,BlockProc2,Extension - ?,,1,,,,,,,length,,,,,recallproc2
IS_JOL A,29,2,3,BlockProc2,Maze - ?,,64,,,,,,,election,,,,,recallproc2
IS_JOL A,29,2,3,BlockProc2,Cake - ?,,71,,,,,,,clothes,,,,,recallproc2
IS_JOL A,29,2,3,BlockProc2,Plane - ?,,34,,,,,,,aircraft,,,,,recallproc2
IS_JOL A,29,2,3,BlockProc2,Money - ?,,37,,,,,,,,,,,,recallproc2
IS_JOL A,29,2,3,BlockProc2,Vehicle - ?,,65,,,,,,,charm,,,,,recallproc2
IS_JOL A,29,2,3,BlockProc2,Scalp - ?,,10,,,,,,,head,,,,,recallproc2
IS_JOL A,29,2,3,BlockProc2,Thread - ?,,26,,,,,,,thimble,,,,,recallproc2
IS_JOL A,29,2,3,BlockProc2,Stretch - ?,,62,,,,,,,,,,,,recallproc2
IS_JOL A,29,2,3,BlockProc2,Chop - ?,,12,,,,,,,cut,,,,,recallproc2
IS_JOL A,29,2,3,BlockProc2,Star - ?,,25,,,,,,,actress,,,,,recallproc2
IS_JOL A,29,2,3,BlockProc2,Furry - ?,,7,,,,,,,dog,,,,,recallproc2
IS_JOL A,29,2,3,BlockProc2,Cactus - ?,,3,,,,,,,plant,,,,,recallproc2
IS_JOL A,29,2,3,BlockProc2,Main - ?,,80,,,,,,,scar,,,,,recallproc2
IS_JOL A,29,2,3,BlockProc2,Shell - ?,,68,,,,,,,shrink,,,,,recallproc2
IS_JOL A,29,2,3,BlockProc2,Truth - ?,,53,,,,,,,lie,,,,,recallproc2
IS_JOL A,29,2,3,BlockProc2,Even - ?,,27,,,,,,,odd,,,,,recallproc2
IS_JOL A,29,2,3,BlockProc2,Sun - ?,,60,,,,,,,tan,,,,,recallproc2
IS_JOL A,29,2,3,BlockProc2,Flea - ?,,56,,,,,,,tick,,,,,recallproc2
IS_JOL A,29,2,3,BlockProc2,Affection - ?,,20,,,,,,,love,,,,,recallproc2
IS_JOL A,29,2,3,BlockProc2,Litter - ?,,8,,,,,,,trash,,,,,recallproc2
IS_JOL A,29,2,3,BlockProc2,Adjourn - ?,,6,,,,,,,en,,,,,recallproc2
IS_JOL A,29,2,3,BlockProc2,Cat - ?,,31,,,,,,,panther,,,,,recallproc2
IS_JOL A,29,2,3,BlockProc2,Mule - ?,,13,,,,,,,donkey,,,,,recallproc2
IS_JOL A,29,2,3,BlockProc2,Crackle - ?,,67,,,,,,,cat,,,,,recallproc2
IS_JOL A,29,2,3,BlockProc2,Dry - ?,,51,,,,,,,wet,,,,,recallproc2
IS_JOL A,29,2,3,BlockProc2,Honest - ?,,38,,,,,,,ruthfulness,,,,,recallproc2
IS_JOL A,29,2,3,BlockProc2,Car - ?,,22,,,,,,,,,,,,recallproc2
IS_JOL A,29,2,3,BlockProc2,Shoelace - ?,,4,,,,,,,tie,,,,,recallproc2
IS_JOL A,29,2,3,BlockProc2,Gone - ?,,47,,,,,,,away,,,,,recallproc2
IS_JOL A,29,2,3,BlockProc2,Shears - ?,,17,,,,,,,scissors,,,,,recallproc2
IS_JOL A,29,2,3,BlockProc2,Incense - ?,,15,,,,,,,smell,,,,,recallproc2
IS_JOL A,29,2,3,BlockProc2,Rights - ?,,42,,,,,,,justice,,,,,recallproc2
IS_JOL A,29,2,3,BlockProc2,Fish - ?,,35,,,,,,,sardines,,,,,recallproc2
IS_JOL A,29,2,3,BlockProc2,Fight - ?,,40,,,,,,,fued,,,,,recallproc2
IS_JOL A,29,2,3,BlockProc2,Phone - ?,,54,,,,,,,communication,,,,,recallproc2
IS_JOL A,29,2,3,BlockProc2,Razor - ?,,41,,,,,,,,,,,,recallproc2
IS_JOL A,29,2,3,BlockProc2,Give - ?,,63,,,,,,,take,,,,,recallproc2
IS_JOL A,29,2,3,BlockProc2,Candle - ?,,44,,,,,,,wax,,,,,recallproc2
IS_JOL A,29,2,3,BlockProc2,Element - ?,,46,,,,,,,carbon,,,,,recallproc2
IS_JOL A,29,2,3,BlockProc2,Fuzzy - ?,,73,,,,,,,dog,,,,,recallproc2
IS_JOL A,29,2,3,BlockProc2,Temperature - ?,,78,,,,,,,morning,,,,,recallproc2
IS_JOL A,29,2,3,BlockProc2,Meat - ?,,66,,,,,,,,,,,,recallproc2
IS_JOL A,29,2,3,BlockProc2,Feud - ?,,18,,,,,,,fight,,,,,recallproc2
IS_JOL A,29,2,3,BlockProc2,Pop - ?,,28,,,,,,,soda,,,,,recallproc2
IS_JOL A,29,2,3,BlockProc2,Driver - ?,,11,,,,,,,car,,,,,recallproc2
IS_JOL A,29,2,3,BlockProc2,Tantrum - ?,,59,,,,,,,temper,,,,,recallproc2
IS_JOL A,29,2,3,BlockProc2,Loud - ?,,57,,,,,,,noise,,,,,recallproc2
IS_JOL A,5,1,,BlockProc1,Deaf-Mute,,2,,,,,,,,,,,,Practice1
IS_JOL A,5,1,,BlockProc1,Behavior-Social,,9,,,,,,,,,,,,Practice1
IS_JOL A,5,1,,BlockProc1,Disbelieve-Skeptic,,6,,,,,,,,,,,,Practice1
IS_JOL A,5,1,,BlockProc1,Chocolate-Bar,,7,,,,,,,,,,,,Practice1
IS_JOL A,5,1,,BlockProc1,Fashion-Model,,10,,,,,,,,,,,,Practice1
IS_JOL A,5,1,,BlockProc1,Paddle-Row,,4,,,,,,,,,,,,Practice1
IS_JOL A,5,1,,BlockProc1,Aardvark-Zoo,,1,,,,,,,,,,,,Practice1
IS_JOL A,5,1,,BlockProc1,Hinge-Swing,,5,,,,,,,,,,,,Practice1
IS_JOL A,5,1,,BlockProc1,Chime-Music,,8,,,,,,,,,,,,Practice1
IS_JOL A,5,1,,BlockProc1,Ham-Bone,,3,,,,,,,,,,,,Practice1
IS_JOL A,5,1,3,BlockProc1,Member - Group,,5,,,,,,,,,,,,StudyProc1
IS_JOL A,5,1,3,BlockProc1,Curtain - Drapes,,2,,,,,,,,,,,,StudyProc1
IS_JOL A,5,1,3,BlockProc1,Haircut-Scissors,,1,,,,,,,,,,,,StudyProc1
IS_JOL A,5,1,3,BlockProc1,Shrimp - Fish,,4,,,,,,,,,,,,StudyProc1
IS_JOL A,5,1,3,BlockProc1,Snow - Ice,,3,,,,,,,,,,,,StudyProc1
IS_JOL A,5,1,3,BlockProc1,Lift - Woman,U,64,20,4339,,,,,,,,,,StudyProc3
IS_JOL A,5,1,3,BlockProc1,Grill - Bar,S,47,95,5480,,,,,,,,,,StudyProc3
IS_JOL A,5,1,3,BlockProc1,Debate - Sight,U,68,15,4790,,,,,,,,,,StudyProc3
IS_JOL A,5,1,3,BlockProc1,Dump - Waste,S,44,40,5729,,,,,,,,,,StudyProc3
IS_JOL A,5,1,3,BlockProc1,Discover - Floor,U,66,10,8013,,,,,,,,,,StudyProc3
IS_JOL A,5,1,3,BlockProc1,Valley - Add,U,77,0,2980,,,,,,,,,,StudyProc3
IS_JOL A,5,1,3,BlockProc1,Choice - Decision,S,57,70,4513,,,,,,,,,,StudyProc3
IS_JOL A,5,1,3,BlockProc1,Fix - Hand,U,70,80,4255,,,,,,,,,,StudyProc3
IS_JOL A,5,1,3,BlockProc1,Trial - Jury,S,45,100,6296,,,,,,,,,,StudyProc3
IS_JOL A,5,1,3,BlockProc1,Sugar - Riddle,U,76,40,3669,,,,,,,,,,StudyProc3
IS_JOL A,5,1,3,BlockProc1,Location - Site,S,43,90,2574,,,,,,,,,,StudyProc3
IS_JOL A,5,1,3,BlockProc1,Happy - Car,U,72,60,6971,,,,,,,,,,StudyProc3
IS_JOL A,5,1,3,BlockProc1,Bathroom - Toilet,S,53,100,8581,,,,,,,,,,StudyProc3
IS_JOL A,5,1,3,BlockProc1,Begin - End,S,49,100,3324,,,,,,,,,,StudyProc3
IS_JOL A,5,1,3,BlockProc1,Kidney - Liver,S,48,90,2563,,,,,,,,,,StudyProc3
IS_JOL A,5,1,3,BlockProc1,King - Vase,U,80,30,3697,,,,,,,,,,StudyProc3
IS_JOL A,5,1,3,BlockProc1,Hide - Sick,U,79,20,4041,,,,,,,,,,StudyProc3
IS_JOL A,5,1,3,BlockProc1,Shoe - Foot,S,55,100,4034,,,,,,,,,,StudyProc3
IS_JOL A,5,1,3,BlockProc1,Wine - Cheese,S,52,100,7012,,,,,,,,,,StudyProc3
IS_JOL A,5,1,3,BlockProc1,Allow - Tuck,U,73,35,4108,,,,,,,,,,StudyProc3
IS_JOL A,5,1,3,BlockProc1,Due - Assignment,S,41,80,3026,,,,,,,,,,StudyProc3
IS_JOL A,5,1,3,BlockProc1,Blow - Wind,S,50,70,11100,,,,,,,,,,StudyProc3
IS_JOL A,5,1,3,BlockProc1,Circle - Round,S,60,100,4028,,,,,,,,,,StudyProc3
IS_JOL A,5,1,3,BlockProc1,Dietary - Slacking,U,62,10,8262,,,,,,,,,,StudyProc3
IS_JOL A,5,1,3,BlockProc1,Park - Hungry,U,63,25,6907,,,,,,,,,,StudyProc3
IS_JOL A,5,1,3,BlockProc1,Honey - Bee,S,58,100,2975,,,,,,,,,,StudyProc3
IS_JOL A,5,1,3,BlockProc1,Machine - Position,U,71,55,5829,,,,,,,,,,StudyProc3
IS_JOL A,5,1,3,BlockProc1,Soon - Belt,U,65,40,6172,,,,,,,,,,StudyProc3
IS_JOL A,5,1,3,BlockProc1,Past - Future,S,56,100,5150,,,,,,,,,,StudyProc3
IS_JOL A,5,1,3,BlockProc1,Death - Business,U,67,70,4058,,,,,,,,,,StudyProc3
IS_JOL A,5,1,3,BlockProc1,Baby - Child,S,59,100,2443,,,,,,,,,,StudyProc3
IS_JOL A,5,1,3,BlockProc1,Number - Amount,S,42,90,3062,,,,,,,,,,StudyProc3
IS_JOL A,5,1,3,BlockProc1,Strong - Accident,U,75,35,5735,,,,,,,,,,StudyProc3
IS_JOL A,5,1,3,BlockProc1,Lettuce - Salad,S,54,100,2764,,,,,,,,,,StudyProc3
IS_JOL A,5,1,3,BlockProc1,Pusher - Clutter,U,61,10,4018,,,,,,,,,,StudyProc3
IS_JOL A,5,1,3,BlockProc1,Pop - Soda,S,51,100,3036,,,,,,,,,,StudyProc3
IS_JOL A,5,1,3,BlockProc1,Art - Lion,U,74,20,3583,,,,,,,,,,StudyProc3
IS_JOL A,5,1,3,BlockProc1,Cash - Would,U,78,10,3324,,,,,,,,,,StudyProc3
IS_JOL A,5,1,3,BlockProc1,Architecture - Design,S,46,15,3418,,,,,,,,,,StudyProc3
IS_JOL A,5,1,3,BlockProc1,Artery - Bronze,U,69,30,7405,,,,,,,,,,StudyProc3
IS_JOL A,5,1,3,BlockProc1,Fire - Blaze,B,40,,,,,,,,,,,,StudyProc7
IS_JOL A,5,1,3,BlockProc1,Smell - Stench,B,37,,,,,,,,,,,,StudyProc7
IS_JOL A,5,1,3,BlockProc1,Great - Fantastic,B,30,,,,,,,,,,,,StudyProc7
IS_JOL A,5,1,3,BlockProc1,Discussion - Talk,F,16,,,,,,,,,,,,StudyProc7
IS_JOL A,5,1,3,BlockProc1,Plane - Pilot,B,39,,,,,,,,,,,,StudyProc7
IS_JOL A,5,1,3,BlockProc1,Credit - Card,F,18,,,,,,,,,,,,StudyProc7
IS_JOL A,5,1,3,BlockProc1,Orchid - Flower,F,19,,,,,,,,,,,,StudyProc7
IS_JOL A,5,1,3,BlockProc1,Take - Seize,B,24,,,,,,,,,,,,StudyProc7
IS_JOL A,5,1,3,BlockProc1,Bridge - Water,F,13,,,,,,,,,,,,StudyProc7
IS_JOL A,5,1,3,BlockProc1,Math - Division,B,28,,,,,,,,,,,,StudyProc7
IS_JOL A,5,1,3,BlockProc1,Key - Latch,B,31,,,,,,,,,,,,StudyProc7
IS_JOL A,5,1,3,BlockProc1,Way - Out,F,11,,,,,,,,,,,,StudyProc7
IS_JOL A,5,1,3,BlockProc1,Full - Enough,B,21,,,,,,,,,,,,StudyProc7
IS_JOL A,5,1,3,BlockProc1,Bug - Wasp,B,27,,,,,,,,,,,,StudyProc7
IS_JOL A,5,1,3,BlockProc1,Sleep - Drowsy,B,36,,,,,,,,,,,,StudyProc7
IS_JOL A,5,1,3,BlockProc1,Ball - Racket,B,33,,,,,,,,,,,,StudyProc7
IS_JOL A,5,1,3,BlockProc1,Swan - Bird,F,9,,,,,,,,,,,,StudyProc7
IS_JOL A,5,1,3,BlockProc1,Paw - Dog,F,10,,,,,,,,,,,,StudyProc7
IS_JOL A,5,1,3,BlockProc1,Work - Chore,B,34,,,,,,,,,,,,StudyProc7
IS_JOL A,5,1,3,BlockProc1,Wage - Money,F,3,,,,,,,,,,,,StudyProc7
IS_JOL A,5,1,3,BlockProc1,Drink - Sip,B,22,,,,,,,,,,,,StudyProc7
IS_JOL A,5,1,3,BlockProc1,Revolution - War,F,15,,,,,,,,,,,,StudyProc7
IS_JOL A,5,1,3,BlockProc1,Geology - Rock,F,14,,,,,,,,,,,,StudyProc7
IS_JOL A,5,1,3,BlockProc1,Chisel - Hammer,F,4,,,,,,,,,,,,StudyProc7
IS_JOL A,5,1,3,BlockProc1,Hygiene - Clean,F,12,,,,,,,,,,,,StudyProc7
IS_JOL A,5,1,3,BlockProc1,Hunger - Famine,B,35,,,,,,,,,,,,StudyProc7
IS_JOL A,5,1,3,BlockProc1,Hot - Chili,B,32,,,,,,,,,,,,StudyProc7
IS_JOL A,5,1,3,BlockProc1,Dark - Cave,B,23,,,,,,,,,,,,StudyProc7
IS_JOL A,5,1,3,BlockProc1,Bitter - Cold,F,7,,,,,,,,,,,,StudyProc7
IS_JOL A,5,1,3,BlockProc1,Sentence - Word,B,26,,,,,,,,,,,,StudyProc7
IS_JOL A,5,1,3,BlockProc1,Tuna - Fish,F,20,,,,,,,,,,,,StudyProc7
IS_JOL A,5,1,3,BlockProc1,Law - Attorney,B,29,,,,,,,,,,,,StudyProc7
IS_JOL A,5,1,3,BlockProc1,Editor - News,F,5,,,,,,,,,,,,StudyProc7
IS_JOL A,5,1,3,BlockProc1,Delinquent - Bad,F,1,,,,,,,,,,,,StudyProc7
IS_JOL A,5,1,3,BlockProc1,Height - Growth,B,25,,,,,,,,,,,,StudyProc7
IS_JOL A,5,1,3,BlockProc1,Root - Plant,F,8,,,,,,,,,,,,StudyProc7
IS_JOL A,5,1,3,BlockProc1,Herd - Cow,F,17,,,,,,,,,,,,StudyProc7
IS_JOL A,5,1,3,BlockProc1,Hornet - Sting,F,6,,,,,,,,,,,,StudyProc7
IS_JOL A,5,1,3,BlockProc1,Clothes - Attire,B,38,,,,,,,,,,,,StudyProc7
IS_JOL A,5,1,3,BlockProc1,Digestion - Stomach,F,2,,,,,,,,,,,,StudyProc7
IS_JOL A,5,1,3,BlockProc1,Geese - Goose,,1,,,,,,,,,,,,StudyProc2
IS_JOL A,5,1,3,BlockProc1,Grab - Take,,2,,,,,,,,,,,,StudyProc2
IS_JOL A,5,1,3,BlockProc1,Trees - Green,,5,,,,,,,,,,,,StudyProc2
IS_JOL A,5,1,3,BlockProc1,Friendliness - Nice,,3,,,,,,,,,,,,StudyProc2
IS_JOL A,5,1,3,BlockProc1,Catcher - Baseball,,4,,,,,,,,,,,,StudyProc2
IS_JOL A,5,1,3,BlockProc1,Dietary - ?,,62,,,,,food,5690,,,,,,recallproc1
IS_JOL A,5,1,3,BlockProc1,Math - ?,,28,,,,,divison,3536,,,,,,recallproc1
IS_JOL A,5,1,3,BlockProc1,Paw - ?,,10,,,,,dog,2407,,,,,,recallproc1
IS_JOL A,5,1,3,BlockProc1,Park - ?,,63,,,,,food,3899,,,,,,recallproc1
IS_JOL A,5,1,3,BlockProc1,Artery - ?,,69,,,,,bronze,5114,,,,,,recallproc1
IS_JOL A,5,1,3,BlockProc1,Discussion - ?,,16,,,,,talk,7336,,,,,,recallproc1
IS_JOL A,5,1,3,BlockProc1,Clothes - ?,,38,,,,,attire,5522,,,,,,recallproc1
IS_JOL A,5,1,3,BlockProc1,Digestion - ?,,2,,,,,eat,4584,,,,,,recallproc1
IS_JOL A,5,1,3,BlockProc1,Revolution - ?,,15,,,,,war,2243,,,,,,recallproc1
IS_JOL A,5,1,3,BlockProc1,Orchid - ?,,19,,,,,flower,3486,,,,,,recallproc1
IS_JOL A,5,1,3,BlockProc1,Bug - ?,,27,,,,,hornet,6911,,,,,,recallproc1
IS_JOL A,5,1,3,BlockProc1,Honey - ?,,58,,,,,bee,2218,,,,,,recallproc1
IS_JOL A,5,1,3,BlockProc1,Fix - ?,,70,,,,,,4191,,,,,,recallproc1
IS_JOL A,5,1,3,BlockProc1,Pusher - ?,,61,,,,,,1386,,,,,,recallproc1
IS_JOL A,5,1,3,BlockProc1,Past - ?,,56,,,,,future,6128,,,,,,recallproc1
IS_JOL A,5,1,3,BlockProc1,Happy - ?,,72,,,,,car,3180,,,,,,recallproc1
IS_JOL A,5,1,3,BlockProc1,Kidney - ?,,48,,,,,liver,2776,,,,,,recallproc1
IS_JOL A,5,1,3,BlockProc1,Bathroom - ?,,53,,,,,toilet,3518,,,,,,recallproc1
IS_JOL A,5,1,3,BlockProc1,Bitter - ?,,7,,,,,cold,2429,,,,,,recallproc1
IS_JOL A,5,1,3,BlockProc1,Herd - ?,,17,,,,,cow,2328,,,,,,recallproc1
IS_JOL A,5,1,3,BlockProc1,Lettuce - ?,,54,,,,,salad,6208,,,,,,recallproc1
IS_JOL A,5,1,3,BlockProc1,Architecture - ?,,46,,,,,design,4160,,,,,,recallproc1
IS_JOL A,5,1,3,BlockProc1,Art - ?,,74,,,,,,2069,,,,,,recallproc1
IS_JOL A,5,1,3,BlockProc1,Dark - ?,,23,,,,,,1879,,,,,,recallproc1
IS_JOL A,5,1,3,BlockProc1,Begin - ?,,49,,,,,end,2258,,,,,,recallproc1
IS_JOL A,5,1,3,BlockProc1,Cash - ?,,78,,,,,,1236,,,,,,recallproc1
IS_JOL A,5,1,3,BlockProc1,Plane - ?,,39,,,,,pilot,3392,,,,,,recallproc1
IS_JOL A,5,1,3,BlockProc1,Blow - ?,,50,,,,,wind,3708,,,,,,recallproc1
IS_JOL A,5,1,3,BlockProc1,Baby - ?,,59,,,,,child,3202,,,,,,recallproc1
IS_JOL A,5,1,3,BlockProc1,Credit - ?,,18,,,,,card,3087,,,,,,recallproc1
IS_JOL A,5,1,3,BlockProc1,King - ?,,80,,,,,vase,3143,,,,,,recallproc1
IS_JOL A,5,1,3,BlockProc1,Lift - ?,,64,,,,,,3350,,,,,,recallproc1
IS_JOL A,5,1,3,BlockProc1,Shoe - ?,,55,,,,,foot,2804,,,,,,recallproc1
IS_JOL A,5,1,3,BlockProc1,Wine - ?,,52,,,,,,1128,,,,,,recallproc1
IS_JOL A,5,1,3,BlockProc1,Full - ?,,21,,,,,enough,4872,,,,,,recallproc1
IS_JOL A,5,1,3,BlockProc1,Smell - ?,,37,,,,,stench,6544,,,,,,recallproc1
IS_JOL A,5,1,3,BlockProc1,Allow - ?,,73,,,,,let,2466,,,,,,recallproc1
IS_JOL A,5,1,3,BlockProc1,Hunger - ?,,35,,,,,famine,3444,,,,,,recallproc1
IS_JOL A,5,1,3,BlockProc1,Hornet - ?,,6,,,,,,3742,,,,,,recallproc1
IS_JOL A,5,1,3,BlockProc1,Discover - ?,,66,,,,,,1187,,,,,,recallproc1
IS_JOL A,5,1,3,BlockProc1,Geology - ?,,14,,,,,rock,2105,,,,,,recallproc1
IS_JOL A,5,1,3,BlockProc1,Hot - ?,,32,,,,,,1778,,,,,,recallproc1
IS_JOL A,5,1,3,BlockProc1,Choice - ?,,57,,,,,decision,6544,,,,,,recallproc1
IS_JOL A,5,1,3,BlockProc1,Delinquent - ?,,1,,,,,,1651,,,,,,recallproc1
IS_JOL A,5,1,3,BlockProc1,Death - ?,,67,,,,,business,5815,,,,,,recallproc1
IS_JOL A,5,1,3,BlockProc1,Ball - ?,,33,,,,,,1319,,,,,,recallproc1
IS_JOL A,5,1,3,BlockProc1,Tuna - ?,,20,,,,,fish,2064,,,,,,recallproc1
IS_JOL A,5,1,3,BlockProc1,Law - ?,,29,,,,,attorney,5043,,,,,,recallproc1
IS_JOL A,5,1,3,BlockProc1,Strong - ?,,75,,,,,,3283,,,,,,recallproc1
IS_JOL A,5,1,3,BlockProc1,Sentence - ?,,26,,,,,word,2380,,,,,,recallproc1
IS_JOL A,5,1,3,BlockProc1,Due - ?,,41,,,,,assignment,6777,,,,,,recallproc1
IS_JOL A,5,1,3,BlockProc1,Root - ?,,8,,,,,plant,4122,,,,,,recallproc1
IS_JOL A,5,1,3,BlockProc1,Hygiene - ?,,12,,,,,clean,4232,,,,,,recallproc1
IS_JOL A,5,1,3,BlockProc1,Grill - ?,,47,,,,,bar,2274,,,,,,recallproc1
IS_JOL A,5,1,3,BlockProc1,Sleep - ?,,36,,,,,dreary,11252,,,,,,recallproc1
IS_JOL A,5,1,3,BlockProc1,Circle - ?,,60,,,,,round,2606,,,,,,recallproc1
IS_JOL A,5,1,3,BlockProc1,Dump - ?,,44,,,,,,1002,,,,,,recallproc1
IS_JOL A,5,1,3,BlockProc1,Editor - ?,,5,,,,,news,2576,,,,,,recallproc1
IS_JOL A,5,1,3,BlockProc1,Bridge - ?,,13,,,,,water,2317,,,,,,recallproc1
IS_JOL A,5,1,3,BlockProc1,Sugar - ?,,76,,,,,,1269,,,,,,recallproc1
IS_JOL A,5,1,3,BlockProc1,Debate - ?,,68,,,,,,1448,,,,,,recallproc1
IS_JOL A,5,1,3,BlockProc1,Hide - ?,,79,,,,,,820,,,,,,recallproc1
IS_JOL A,5,1,3,BlockProc1,Drink - ?,,22,,,,,,2241,,,,,,recallproc1
IS_JOL A,5,1,3,BlockProc1,Height - ?,,25,,,,,,1476,,,,,,recallproc1
IS_JOL A,5,1,3,BlockProc1,Way - ?,,11,,,,,,1367,,,,,,recallproc1
IS_JOL A,5,1,3,BlockProc1,Great - ?,,30,,,,,,2862,,,,,,recallproc1
IS_JOL A,5,1,3,BlockProc1,Chisel - ?,,4,,,,,hammer,5032,,,,,,recallproc1
IS_JOL A,5,1,3,BlockProc1,Valley - ?,,77,,,,,,2945,,,,,,recallproc1
IS_JOL A,5,1,3,BlockProc1,Trial - ?,,45,,,,,,1847,,,,,,recallproc1
IS_JOL A,5,1,3,BlockProc1,Work - ?,,34,,,,,,4106,,,,,,recallproc1
IS_JOL A,5,1,3,BlockProc1,Pop - ?,,51,,,,,soda,11025,,,,,,recallproc1
IS_JOL A,5,1,3,BlockProc1,Wage - ?,,3,,,,,,829,,,,,,recallproc1
IS_JOL A,5,1,3,BlockProc1,Take - ?,,24,,,,,,7762,,,,,,recallproc1
IS_JOL A,5,1,3,BlockProc1,Soon - ?,,65,,,,,,1619,,,,,,recallproc1
IS_JOL A,5,1,3,BlockProc1,Key - ?,,31,,,,,,823,,,,,,recallproc1
IS_JOL A,5,1,3,BlockProc1,Machine - ?,,71,,,,,,6604,,,,,,recallproc1
IS_JOL A,5,1,3,BlockProc1,Fire - ?,,40,,,,,blaze,6421,,,,,,recallproc1
IS_JOL A,5,1,3,BlockProc1,Swan - ?,,9,,,,,,933,,,,,,recallproc1
IS_JOL A,5,1,3,BlockProc1,Number - ?,,42,,,,,,3758,,,,,,recallproc1
IS_JOL A,5,1,3,BlockProc1,Location - ?,,43,,,,,,1851,,,,,,recallproc1
IS_JOL A,5,2,3,BlockProc2,Sheriff - Police,,1,,,,,,,,,,,,StudyProc4
IS_JOL A,5,2,3,BlockProc2,Malt - Chocolate,,5,,,,,,,,,,,,StudyProc4
IS_JOL A,5,2,3,BlockProc2,Essay - Write,,4,,,,,,,,,,,,StudyProc4
IS_JOL A,5,2,3,BlockProc2,Hide - Scare,,2,,,,,,,,,,,,StudyProc4
IS_JOL A,5,2,3,BlockProc2,Disintegrate - Disappear,,3,,,,,,,,,,,,StudyProc4
IS_JOL A,5,2,3,BlockProc2,Safety - Seatbelt,S,52,,,,,,,,,,80,3292,StudyProc8
IS_JOL A,5,2,3,BlockProc2,Gone - Away,S,47,,,,,,,,,,75,4316,StudyProc8
IS_JOL A,5,2,3,BlockProc2,Own - Have,S,58,,,,,,,,,,90,2770,StudyProc8
IS_JOL A,5,2,3,BlockProc2,Name - Hate,U,72,,,,,,,,,,75,3512,StudyProc8
IS_JOL A,5,2,3,BlockProc2,Give - Steak,U,63,,,,,,,,,,20,3335,StudyProc8
IS_JOL A,5,2,3,BlockProc2,Fuzzy - Bang,U,73,,,,,,,,,,10,8317,StudyProc8
IS_JOL A,5,2,3,BlockProc2,Cake - Clothes,U,71,,,,,,,,,,10,4808,StudyProc8
IS_JOL A,5,2,3,BlockProc2,Tantrum - Temper,S,59,,,,,,,,,,80,4682,StudyProc8
IS_JOL A,5,2,3,BlockProc2,Earth - Ground,S,49,,,,,,,,,,55,3409,StudyProc8
IS_JOL A,5,2,3,BlockProc2,Razor - Shave,S,41,,,,,,,,,,95,3972,StudyProc8
IS_JOL A,5,2,3,BlockProc2,Loan - Sign,U,76,,,,,,,,,,80,4496,StudyProc8
IS_JOL A,5,2,3,BlockProc2,Vehicle - Charm,U,65,,,,,,,,,,35,5287,StudyProc8
IS_JOL A,5,2,3,BlockProc2,Main - Scar,U,80,,,,,,,,,,0,4174,StudyProc8
IS_JOL A,5,2,3,BlockProc2,Truth - Lie,S,53,,,,,,,,,,90,2777,StudyProc8
IS_JOL A,5,2,3,BlockProc2,Temperature - Morning,U,78,,,,,,,,,,65,3191,StudyProc8
IS_JOL A,5,2,3,BlockProc2,Sun - Tan,S,60,,,,,,,,,,100,3019,StudyProc8
IS_JOL A,5,2,3,BlockProc2,Element - Carbon,S,46,,,,,,,,,,75,4030,StudyProc8
IS_JOL A,5,2,3,BlockProc2,Listen - Fiction,U,69,,,,,,,,,,55,4520,StudyProc8
IS_JOL A,5,2,3,BlockProc2,Maze - Election,U,64,,,,,,,,,,10,2647,StudyProc8
IS_JOL A,5,2,3,BlockProc2,Flea - Tick,S,56,,,,,,,,,,100,2977,StudyProc8
IS_JOL A,5,2,3,BlockProc2,Crackle - Able,U,67,,,,,,,,,,20,4662,StudyProc8
IS_JOL A,5,2,3,BlockProc2,Rod - Reel,S,55,,,,,,,,,,100,2894,StudyProc8
IS_JOL A,5,2,3,BlockProc2,Rights - Equal,S,42,,,,,,,,,,85,5527,StudyProc8
IS_JOL A,5,2,3,BlockProc2,Both - Ounce,U,77,,,,,,,,,,0,2355,StudyProc8
IS_JOL A,5,2,3,BlockProc2,Moat - Clear,U,74,,,,,,,,,,0,7153,StudyProc8
IS_JOL A,5,2,3,BlockProc2,Mason - Jar,S,43,,,,,,,,,,100,3876,StudyProc8
IS_JOL A,5,2,3,BlockProc2,Keys - Joke,U,70,,,,,,,,,,40,4004,StudyProc8
IS_JOL A,5,2,3,BlockProc2,Alone - Lonely,S,50,,,,,,,,,,85,5511,StudyProc8
IS_JOL A,5,2,3,BlockProc2,Lease - Toil,U,75,,,,,,,,,,50,4052,StudyProc8
IS_JOL A,5,2,3,BlockProc2,Loud - Noise,S,57,,,,,,,,,,100,3677,StudyProc8
IS_JOL A,5,2,3,BlockProc2,Dry - Wet,S,51,,,,,,,,,,100,2630,StudyProc8
IS_JOL A,5,2,3,BlockProc2,Meat - Obtain,U,66,,,,,,,,,,50,3569,StudyProc8
IS_JOL A,5,2,3,BlockProc2,Wrist - Bracelet,S,45,,,,,,,,,,100,4286,StudyProc8
IS_JOL A,5,2,3,BlockProc2,Mirror - Children,U,79,,,,,,,,,,65,4710,StudyProc8
IS_JOL A,5,2,3,BlockProc2,Phone - Communicatio,S,54,,,,,,,,,,100,4332,StudyProc8
IS_JOL A,5,2,3,BlockProc2,Candle - Wax,S,44,,,,,,,,,,100,2417,StudyProc8
IS_JOL A,5,2,3,BlockProc2,Water - Drink,S,48,,,,,,,,,,100,3646,StudyProc8
IS_JOL A,5,2,3,BlockProc2,Stretch - Cloth,U,62,,,,,,,,,,7,1855,StudyProc8
IS_JOL A,5,2,3,BlockProc2,Shell - Shake,U,68,,,,,,,,,,1,6842,StudyProc8
IS_JOL A,5,2,3,BlockProc2,Justice - Maroon,U,61,,,,,,,,,,15,5953,StudyProc8
IS_JOL A,5,2,3,BlockProc2,Driver - Car,F,11,,,100,3453,,,,,,,,StudyProc5
IS_JOL A,5,2,3,BlockProc2,Cat - Panther,B,31,,,80,4399,,,,,,,,StudyProc5
IS_JOL A,5,2,3,BlockProc2,Scalp - Head,F,10,,,80,8370,,,,,,,,StudyProc5
IS_JOL A,5,2,3,BlockProc2,Document - Paper,F,14,,,50,3690,,,,,,,,StudyProc5
IS_JOL A,5,2,3,BlockProc2,Dead - Coffin,B,33,,,80,1922,,,,,,,,StudyProc5
IS_JOL A,5,2,3,BlockProc2,Cactus - Plant,F,3,,,60,3626,,,,,,,,StudyProc5
IS_JOL A,5,2,3,BlockProc2,Money - Banker,B,37,,,70,3372,,,,,,,,StudyProc5
IS_JOL A,5,2,3,BlockProc2,Chop - Cut,F,12,,,90,2449,,,,,,,,StudyProc5
IS_JOL A,5,2,3,BlockProc2,Furry - Dog,F,7,,,90,2780,,,,,,,,StudyProc5
IS_JOL A,5,2,3,BlockProc2,Best - Favorite,B,30,,,30,6769,,,,,,,,StudyProc5
IS_JOL A,5,2,3,BlockProc2,Fish - Sardine,B,35,,,0,7763,,,,,,,,StudyProc5
IS_JOL A,5,2,3,BlockProc2,Incense - Smell,F,15,,,60,3108,,,,,,,,StudyProc5
IS_JOL A,5,2,3,BlockProc2,Cherry - Red,F,9,,,70,2667,,,,,,,,StudyProc5
IS_JOL A,5,2,3,BlockProc2,Dine - Eat,F,16,,,80,2565,,,,,,,,StudyProc5
IS_JOL A,5,2,3,BlockProc2,Extension - Long,F,1,,,50,2579,,,,,,,,StudyProc5
IS_JOL A,5,2,3,BlockProc2,Affection - Love,F,20,,,80,2985,,,,,,,,StudyProc5
IS_JOL A,5,2,3,BlockProc2,Chill - Cold,F,19,,,60,3542,,,,,,,,StudyProc5
IS_JOL A,5,2,3,BlockProc2,Glass - Breakable,B,32,,,70,5228,,,,,,,,StudyProc5
IS_JOL A,5,2,3,BlockProc2,Mule - Donkey,F,13,,,80,2612,,,,,,,,StudyProc5
IS_JOL A,5,2,3,BlockProc2,Car - Windshield,B,22,,,60,2728,,,,,,,,StudyProc5
IS_JOL A,5,2,3,BlockProc2,Feud - Fight,F,18,,,50,5528,,,,,,,,StudyProc5
IS_JOL A,5,2,3,BlockProc2,Even - Revenge,B,27,,,70,4516,,,,,,,,StudyProc5
IS_JOL A,5,2,3,BlockProc2,Sleep - Nap,B,39,,,80,2258,,,,,,,,StudyProc5
IS_JOL A,5,2,3,BlockProc2,Shears - Scissors,F,17,,,40,2341,,,,,,,,StudyProc5
IS_JOL A,5,2,3,BlockProc2,Turn - Flip,B,21,,,30,8548,,,,,,,,StudyProc5
IS_JOL A,5,2,3,BlockProc2,Bird - Penguin,B,24,,,50,2060,,,,,,,,StudyProc5
IS_JOL A,5,2,3,BlockProc2,Adjourn - End,F,6,,,,2695,,,,,,,,StudyProc5
IS_JOL A,5,2,3,BlockProc2,Baseball - League,B,36,,,80,4240,,,,,,,,StudyProc5
IS_JOL A,5,2,3,BlockProc2,Fruit - Strawberry,B,29,,,80,3761,,,,,,,,StudyProc5
IS_JOL A,5,2,3,BlockProc2,Detective - Mystery,F,5,,,50,3150,,,,,,,,StudyProc5
IS_JOL A,5,2,3,BlockProc2,Pop - Balloon,B,28,,,70,2492,,,,,,,,StudyProc5
IS_JOL A,5,2,3,BlockProc2,Thread - Thimble,B,26,,,75,5837,,,,,,,,StudyProc5
IS_JOL A,5,2,3,BlockProc2,Clue - Game,F,2,,,85,2005,,,,,,,,StudyProc5
IS_JOL A,5,2,3,BlockProc2,Honest - Truthful,B,38,,,9,2281,,,,,,,,StudyProc5
IS_JOL A,5,2,3,BlockProc2,Shoelace - Tie,F,4,,,65,8018,,,,,,,,StudyProc5
IS_JOL A,5,2,3,BlockProc2,Plane - Aircraft,B,34,,,80,8585,,,,,,,,StudyProc5
IS_JOL A,5,2,3,BlockProc2,Fight - Brawl,B,40,,,96,3048,,,,,,,,StudyProc5
IS_JOL A,5,2,3,BlockProc2,Bad - Villain,B,23,,,90,2147,,,,,,,,StudyProc5
IS_JOL A,5,2,3,BlockProc2,Star - Actress,B,25,,,80,3738,,,,,,,,StudyProc5
IS_JOL A,5,2,3,BlockProc2,Litter - Trash,F,8,,,60,6112,,,,,,,,StudyProc5
IS_JOL A,5,2,3,BlockProc2,Contest - Competition,,5,,,,,,,,,,,,StudyProc6
IS_JOL A,5,2,3,BlockProc2,Magician - Magic,,4,,,,,,,,,,,,StudyProc6
IS_JOL A,5,2,3,BlockProc2,Deaf - Hear,,3,,,,,,,,,,,,StudyProc6
IS_JOL A,5,2,3,BlockProc2,Deciet - Cheat,,1,,,,,,,,,,,,StudyProc6
IS_JOL A,5,2,3,BlockProc2,Mind - Matter,,2,,,,,,,,,,,,StudyProc6
IS_JOL A,5,2,3,BlockProc2,Sun - ?,,60,,,,,,,,,,,,recallproc2
IS_JOL A,5,2,3,BlockProc2,Vehicle - ?,,65,,,,,,,car,,,,,recallproc2
IS_JOL A,5,2,3,BlockProc2,Bad - ?,,23,,,,,,,,,,,,recallproc2
IS_JOL A,5,2,3,BlockProc2,Thread - ?,,26,,,,,,,thimble,,,,,recallproc2
IS_JOL A,5,2,3,BlockProc2,Turn - ?,,21,,,,,,,,,,,,recallproc2
IS_JOL A,5,2,3,BlockProc2,Truth - ?,,53,,,,,,,lie,,,,,recallproc2
IS_JOL A,5,2,3,BlockProc2,Meat - ?,,66,,,,,,,,,,,,recallproc2
IS_JOL A,5,2,3,BlockProc2,Fish - ?,,35,,,,,,,sardine,,,,,recallproc2
IS_JOL A,5,2,3,BlockProc2,Tantrum - ?,,59,,,,,,,bad,,,,,recallproc2
IS_JOL A,5,2,3,BlockProc2,Cactus - ?,,3,,,,,,,plant,,,,,recallproc2
IS_JOL A,5,2,3,BlockProc2,Dine - ?,,16,,,,,,,eat,,,,,recallproc2
IS_JOL A,5,2,3,BlockProc2,Mason - ?,,43,,,,,,,jar,,,,,recallproc2
IS_JOL A,5,2,3,BlockProc2,Dead - ?,,33,,,,,,,coffin,,,,,recallproc2
IS_JOL A,5,2,3,BlockProc2,Litter - ?,,8,,,,,,,trash,,,,,recallproc2
IS_JOL A,5,2,3,BlockProc2,Alone - ?,,50,,,,,,,,,,,,recallproc2
IS_JOL A,5,2,3,BlockProc2,Dry - ?,,51,,,,,,,,,,,,recallproc2
IS_JOL A,5,2,3,BlockProc2,Mule - ?,,13,,,,,,,donkey,,,,,recallproc2
IS_JOL A,5,2,3,BlockProc2,Main - ?,,80,,,,,,,,,,,,recallproc2
IS_JOL A,5,2,3,BlockProc2,Loan - ?,,76,,,,,,,sign,,,,,recallproc2
IS_JOL A,5,2,3,BlockProc2,Feud - ?,,18,,,,,,,,,,,,recallproc2
IS_JOL A,5,2,3,BlockProc2,Cake - ?,,71,,,,,,,clothes,,,,,recallproc2
IS_JOL A,5,2,3,BlockProc2,Keys - ?,,70,,,,,,,,,,,,recallproc2
IS_JOL A,5,2,3,BlockProc2,Money - ?,,37,,,,,,,,,,,,recallproc2
IS_JOL A,5,2,3,BlockProc2,Stretch - ?,,62,,,,,,,clthe,,,,,recallproc2
IS_JOL A,5,2,3,BlockProc2,Incense - ?,,15,,,,,,,smell,,,,,recallproc2
IS_JOL A,5,2,3,BlockProc2,Flea - ?,,56,,,,,,,tick,,,,,recallproc2
IS_JOL A,5,2,3,BlockProc2,Fuzzy - ?,,73,,,,,,,dog,,,,,recallproc2
IS_JOL A,5,2,3,BlockProc2,Wrist - ?,,45,,,,,,,bracelet,,,,,recallproc2
IS_JOL A,5,2,3,BlockProc2,Cat - ?,,31,,,,,,,,,,,,recallproc2
IS_JOL A,5,2,3,BlockProc2,Shears - ?,,17,,,,,,,scissors,,,,,recallproc2
IS_JOL A,5,2,3,BlockProc2,Driver - ?,,11,,,,,,,car,,,,,recallproc2
IS_JOL A,5,2,3,BlockProc2,Clue - ?,,2,,,,,,,,,,,,recallproc2
IS_JOL A,5,2,3,BlockProc2,Glass - ?,,32,,,,,,,breakale,,,,,recallproc2
IS_JOL A,5,2,3,BlockProc2,Sleep - ?,,39,,,,,,,,,,,,recallproc2
IS_JOL A,5,2,3,BlockProc2,Earth - ?,,49,,,,,,,ground,,,,,recallproc2
IS_JOL A,5,2,3,BlockProc2,Rights - ?,,42,,,,,,,,,,,,recallproc2
IS_JOL A,5,2,3,BlockProc2,Mirror - ?,,79,,,,,,,child,,,,,recallproc2
IS_JOL A,5,2,3,BlockProc2,Adjourn - ?,,6,,,,,,,,,,,,recallproc2
IS_JOL A,5,2,3,BlockProc2,Shell - ?,,68,,,,,,,,,,,,recallproc2
IS_JOL A,5,2,3,BlockProc2,Lease - ?,,75,,,,,,,,,,,,recallproc2
IS_JOL A,5,2,3,BlockProc2,Fight - ?,,40,,,,,,,,,,,,recallproc2
IS_JOL A,5,2,3,BlockProc2,Pop - ?,,28,,,,,,,,,,,,recallproc2
IS_JOL A,5,2,3,BlockProc2,Temperature - ?,,78,,,,,,,morning,,,,,recallproc2
IS_JOL A,5,2,3,BlockProc2,Chop - ?,,12,,,,,,,cut,,,,,recallproc2
IS_JOL A,5,2,3,BlockProc2,Fruit - ?,,29,,,,,,,strawberry,,,,,recallproc2
IS_JOL A,5,2,3,BlockProc2,Furry - ?,,7,,,,,,,dog,,,,,recallproc2
IS_JOL A,5,2,3,BlockProc2,Best - ?,,30,,,,,,,,,,,,recallproc2
IS_JOL A,5,2,3,BlockProc2,Bird - ?,,24,,,,,,,,,,,,recallproc2
IS_JOL A,5,2,3,BlockProc2,Moat - ?,,74,,,,,,,,,,,,recallproc2
IS_JOL A,5,2,3,BlockProc2,Document - ?,,14,,,,,,,paper,,,,,recallproc2
IS_JOL A,5,2,3,BlockProc2,Honest - ?,,38,,,,,,,,,,,,recallproc2
IS_JOL A,5,2,3,BlockProc2,Even - ?,,27,,,,,,,,,,,,recallproc2
IS_JOL A,5,2,3,BlockProc2,Cherry - ?,,9,,,,,,,red,,,,,recallproc2
IS_JOL A,5,2,3,BlockProc2,Own - ?,,58,,,,,,,,,,,,recallproc2
IS_JOL A,5,2,3,BlockProc2,Crackle - ?,,67,,,,,,,,,,,,recallproc2
IS_JOL A,5,2,3,BlockProc2,Water - ?,,48,,,,,,,,,,,,recallproc2
IS_JOL A,5,2,3,BlockProc2,Razor - ?,,41,,,,,,,,,,,,recallproc2
IS_JOL A,5,2,3,BlockProc2,Scalp - ?,,10,,,,,,,head,,,,,recallproc2
IS_JOL A,5,2,3,BlockProc2,Candle - ?,,44,,,,,,,scent,,,,,recallproc2
IS_JOL A,5,2,3,BlockProc2,Justice - ?,,61,,,,,,,,,,,,recallproc2
IS_JOL A,5,2,3,BlockProc2,Detective - ?,,5,,,,,,,,,,,,recallproc2
IS_JOL A,5,2,3,BlockProc2,Maze - ?,,64,,,,,,,,,,,,recallproc2
IS_JOL A,5,2,3,BlockProc2,Star - ?,,25,,,,,,,,,,,,recallproc2
IS_JOL A,5,2,3,BlockProc2,Shoelace - ?,,4,,,,,,,tie,,,,,recallproc2
IS_JOL A,5,2,3,BlockProc2,Car - ?,,22,,,,,,,driver,,,,,recallproc2
IS_JOL A,5,2,3,BlockProc2,Listen - ?,,69,,,,,,,,,,,,recallproc2
IS_JOL A,5,2,3,BlockProc2,Loud - ?,,57,,,,,,,noise,,,,,recallproc2
IS_JOL A,5,2,3,BlockProc2,Extension - ?,,1,,,,,,,,,,,,recallproc2
IS_JOL A,5,2,3,BlockProc2,Chill - ?,,19,,,,,,,cold,,,,,recallproc2
IS_JOL A,5,2,3,BlockProc2,Give - ?,,63,,,,,,,,,,,,recallproc2
IS_JOL A,5,2,3,BlockProc2,Affection - ?,,20,,,,,,,,,,,,recallproc2
IS_JOL A,5,2,3,BlockProc2,Both - ?,,77,,,,,,,,,,,,recallproc2
IS_JOL A,5,2,3,BlockProc2,Rod - ?,,55,,,,,,,reel,,,,,recallproc2
IS_JOL A,5,2,3,BlockProc2,Phone - ?,,54,,,,,,,communicatio,,,,,recallproc2
IS_JOL A,5,2,3,BlockProc2,Plane - ?,,34,,,,,,,pilot,,,,,recallproc2
IS_JOL A,5,2,3,BlockProc2,Name - ?,,72,,,,,,,,,,,,recallproc2
IS_JOL A,5,2,3,BlockProc2,Gone - ?,,47,,,,,,,,,,,,recallproc2
IS_JOL A,5,2,3,BlockProc2,Baseball - ?,,36,,,,,,,league,,,,,recallproc2
IS_JOL A,5,2,3,BlockProc2,Safety - ?,,52,,,,,,,seatbelt,,,,,recallproc2
IS_JOL A,5,2,3,BlockProc2,Element - ?,,46,,,,,,,carbon,,,,,recallproc2
IS_JOL B,18,1,,BlockProc1,Chime-Music,,8,,,,,,,,,,,,Practice1
IS_JOL B,18,1,,BlockProc1,Hinge-Swing,,5,,,,,,,,,,,,Practice1
IS_JOL B,18,1,,BlockProc1,Ham-Bone,,3,,,,,,,,,,,,Practice1
IS_JOL B,18,1,,BlockProc1,Fashion-Model,,10,,,,,,,,,,,,Practice1
IS_JOL B,18,1,,BlockProc1,Paddle-Row,,4,,,,,,,,,,,,Practice1
IS_JOL B,18,1,,BlockProc1,Deaf-Mute,,2,,,,,,,,,,,,Practice1
IS_JOL B,18,1,,BlockProc1,Disbelieve-Skeptic,,6,,,,,,,,,,,,Practice1
IS_JOL B,18,1,,BlockProc1,Aardvark-Zoo,,1,,,,,,,,,,,,Practice1
IS_JOL B,18,1,,BlockProc1,Chocolate-Bar,,7,,,,,,,,,,,,Practice1
IS_JOL B,18,1,,BlockProc1,Behavior-Social,,9,,,,,,,,,,,,Practice1
IS_JOL B,18,1,3,BlockProc1,Shrimp - Fish,,4,,,,,,,,,,,,StudyProc1
IS_JOL B,18,1,3,BlockProc1,Snow - Ice,,3,,,,,,,,,,,,StudyProc1
IS_JOL B,18,1,3,BlockProc1,Haircut-Scissors,,1,,,,,,,,,,,,StudyProc1
IS_JOL B,18,1,3,BlockProc1,Curtain - Drapes,,2,,,,,,,,,,,,StudyProc1
IS_JOL B,18,1,3,BlockProc1,Member - Group,,5,,,,,,,,,,,,StudyProc1
IS_JOL B,18,1,3,BlockProc1,Cherry - Red,F,9,50,6314,,,,,,,,,,StudyProc3
IS_JOL B,18,1,3,BlockProc1,Dine - Eat,F,16,50,7068,,,,,,,,,,StudyProc3
IS_JOL B,18,1,3,BlockProc1,Litter - Trash,F,8,88,16832,,,,,,,,,,StudyProc3
IS_JOL B,18,1,3,BlockProc1,Turn - Flip,B,21,66,13997,,,,,,,,,,StudyProc3
IS_JOL B,18,1,3,BlockProc1,Clue - Game,F,2,50,23531,,,,,,,,,,StudyProc3
IS_JOL B,18,1,3,BlockProc1,Chop - Cut,F,12,43,6987,,,,,,,,,,StudyProc3
IS_JOL B,18,1,3,BlockProc1,Furry - Dog,F,7,36,10386,,,,,,,,,,StudyProc3
IS_JOL B,18,1,3,BlockProc1,Plane - Aircraft,B,34,21,5937,,,,,,,,,,StudyProc3
IS_JOL B,18,1,3,BlockProc1,Incense - Smell,F,15,24,9346,,,,,,,,,,StudyProc3
IS_JOL B,18,1,3,BlockProc1,Cat - Panther,B,31,36,14650,,,,,,,,,,StudyProc3
IS_JOL B,18,1,3,BlockProc1,Feud - Fight,F,18,58,6543,,,,,,,,,,StudyProc3
IS_JOL B,18,1,3,BlockProc1,Mule - Donkey,F,13,24,8632,,,,,,,,,,StudyProc3
IS_JOL B,18,1,3,BlockProc1,Pop - Balloon,B,28,36,4157,,,,,,,,,,StudyProc3
IS_JOL B,18,1,3,BlockProc1,Document - Paper,F,14,21,20694,,,,,,,,,,StudyProc3
IS_JOL B,18,1,3,BlockProc1,Money - Banker,B,37,10,16343,,,,,,,,,,StudyProc3
IS_JOL B,18,1,3,BlockProc1,Driver - Car,F,11,11,8904,,,,,,,,,,StudyProc3
IS_JOL B,18,1,3,BlockProc1,Detective - Mystery,F,5,10,43778,,,,,,,,,,StudyProc3
IS_JOL B,18,1,3,BlockProc1,Fight - Brawl,B,40,10,6455,,,,,,,,,,StudyProc3
IS_JOL B,18,1,3,BlockProc1,Affection - Love,F,20,10,14099,,,,,,,,,,StudyProc3
IS_JOL B,18,1,3,BlockProc1,Thread - Thimble,B,26,10,6221,,,,,,,,,,StudyProc3
IS_JOL B,18,1,3,BlockProc1,Baseball - League,B,36,10,8003,,,,,,,,,,StudyProc3
IS_JOL B,18,1,3,BlockProc1,Cactus - Plant,F,3,10,17265,,,,,,,,,,StudyProc3
IS_JOL B,18,1,3,BlockProc1,Honest - Truthful,B,38,10,18077,,,,,,,,,,StudyProc3
IS_JOL B,18,1,3,BlockProc1,Chill - Cold,F,19,10,9079,,,,,,,,,,StudyProc3
IS_JOL B,18,1,3,BlockProc1,Extension - Long,F,1,23,7371,,,,,,,,,,StudyProc3
IS_JOL B,18,1,3,BlockProc1,Shoelace - Tie,F,4,11,6770,,,,,,,,,,StudyProc3
IS_JOL B,18,1,3,BlockProc1,Fruit - Strawberry,B,29,22,5970,,,,,,,,,,StudyProc3
IS_JOL B,18,1,3,BlockProc1,Scalp - Head,F,10,10,8193,,,,,,,,,,StudyProc3
IS_JOL B,18,1,3,BlockProc1,Fish - Sardine,B,35,30,11272,,,,,,,,,,StudyProc3
IS_JOL B,18,1,3,BlockProc1,Adjourn - End,F,6,1,6948,,,,,,,,,,StudyProc3
IS_JOL B,18,1,3,BlockProc1,Dead - Coffin,B,33,10,9404,,,,,,,,,,StudyProc3
IS_JOL B,18,1,3,BlockProc1,Bird - Penguin,B,24,10,5634,,,,,,,,,,StudyProc3
IS_JOL B,18,1,3,BlockProc1,Car - Windshield,B,22,20,8032,,,,,,,,,,StudyProc3
IS_JOL B,18,1,3,BlockProc1,Best - Favorite,B,30,5,11741,,,,,,,,,,StudyProc3
IS_JOL B,18,1,3,BlockProc1,Star - Actress,B,25,10,9766,,,,,,,,,,StudyProc3
IS_JOL B,18,1,3,BlockProc1,Even - Revenge,B,27,100,9262,,,,,,,,,,StudyProc3
IS_JOL B,18,1,3,BlockProc1,Shears - Scissors,F,17,12,8234,,,,,,,,,,StudyProc3
IS_JOL B,18,1,3,BlockProc1,Bad - Villain,B,23,5,11008,,,,,,,,,,StudyProc3
IS_JOL B,18,1,3,BlockProc1,Glass - Breakable,B,32,30,14757,,,,,,,,,,StudyProc3
IS_JOL B,18,1,3,BlockProc1,Sleep - Nap,B,39,,37,,,,,,,,,,StudyProc3
IS_JOL B,18,1,3,BlockProc1,Razor - Shave,S,41,,,,,,,,60,17613,,,StudyProc7
IS_JOL B,18,1,3,BlockProc1,Moat - Clear,U,74,,,,,,,,10,3754,,,StudyProc7
IS_JOL B,18,1,3,BlockProc1,Own - Have,S,58,,,,,,,,20,17107,,,StudyProc7
IS_JOL B,18,1,3,BlockProc1,Mason - Jar,S,43,,,,,,,,10,9828,,,StudyProc7
IS_JOL B,18,1,3,BlockProc1,Mirror - Children,U,79,,,,,,,,30,14170,,,StudyProc7
IS_JOL B,18,1,3,BlockProc1,Candle - Wax,S,44,,,,,,,,20,13280,,,StudyProc7
IS_JOL B,18,1,3,BlockProc1,Name - Hate,U,72,,,,,,,,20,8076,,,StudyProc7
IS_JOL B,18,1,3,BlockProc1,Cake - Clothes,U,71,,,,,,,,10,35047,,,StudyProc7
IS_JOL B,18,1,3,BlockProc1,Loud - Noise,S,57,,,,,,,,50,6635,,,StudyProc7
IS_JOL B,18,1,3,BlockProc1,Maze - Election,U,64,,,,,,,,5,3951,,,StudyProc7
IS_JOL B,18,1,3,BlockProc1,Water - Drink,S,48,,,,,,,,70,13087,,,StudyProc7
IS_JOL B,18,1,3,BlockProc1,Element - Carbon,S,46,,,,,,,,20,10818,,,StudyProc7
IS_JOL B,18,1,3,BlockProc1,Lease - Toil,U,75,,,,,,,,4,6047,,,StudyProc7
IS_JOL B,18,1,3,BlockProc1,Justice - Maroon,U,61,,,,,,,,60,10636,,,StudyProc7
IS_JOL B,18,1,3,BlockProc1,Listen - Fiction,U,69,,,,,,,,8,13920,,,StudyProc7
IS_JOL B,18,1,3,BlockProc1,Keys - Joke,U,70,,,,,,,,2,10322,,,StudyProc7
IS_JOL B,18,1,3,BlockProc1,Flea - Tick,S,56,,,,,,,,60,7555,,,StudyProc7
IS_JOL B,18,1,3,BlockProc1,Crackle - Able,U,67,,,,,,,,6,3379,,,StudyProc7
IS_JOL B,18,1,3,BlockProc1,Vehicle - Charm,U,65,,,,,,,,1,15275,,,StudyProc7
IS_JOL B,18,1,3,BlockProc1,Truth - Lie,S,53,,,,,,,,80,9494,,,StudyProc7
IS_JOL B,18,1,3,BlockProc1,Loan - Sign,U,76,,,,,,,,17,23384,,,StudyProc7
IS_JOL B,18,1,3,BlockProc1,Main - Scar,U,80,,,,,,,,21,15007,,,StudyProc7
IS_JOL B,18,1,3,BlockProc1,Safety - Seatbelt,S,52,,,,,,,,60,7829,,,StudyProc7
IS_JOL B,18,1,3,BlockProc1,Gone - Away,S,47,,,,,,,,12,5706,,,StudyProc7
IS_JOL B,18,1,3,BlockProc1,Phone - Communicatio,S,54,,,,,,,,40,9780,,,StudyProc7
IS_JOL B,18,1,3,BlockProc1,Give - Steak,U,63,,,,,,,,6,26332,,,StudyProc7
IS_JOL B,18,1,3,BlockProc1,Meat - Obtain,U,66,,,,,,,,3,8860,,,StudyProc7
IS_JOL B,18,1,3,BlockProc1,Stretch - Cloth,U,62,,,,,,,,12,8296,,,StudyProc7
IS_JOL B,18,1,3,BlockProc1,Earth - Ground,S,49,,,,,,,,56,4843,,,StudyProc7
IS_JOL B,18,1,3,BlockProc1,Tantrum - Temper,S,59,,,,,,,,80,31240,,,StudyProc7
IS_JOL B,18,1,3,BlockProc1,Both - Ounce,U,77,,,,,,,,10,6003,,,StudyProc7
IS_JOL B,18,1,3,BlockProc1,Shell - Shake,U,68,,,,,,,,10,17569,,,StudyProc7
IS_JOL B,18,1,3,BlockProc1,Fuzzy - Bang,U,73,,,,,,,,3,34768,,,StudyProc7
IS_JOL B,18,1,3,BlockProc1,Wrist - Bracelet,S,45,,,,,,,,60,15662,,,StudyProc7
IS_JOL B,18,1,3,BlockProc1,Rights - Equal,S,42,,,,,,,,30,22362,,,StudyProc7
IS_JOL B,18,1,3,BlockProc1,Sun - Tan,S,60,,,,,,,,99,16537,,,StudyProc7
IS_JOL B,18,1,3,BlockProc1,Alone - Lonely,S,50,,,,,,,,20,14081,,,StudyProc7
IS_JOL B,18,1,3,BlockProc1,Dry - Wet,S,51,,,,,,,,60,18988,,,StudyProc7
IS_JOL B,18,1,3,BlockProc1,Rod - Reel,S,55,,,,,,,,3,19730,,,StudyProc7
IS_JOL B,18,1,3,BlockProc1,Temperature - Morning,U,78,,,,,,,,30,29019,,,StudyProc7
IS_JOL B,18,1,3,BlockProc1,Trees - Green,,5,,,,,,,,,,,,StudyProc2
IS_JOL B,18,1,3,BlockProc1,Grab - Take,,2,,,,,,,,,,,,StudyProc2
IS_JOL B,18,1,3,BlockProc1,Geese - Goose,,1,,,,,,,,,,,,StudyProc2
IS_JOL B,18,1,3,BlockProc1,Catcher - Baseball,,4,,,,,,,,,,,,StudyProc2
IS_JOL B,18,1,3,BlockProc1,Friendliness - Nice,,3,,,,,,,,,,,,StudyProc2
IS_JOL B,18,1,3,BlockProc1,Cake - ?,,71,,,,,cloth,8108,,,,,,recallproc1
IS_JOL B,18,1,3,BlockProc1,Cat - ?,,31,,,,,dog,15158,,,,,,recallproc1
IS_JOL B,18,1,3,BlockProc1,Plane - ?,,34,,,,,aircraft,8613,,,,,,recallproc1
IS_JOL B,18,1,3,BlockProc1,Listen - ?,,69,,,,,music,13547,,,,,,recallproc1
IS_JOL B,18,1,3,BlockProc1,Baseball - ?,,36,,,,,catcher,5228,,,,,,recallproc1
IS_JOL B,18,1,3,BlockProc1,Mule - ?,,13,,,,,donkey,2762,,,,,,recallproc1
IS_JOL B,18,1,3,BlockProc1,Dead - ?,,33,,,,,coffin,9786,,,,,,recallproc1
IS_JOL B,18,1,3,BlockProc1,Driver - ?,,11,,,,,car,2833,,,,,,recallproc1
IS_JOL B,18,1,3,BlockProc1,Bird - ?,,24,,,,,leaf,4894,,,,,,recallproc1
IS_JOL B,18,1,3,BlockProc1,Mirror - ?,,79,,,,,children,5001,,,,,,recallproc1
IS_JOL B,18,1,3,BlockProc1,Own - ?,,58,,,,,have,3712,,,,,,recallproc1
IS_JOL B,18,1,3,BlockProc1,Main - ?,,80,,,,,scar,7578,,,,,,recallproc1
IS_JOL B,18,1,3,BlockProc1,Shell - ?,,68,,,,,shake,3498,,,,,,recallproc1
IS_JOL B,18,1,3,BlockProc1,Phone - ?,,54,,,,,communicatio,13693,,,,,,recallproc1
IS_JOL B,18,1,3,BlockProc1,Affection - ?,,20,,,,,love,2071,,,,,,recallproc1
IS_JOL B,18,1,3,BlockProc1,Fuzzy - ?,,73,,,,,animal,15011,,,,,,recallproc1
IS_JOL B,18,1,3,BlockProc1,Document - ?,,14,,,,,paper,2457,,,,,,recallproc1
IS_JOL B,18,1,3,BlockProc1,Alone - ?,,50,,,,,lonely,2869,,,,,,recallproc1
IS_JOL B,18,1,3,BlockProc1,Flea - ?,,56,,,,,tick,2113,,,,,,recallproc1
IS_JOL B,18,1,3,BlockProc1,Turn - ?,,21,,,,,flip,2796,,,,,,recallproc1
IS_JOL B,18,1,3,BlockProc1,Cherry - ?,,9,,,,,red,2571,,,,,,recallproc1
IS_JOL B,18,1,3,BlockProc1,Cactus - ?,,3,,,,,flower,3875,,,,,,recallproc1
IS_JOL B,18,1,3,BlockProc1,Rights - ?,,42,,,,,equal,6198,,,,,,recallproc1
IS_JOL B,18,1,3,BlockProc1,Chill - ?,,19,,,,,cold,6637,,,,,,recallproc1
IS_JOL B,18,1,3,BlockProc1,Bad - ?,,23,,,,,good,4482,,,,,,recallproc1
IS_JOL B,18,1,3,BlockProc1,Car - ?,,22,,,,,windshield,20558,,,,,,recallproc1
IS_JOL B,18,1,3,BlockProc1,Safety - ?,,52,,,,,seatbelt,6725,,,,,,recallproc1
IS_JOL B,18,1,3,BlockProc1,Detective - ?,,5,,,,,spy,5639,,,,,,recallproc1
IS_JOL B,18,1,3,BlockProc1,Dry - ?,,51,,,,,wet,2276,,,,,,recallproc1
IS_JOL B,18,1,3,BlockProc1,Honest - ?,,38,,,,,truthful,6759,,,,,,recallproc1
IS_JOL B,18,1,3,BlockProc1,Razor - ?,,41,,,,,leg,21624,,,,,,recallproc1
IS_JOL B,18,1,3,BlockProc1,Money - ?,,37,,,,,check,19348,,,,,,recallproc1
IS_JOL B,18,1,3,BlockProc1,Even - ?,,27,,,,,odd,2060,,,,,,recallproc1
IS_JOL B,18,1,3,BlockProc1,Justice - ?,,61,,,,,rights,6041,,,,,,recallproc1
IS_JOL B,18,1,3,BlockProc1,Water - ?,,48,,,,,fire,5350,,,,,,recallproc1
IS_JOL B,18,1,3,BlockProc1,Incense - ?,,15,,,,,smell,2175,,,,,,recallproc1
IS_JOL B,18,1,3,BlockProc1,Meat - ?,,66,,,,,loaf,6630,,,,,,recallproc1
IS_JOL B,18,1,3,BlockProc1,Scalp - ?,,10,,,,,head,4300,,,,,,recallproc1
IS_JOL B,18,1,3,BlockProc1,Earth - ?,,49,,,,,ground,2671,,,,,,recallproc1
IS_JOL B,18,1,3,BlockProc1,Furry - ?,,7,,,,,dog,5475,,,,,,recallproc1
IS_JOL B,18,1,3,BlockProc1,Litter - ?,,8,,,,,trash,2487,,,,,,recallproc1
IS_JOL B,18,1,3,BlockProc1,Fruit - ?,,29,,,,,strawberry,3762,,,,,,recallproc1
IS_JOL B,18,1,3,BlockProc1,Sun - ?,,60,,,,,tan,2346,,,,,,recallproc1
IS_JOL B,18,1,3,BlockProc1,Keys - ?,,70,,,,,music,14411,,,,,,recallproc1
IS_JOL B,18,1,3,BlockProc1,Truth - ?,,53,,,,,lie,6793,,,,,,recallproc1
IS_JOL B,18,1,3,BlockProc1,Give - ?,,63,,,,,take,2568,,,,,,recallproc1
IS_JOL B,18,1,3,BlockProc1,Name - ?,,72,,,,,hannah,5904,,,,,,recallproc1
IS_JOL B,18,1,3,BlockProc1,Clue - ?,,2,,,,,game,3490,,,,,,recallproc1
IS_JOL B,18,1,3,BlockProc1,Feud - ?,,18,,,,,argue,3861,,,,,,recallproc1
IS_JOL B,18,1,3,BlockProc1,Loan - ?,,76,,,,,sign,5545,,,,,,recallproc1
IS_JOL B,18,1,3,BlockProc1,Fight - ?,,40,,,,,brawl,5306,,,,,,recallproc1
IS_JOL B,18,1,3,BlockProc1,Loud - ?,,57,,,,,noise,4837,,,,,,recallproc1
IS_JOL B,18,1,3,BlockProc1,Lease - ?,,75,,,,,most,24418,,,,,,recallproc1
IS_JOL B,18,1,3,BlockProc1,Tantrum - ?,,59,,,,,temper,2895,,,,,,recallproc1
IS_JOL B,18,1,3,BlockProc1,Candle - ?,,44,,,,,wax,2122,,,,,,recallproc1
IS_JOL B,18,1,3,BlockProc1,Best - ?,,30,,,,,favorite,7908,,,,,,recallproc1
IS_JOL B,18,1,3,BlockProc1,Extension - ?,,1,,,,,long,13862,,,,,,recallproc1
IS_JOL B,18,1,3,BlockProc1,Glass - ?,,32,,,,,shatter,6138,,,,,,recallproc1
IS_JOL B,18,1,3,BlockProc1,Mason - ?,,43,,,,,jar,1795,,,,,,recallproc1
IS_JOL B,18,1,3,BlockProc1,Pop - ?,,28,,,,,noise,6410,,,,,,recallproc1
IS_JOL B,18,1,3,BlockProc1,Adjourn - ?,,6,,,,,close,8008,,,,,,recallproc1
IS_JOL B,18,1,3,BlockProc1,Element - ?,,46,,,,,carbon,3894,,,,,,recallproc1
IS_JOL B,18,1,3,BlockProc1,Temperature - ?,,78,,,,,morning,3705,,,,,,recallproc1
IS_JOL B,18,1,3,BlockProc1,Shoelace - ?,,4,,,,,tie,1796,,,,,,recallproc1
IS_JOL B,18,1,3,BlockProc1,Star - ?,,25,,,,,actress,3707,,,,,,recallproc1
IS_JOL B,18,1,3,BlockProc1,Moat - ?,,74,,,,,boat,3813,,,,,,recallproc1
IS_JOL B,18,1,3,BlockProc1,Stretch - ?,,62,,,,,leg,4332,,,,,,recallproc1
IS_JOL B,18,1,3,BlockProc1,Rod - ?,,55,,,,,reele,3485,,,,,,recallproc1
IS_JOL B,18,1,3,BlockProc1,Gone - ?,,47,,,,,away,2224,,,,,,recallproc1
IS_JOL B,18,1,3,BlockProc1,Sleep - ?,,39,,,,,awake,6102,,,,,,recallproc1
IS_JOL B,18,1,3,BlockProc1,Vehicle - ?,,65,,,,,transportation,6625,,,,,,recallproc1
IS_JOL B,18,1,3,BlockProc1,Fish - ?,,35,,,,,eel,18710,,,,,,recallproc1
IS_JOL B,18,1,3,BlockProc1,Crackle - ?,,67,,,,,sound,5368,,,,,,recallproc1
IS_JOL B,18,1,3,BlockProc1,Dine - ?,,16,,,,,dinner,9152,,,,,,recallproc1
IS_JOL B,18,1,3,BlockProc1,Both - ?,,77,,,,,together,7680,,,,,,recallproc1
IS_JOL B,18,1,3,BlockProc1,Wrist - ?,,45,,,,,bracelet,3195,,,,,,recallproc1
IS_JOL B,18,1,3,BlockProc1,Thread - ?,,26,,,,,thumb,4250,,,,,,recallproc1
IS_JOL B,18,1,3,BlockProc1,Maze - ?,,64,,,,,money,8688,,,,,,recallproc1
IS_JOL B,18,1,3,BlockProc1,Shears - ?,,17,,,,,scissors,6338,,,,,,recallproc1
IS_JOL B,18,1,3,BlockProc1,Chop - ?,,12,,,,,sound,4259,,,,,,recallproc1
IS_JOL B,18,2,3,BlockProc2,Disintegrate - Disappear,,3,,,,,,,,,,,,StudyProc4
IS_JOL B,18,2,3,BlockProc2,Essay - Write,,4,,,,,,,,,,,,StudyProc4
IS_JOL B,18,2,3,BlockProc2,Hide - Scare,,2,,,,,,,,,,,,StudyProc4
IS_JOL B,18,2,3,BlockProc2,Malt - Chocolate,,5,,,,,,,,,,,,StudyProc4
IS_JOL B,18,2,3,BlockProc2,Sheriff - Police,,1,,,,,,,,,,,,StudyProc4
IS_JOL B,18,2,3,BlockProc2,Wage - Money,F,3,,,9,12621,,,,,,,,StudyProc5
IS_JOL B,18,2,3,BlockProc2,Sentence - Word,B,26,,,20,10178,,,,,,,,StudyProc5
IS_JOL B,18,2,3,BlockProc2,Hygiene - Clean,F,12,,,22,20058,,,,,,,,StudyProc5
IS_JOL B,18,2,3,BlockProc2,Way - Out,F,11,,,12,18837,,,,,,,,StudyProc5
IS_JOL B,18,2,3,BlockProc2,Plane - Pilot,B,39,,,65,10289,,,,,,,,StudyProc5
IS_JOL B,18,2,3,BlockProc2,Hornet - Sting,F,6,,,85,5188,,,,,,,,StudyProc5
IS_JOL B,18,2,3,BlockProc2,Delinquent - Bad,F,1,,,25,16371,,,,,,,,StudyProc5
IS_JOL B,18,2,3,BlockProc2,Bug - Wasp,B,27,,,8,17938,,,,,,,,StudyProc5
IS_JOL B,18,2,3,BlockProc2,Tuna - Fish,F,20,,,66,9794,,,,,,,,StudyProc5
IS_JOL B,18,2,3,BlockProc2,Paw - Dog,F,10,,,45,6280,,,,,,,,StudyProc5
IS_JOL B,18,2,3,BlockProc2,Chisel - Hammer,F,4,,,5,9356,,,,,,,,StudyProc5
IS_JOL B,18,2,3,BlockProc2,Swan - Bird,F,9,,,56,15092,,,,,,,,StudyProc5
IS_JOL B,18,2,3,BlockProc2,Take - Seize,B,24,,,4,10534,,,,,,,,StudyProc5
IS_JOL B,18,2,3,BlockProc2,Bitter - Cold,F,7,,,9,20112,,,,,,,,StudyProc5
IS_JOL B,18,2,3,BlockProc2,Height - Growth,B,25,,,6,15433,,,,,,,,StudyProc5
IS_JOL B,18,2,3,BlockProc2,Digestion - Stomach,F,2,,,42,7502,,,,,,,,StudyProc5
IS_JOL B,18,2,3,BlockProc2,Root - Plant,F,8,,,69,9536,,,,,,,,StudyProc5
IS_JOL B,18,2,3,BlockProc2,Math - Division,B,28,,,85,13281,,,,,,,,StudyProc5
IS_JOL B,18,2,3,BlockProc2,Editor - News,F,5,,,24,19868,,,,,,,,StudyProc5
IS_JOL B,18,2,3,BlockProc2,Hot - Chili,B,32,,,45,15199,,,,,,,,StudyProc5
IS_JOL B,18,2,3,BlockProc2,Drink - Sip,B,22,,,55,14125,,,,,,,,StudyProc5
IS_JOL B,18,2,3,BlockProc2,Law - Attorney,B,29,,,44,15879,,,,,,,,StudyProc5
IS_JOL B,18,2,3,BlockProc2,Clothes - Attire,B,38,,,23,12873,,,,,,,,StudyProc5
IS_JOL B,18,2,3,BlockProc2,Geology - Rock,F,14,,,25,11493,,,,,,,,StudyProc5
IS_JOL B,18,2,3,BlockProc2,Great - Fantastic,B,30,,,63,10023,,,,,,,,StudyProc5
IS_JOL B,18,2,3,BlockProc2,Herd - Cow,F,17,,,89,9588,,,,,,,,StudyProc5
IS_JOL B,18,2,3,BlockProc2,Full - Enough,B,21,,,42,6355,,,,,,,,StudyProc5
IS_JOL B,18,2,3,BlockProc2,Discussion - Talk,F,16,,,20,16963,,,,,,,,StudyProc5
IS_JOL B,18,2,3,BlockProc2,Ball - Racket,B,33,,,10,8555,,,,,,,,StudyProc5
IS_JOL B,18,2,3,BlockProc2,Dark - Cave,B,23,,,15,8851,,,,,,,,StudyProc5
IS_JOL B,18,2,3,BlockProc2,Smell - Stench,B,37,,,25,10848,,,,,,,,StudyProc5
IS_JOL B,18,2,3,BlockProc2,Orchid - Flower,F,19,,,13,4780,,,,,,,,StudyProc5
IS_JOL B,18,2,3,BlockProc2,Revolution - War,F,15,,,23,4028,,,,,,,,StudyProc5
IS_JOL B,18,2,3,BlockProc2,Key - Latch,B,31,,,3,5914,,,,,,,,StudyProc5
IS_JOL B,18,2,3,BlockProc2,Sleep - Drowsy,B,36,,,10,11948,,,,,,,,StudyProc5
IS_JOL B,18,2,3,BlockProc2,Bridge - Water,F,13,,,53,5965,,,,,,,,StudyProc5
IS_JOL B,18,2,3,BlockProc2,Fire - Blaze,B,40,,,13,7229,,,,,,,,StudyProc5
IS_JOL B,18,2,3,BlockProc2,Work - Chore,B,34,,,10,9178,,,,,,,,StudyProc5
IS_JOL B,18,2,3,BlockProc2,Credit - Card,F,18,,,88,11466,,,,,,,,StudyProc5
IS_JOL B,18,2,3,BlockProc2,Hunger - Famine,B,35,,,40,11838,,,,,,,,StudyProc5
IS_JOL B,18,2,3,BlockProc2,Honey - Bee,S,58,,,,,,,,,,,,StudyProc8
IS_JOL B,18,2,3,BlockProc2,Fix - Hand,U,70,,,,,,,,,,,,StudyProc8
IS_JOL B,18,2,3,BlockProc2,Happy - Car,U,72,,,,,,,,,,,,StudyProc8
IS_JOL B,18,2,3,BlockProc2,Cash - Would,U,78,,,,,,,,,,,,StudyProc8
IS_JOL B,18,2,3,BlockProc2,Pop - Soda,S,51,,,,,,,,,,,,StudyProc8
IS_JOL B,18,2,3,BlockProc2,Choice - Decision,S,57,,,,,,,,,,,,StudyProc8
IS_JOL B,18,2,3,BlockProc2,Past - Future,S,56,,,,,,,,,,,,StudyProc8
IS_JOL B,18,2,3,BlockProc2,Location - Site,S,43,,,,,,,,,,,,StudyProc8
IS_JOL B,18,2,3,BlockProc2,Number - Amount,S,42,,,,,,,,,,,,StudyProc8
IS_JOL B,18,2,3,BlockProc2,Circle - Round,S,60,,,,,,,,,,,,StudyProc8
IS_JOL B,18,2,3,BlockProc2,Begin - End,S,49,,,,,,,,,,,,StudyProc8
IS_JOL B,18,2,3,BlockProc2,Lettuce - Salad,S,54,,,,,,,,,,,,StudyProc8
IS_JOL B,18,2,3,BlockProc2,Dump - Waste,S,44,,,,,,,,,,,,StudyProc8
IS_JOL B,18,2,3,BlockProc2,Sugar - Riddle,U,76,,,,,,,,,,,,StudyProc8
IS_JOL B,18,2,3,BlockProc2,Machine - Position,U,71,,,,,,,,,,,,StudyProc8
IS_JOL B,18,2,3,BlockProc2,Allow - Tuck,U,73,,,,,,,,,,,,StudyProc8
IS_JOL B,18,2,3,BlockProc2,Shoe - Foot,S,55,,,,,,,,,,,,StudyProc8
IS_JOL B,18,2,3,BlockProc2,Baby - Child,S,59,,,,,,,,,,,,StudyProc8
IS_JOL B,18,2,3,BlockProc2,Discover - Floor,U,66,,,,,,,,,,,,StudyProc8
IS_JOL B,18,2,3,BlockProc2,Soon - Belt,U,65,,,,,,,,,,,,StudyProc8
IS_JOL B,18,2,3,BlockProc2,Wine - Cheese,S,52,,,,,,,,,,,,StudyProc8
IS_JOL B,18,2,3,BlockProc2,Hide - Sick,U,79,,,,,,,,,,,,StudyProc8
IS_JOL B,18,2,3,BlockProc2,Kidney - Liver,S,48,,,,,,,,,,,,StudyProc8
IS_JOL B,18,2,3,BlockProc2,Park - Hungry,U,63,,,,,,,,,,,,StudyProc8
IS_JOL B,18,2,3,BlockProc2,Blow - Wind,S,50,,,,,,,,,,,,StudyProc8
IS_JOL B,18,2,3,BlockProc2,Death - Business,U,67,,,,,,,,,,,,StudyProc8
IS_JOL B,18,2,3,BlockProc2,Grill - Bar,S,47,,,,,,,,,,,,StudyProc8
IS_JOL B,18,2,3,BlockProc2,Pusher - Clutter,U,61,,,,,,,,,,,,StudyProc8
IS_JOL B,18,2,3,BlockProc2,Architecture - Design,S,46,,,,,,,,,,,,StudyProc8
IS_JOL B,18,2,3,BlockProc2,Lift - Woman,U,64,,,,,,,,,,,,StudyProc8
IS_JOL B,18,2,3,BlockProc2,Bathroom - Toilet,S,53,,,,,,,,,,,,StudyProc8
IS_JOL B,18,2,3,BlockProc2,Due - Assignment,S,41,,,,,,,,,,,,StudyProc8
IS_JOL B,18,2,3,BlockProc2,Dietary - Slacking,U,62,,,,,,,,,,,,StudyProc8
IS_JOL B,18,2,3,BlockProc2,Trial - Jury,S,45,,,,,,,,,,,,StudyProc8
IS_JOL B,18,2,3,BlockProc2,Art - Lion,U,74,,,,,,,,,,,,StudyProc8
IS_JOL B,18,2,3,BlockProc2,Strong - Accident,U,75,,,,,,,,,,,,StudyProc8
IS_JOL B,18,2,3,BlockProc2,Debate - Sight,U,68,,,,,,,,,,,,StudyProc8
IS_JOL B,18,2,3,BlockProc2,King - Vase,U,80,,,,,,,,,,,,StudyProc8
IS_JOL B,18,2,3,BlockProc2,Valley - Add,U,77,,,,,,,,,,,,StudyProc8
IS_JOL B,18,2,3,BlockProc2,Artery - Bronze,U,69,,,,,,,,,,,,StudyProc8
IS_JOL B,18,2,3,BlockProc2,Deaf - Hear,,3,,,,,,,,,,,,StudyProc6
IS_JOL B,18,2,3,BlockProc2,Magician - Magic,,4,,,,,,,,,,,,StudyProc6
IS_JOL B,18,2,3,BlockProc2,Contest - Competition,,5,,,,,,,,,,,,StudyProc6
IS_JOL B,18,2,3,BlockProc2,Mind - Matter,,2,,,,,,,,,,,,StudyProc6
IS_JOL B,18,2,3,BlockProc2,Deciet - Cheat,,1,,,,,,,,,,,,StudyProc6
IS_JOL B,18,2,3,BlockProc2,Strong - ?,,75,,,,,,,weak,,,,,recallproc2
IS_JOL B,18,2,3,BlockProc2,Great - ?,,30,,,,,,,excellnt,,,,,recallproc2
IS_JOL B,18,2,3,BlockProc2,Hunger - ?,,35,,,,,,,park,,,,,recallproc2
IS_JOL B,18,2,3,BlockProc2,Architecture - ?,,46,,,,,,,design,,,,,recallproc2
IS_JOL B,18,2,3,BlockProc2,Hot - ?,,32,,,,,,,chili,,,,,recallproc2
IS_JOL B,18,2,3,BlockProc2,Take - ?,,24,,,,,,,have,,,,,recallproc2
IS_JOL B,18,2,3,BlockProc2,Full - ?,,21,,,,,,,enough,,,,,recallproc2
IS_JOL B,18,2,3,BlockProc2,Pop - ?,,51,,,,,,,poke,,,,,recallproc2
IS_JOL B,18,2,3,BlockProc2,Cash - ?,,78,,,,,,,would,,,,,recallproc2
IS_JOL B,18,2,3,BlockProc2,Fire - ?,,40,,,,,,,blaze,,,,,recallproc2
IS_JOL B,18,2,3,BlockProc2,Sugar - ?,,76,,,,,,,sweet,,,,,recallproc2
IS_JOL B,18,2,3,BlockProc2,Herd - ?,,17,,,,,,,cow,,,,,recallproc2
IS_JOL B,18,2,3,BlockProc2,Lettuce - ?,,54,,,,,,,salad,,,,,recallproc2
IS_JOL B,18,2,3,BlockProc2,Kidney - ?,,48,,,,,,,liver,,,,,recallproc2
IS_JOL B,18,2,3,BlockProc2,Wine - ?,,52,,,,,,,cheese,,,,,recallproc2
IS_JOL B,18,2,3,BlockProc2,Dark - ?,,23,,,,,,,night,,,,,recallproc2
IS_JOL B,18,2,3,BlockProc2,Dump - ?,,44,,,,,,,trash,,,,,recallproc2
IS_JOL B,18,2,3,BlockProc2,Tuna - ?,,20,,,,,,,fish,,,,,recallproc2
IS_JOL B,18,2,3,BlockProc2,Chisel - ?,,4,,,,,,,hammer,,,,,recallproc2
IS_JOL B,18,2,3,BlockProc2,Bug - ?,,27,,,,,,,wasp,,,,,recallproc2
IS_JOL B,18,2,3,BlockProc2,Way - ?,,11,,,,,,,out,,,,,recallproc2
IS_JOL B,18,2,3,BlockProc2,Lift - ?,,64,,,,,,,woman,,,,,recallproc2
IS_JOL B,18,2,3,BlockProc2,Soon - ?,,65,,,,,,,coming,,,,,recallproc2
IS_JOL B,18,2,3,BlockProc2,Discussion - ?,,16,,,,,,,talk,,,,,recallproc2
IS_JOL B,18,2,3,BlockProc2,Bitter - ?,,7,,,,,,,name,,,,,recallproc2
IS_JOL B,18,2,3,BlockProc2,Paw - ?,,10,,,,,,,dogg,,,,,recallproc2
IS_JOL B,18,2,3,BlockProc2,Law - ?,,29,,,,,,,court,,,,,recallproc2
IS_JOL B,18,2,3,BlockProc2,Choice - ?,,57,,,,,,,decision,,,,,recallproc2
IS_JOL B,18,2,3,BlockProc2,Drink - ?,,22,,,,,,,water,,,,,recallproc2
IS_JOL B,18,2,3,BlockProc2,Work - ?,,34,,,,,,,hard,,,,,recallproc2
IS_JOL B,18,2,3,BlockProc2,Honey - ?,,58,,,,,,,bee,,,,,recallproc2
IS_JOL B,18,2,3,BlockProc2,Geology - ?,,14,,,,,,,rock,,,,,recallproc2
IS_JOL B,18,2,3,BlockProc2,Death - ?,,67,,,,,,,unable,,,,,recallproc2
IS_JOL B,18,2,3,BlockProc2,Fix - ?,,70,,,,,,,hand,,,,,recallproc2
IS_JOL B,18,2,3,BlockProc2,Circle - ?,,60,,,,,,,round,,,,,recallproc2
IS_JOL B,18,2,3,BlockProc2,Clothes - ?,,38,,,,,,,cloth,,,,,recallproc2
IS_JOL B,18,2,3,BlockProc2,Plane - ?,,39,,,,,,,pilot,,,,,recallproc2
IS_JOL B,18,2,3,BlockProc2,Location - ?,,43,,,,,,,site,,,,,recallproc2
IS_JOL B,18,2,3,BlockProc2,Blow - ?,,50,,,,,,,wind,,,,,recallproc2
IS_JOL B,18,2,3,BlockProc2,Orchid - ?,,19,,,,,,,flower,,,,,recallproc2
IS_JOL B,18,2,3,BlockProc2,Grill - ?,,47,,,,,,,bar,,,,,recallproc2
IS_JOL B,18,2,3,BlockProc2,Hygiene - ?,,12,,,,,,,clean,,,,,recallproc2
IS_JOL B,18,2,3,BlockProc2,Due - ?,,41,,,,,,,date,,,,,recallproc2
IS_JOL B,18,2,3,BlockProc2,Artery - ?,,69,,,,,,,bronze,,,,,recallproc2
IS_JOL B,18,2,3,BlockProc2,Art - ?,,74,,,,,,,lion,,,,,recallproc2
IS_JOL B,18,2,3,BlockProc2,Credit - ?,,18,,,,,,,car,,,,,recallproc2
IS_JOL B,18,2,3,BlockProc2,Number - ?,,42,,,,,,,amount,,,,,recallproc2
IS_JOL B,18,2,3,BlockProc2,Sentence - ?,,26,,,,,,,word,,,,,recallproc2
IS_JOL B,18,2,3,BlockProc2,Editor - ?,,5,,,,,,,writer,,,,,recallproc2
IS_JOL B,18,2,3,BlockProc2,Revolution - ?,,15,,,,,,,war,,,,,recallproc2
IS_JOL B,18,2,3,BlockProc2,Baby - ?,,59,,,,,,,children,,,,,recallproc2
IS_JOL B,18,2,3,BlockProc2,Bridge - ?,,13,,,,,,,water,,,,,recallproc2
IS_JOL B,18,2,3,BlockProc2,Key - ?,,31,,,,,,,lost,,,,,recallproc2
IS_JOL B,18,2,3,BlockProc2,Smell - ?,,37,,,,,,,stench,,,,,recallproc2
IS_JOL B,18,2,3,BlockProc2,Wage - ?,,3,,,,,,,money,,,,,recallproc2
IS_JOL B,18,2,3,BlockProc2,Allow - ?,,73,,,,,,,willing,,,,,recallproc2
IS_JOL B,18,2,3,BlockProc2,Digestion - ?,,2,,,,,,,stomach,,,,,recallproc2
IS_JOL B,18,2,3,BlockProc2,Hornet - ?,,6,,,,,,,sting,,,,,recallproc2
IS_JOL B,18,2,3,BlockProc2,Hide - ?,,79,,,,,,,scare,,,,,recallproc2
IS_JOL B,18,2,3,BlockProc2,Shoe - ?,,55,,,,,,,foot,,,,,recallproc2
IS_JOL B,18,2,3,BlockProc2,Trial - ?,,45,,,,,,,jury,,,,,recallproc2
IS_JOL B,18,2,3,BlockProc2,Discover - ?,,66,,,,,,,ground,,,,,recallproc2
IS_JOL B,18,2,3,BlockProc2,Valley - ?,,77,,,,,,,ad,,,,,recallproc2
IS_JOL B,18,2,3,BlockProc2,Sleep - ?,,36,,,,,,,eat,,,,,recallproc2
IS_JOL B,18,2,3,BlockProc2,King - ?,,80,,,,,,,cup,,,,,recallproc2
IS_JOL B,18,2,3,BlockProc2,Happy - ?,,72,,,,,,,excited,,,,,recallproc2
IS_JOL B,18,2,3,BlockProc2,Bathroom - ?,,53,,,,,,,toilet,,,,,recallproc2
IS_JOL B,18,2,3,BlockProc2,Machine - ?,,71,,,,,,,position,,,,,recallproc2
IS_JOL B,18,2,3,BlockProc2,Root - ?,,8,,,,,,,plant,,,,,recallproc2
IS_JOL B,18,2,3,BlockProc2,Delinquent - ?,,1,,,,,,,bad,,,,,recallproc2
IS_JOL B,18,2,3,BlockProc2,Math - ?,,28,,,,,,,division,,,,,recallproc2
IS_JOL B,18,2,3,BlockProc2,Swan - ?,,9,,,,,,,bird,,,,,recallproc2
IS_JOL B,18,2,3,BlockProc2,Dietary - ?,,62,,,,,,,slow,,,,,recallproc2
IS_JOL B,18,2,3,BlockProc2,Ball - ?,,33,,,,,,,round,,,,,recallproc2
IS_JOL B,18,2,3,BlockProc2,Begin - ?,,49,,,,,,,end,,,,,recallproc2
IS_JOL B,18,2,3,BlockProc2,Park - ?,,63,,,,,,,hunger,,,,,recallproc2
IS_JOL B,18,2,3,BlockProc2,Past - ?,,56,,,,,,,future,,,,,recallproc2
IS_JOL B,18,2,3,BlockProc2,Debate - ?,,68,,,,,,,watch,,,,,recallproc2
IS_JOL B,18,2,3,BlockProc2,Pusher - ?,,61,,,,,,,puller,,,,,recallproc2
IS_JOL B,18,2,3,BlockProc2,Height - ?,,25,,,,,,,growth,,,,,recallproc2
IS_JOL B,30,1,,BlockProc1,Disbelieve-Skeptic,,6,,,,,,,,,,,,Practice1
IS_JOL B,30,1,,BlockProc1,Chocolate-Bar,,7,,,,,,,,,,,,Practice1
IS_JOL B,30,1,,BlockProc1,Paddle-Row,,4,,,,,,,,,,,,Practice1
