ExperimentName,Subject,Block,list,Procedure[Block],cue_target,Direction,ListNum,pword3.RESP,pword3.RT,pword5.RESP,pword5.RT,Rword1.RESP,Rword1.RT,Rword2.RESP,pword8.RESP,pword8.RT,pword9.RESP,pword9.RT,pword10.RESP,pword10.RT,Procedure[Trial]
IS_JOL A,53,1,,BlockProc1,Chime-Music,,8,,,,,,,,,,,,,,Practice1
IS_JOL A,53,1,,BlockProc1,Fashion-Model,,10,,,,,,,,,,,,,,Practice1
IS_JOL A,53,1,,BlockProc1,Ham-Bone,,3,,,,,,,,,,,,,,Practice1
IS_JOL A,53,1,,BlockProc1,Deaf-Mute,,2,,,,,,,,,,,,,,Practice1
IS_JOL A,53,1,,BlockProc1,Behavior-Social,,9,,,,,,,,,,,,,,Practice1
IS_JOL A,53,1,,BlockProc1,Disbelieve-Skeptic,,6,,,,,,,,,,,,,,Practice1
IS_JOL A,53,1,,BlockProc1,Aardvark-Zoo,,1,,,,,,,,,,,,,,Practice1
IS_JOL A,53,1,,BlockProc1,Paddle-Row,,4,,,,,,,,,,,,,,Practice1
IS_JOL A,53,1,,BlockProc1,Chocolate-Bar,,7,,,,,,,,,,,,,,Practice1
IS_JOL A,53,1,,BlockProc1,Hinge-Swing,,5,,,,,,,,,,,,,,Practice1
IS_JOL A,53,1,3,BlockProc1,Shrimp - Fish,,4,,,,,,,,,,,,,,StudyProc1
IS_JOL A,53,1,3,BlockProc1,Curtain - Drapes,,2,,,,,,,,,,,,,,StudyProc1
IS_JOL A,53,1,3,BlockProc1,Haircut-Scissors,,1,,,,,,,,,,,,,,StudyProc1
IS_JOL A,53,1,3,BlockProc1,Member - Group,,5,,,,,,,,,,,,,,StudyProc1
IS_JOL A,53,1,3,BlockProc1,Snow - Ice,,3,,,,,,,,,,,,,,StudyProc1
IS_JOL A,53,1,3,BlockProc1,Blow - Wind,S,50,100,15163,,,,,,,,,,,,StudyProc3
IS_JOL A,53,1,3,BlockProc1,King - Vase,U,80,10,30802,,,,,,,,,,,,StudyProc3
IS_JOL A,53,1,3,BlockProc1,Soon - Belt,U,65,10,17207,,,,,,,,,,,,StudyProc3
IS_JOL A,53,1,3,BlockProc1,Circle - Round,S,60,10,19908,,,,,,,,,,,,StudyProc3
IS_JOL A,53,1,3,BlockProc1,Grill - Bar,S,47,100,18302,,,,,,,,,,,,StudyProc3
IS_JOL A,53,1,3,BlockProc1,Art - Lion,U,74,10,17336,,,,,,,,,,,,StudyProc3
IS_JOL A,53,1,3,BlockProc1,Allow - Tuck,U,73,10,25160,,,,,,,,,,,,StudyProc3
IS_JOL A,53,1,3,BlockProc1,Kidney - Liver,S,48,10,20279,,,,,,,,,,,,StudyProc3
IS_JOL A,53,1,3,BlockProc1,Shoe - Foot,S,55,100,20034,,,,,,,,,,,,StudyProc3
IS_JOL A,53,1,3,BlockProc1,Hide - Sick,U,79,10,17918,,,,,,,,,,,,StudyProc3
IS_JOL A,53,1,3,BlockProc1,Discover - Floor,U,66,10,17440,,,,,,,,,,,,StudyProc3
IS_JOL A,53,1,3,BlockProc1,Baby - Child,S,59,10,25508,,,,,,,,,,,,StudyProc3
IS_JOL A,53,1,3,BlockProc1,Trial - Jury,S,45,100,19709,,,,,,,,,,,,StudyProc3
IS_JOL A,53,1,3,BlockProc1,Bathroom - Toilet,S,53,100,20782,,,,,,,,,,,,StudyProc3
IS_JOL A,53,1,3,BlockProc1,Architecture - Design,S,46,100,27341,,,,,,,,,,,,StudyProc3
IS_JOL A,53,1,3,BlockProc1,Sugar - Riddle,U,76,10,21572,,,,,,,,,,,,StudyProc3
IS_JOL A,53,1,3,BlockProc1,Park - Hungry,U,63,10,16451,,,,,,,,,,,,StudyProc3
IS_JOL A,53,1,3,BlockProc1,Machine - Position,U,71,10,25143,,,,,,,,,,,,StudyProc3
IS_JOL A,53,1,3,BlockProc1,Pop - Soda,S,51,100,34551,,,,,,,,,,,,StudyProc3
IS_JOL A,53,1,3,BlockProc1,Death - Business,U,67,10,18694,,,,,,,,,,,,StudyProc3
IS_JOL A,53,1,3,BlockProc1,Number - Amount,S,42,100,23392,,,,,,,,,,,,StudyProc3
IS_JOL A,53,1,3,BlockProc1,Lettuce - Salad,S,54,0,25173,,,,,,,,,,,,StudyProc3
IS_JOL A,53,1,3,BlockProc1,Due - Assignment,S,41,10,19460,,,,,,,,,,,,StudyProc3
IS_JOL A,53,1,3,BlockProc1,Dump - Waste,S,44,10,29191,,,,,,,,,,,,StudyProc3
IS_JOL A,53,1,3,BlockProc1,Dietary - Sacking,U,62,10,31228,,,,,,,,,,,,StudyProc3
IS_JOL A,53,1,3,BlockProc1,Pusher - Clutter,U,61,10,25792,,,,,,,,,,,,StudyProc3
IS_JOL A,53,1,3,BlockProc1,Honey - Bee,S,58,100,20750,,,,,,,,,,,,StudyProc3
IS_JOL A,53,1,3,BlockProc1,Cash - Would,U,78,10,27086,,,,,,,,,,,,StudyProc3
IS_JOL A,53,1,3,BlockProc1,Choice - Decision,S,57,100,24239,,,,,,,,,,,,StudyProc3
IS_JOL A,53,1,3,BlockProc1,Past - Future,S,56,100,15195,,,,,,,,,,,,StudyProc3
IS_JOL A,53,1,3,BlockProc1,Location - Site,S,43,100,28137,,,,,,,,,,,,StudyProc3
IS_JOL A,53,1,3,BlockProc1,Fix - Hand,U,70,10,20649,,,,,,,,,,,,StudyProc3
IS_JOL A,53,1,3,BlockProc1,Wine - Cheese,S,52,100,20021,,,,,,,,,,,,StudyProc3
IS_JOL A,53,1,3,BlockProc1,Valley - Add,U,77,10,18481,,,,,,,,,,,,StudyProc3
IS_JOL A,53,1,3,BlockProc1,Happy - Car,U,72,10,15468,,,,,,,,,,,,StudyProc3
IS_JOL A,53,1,3,BlockProc1,Strong - Accident,U,75,10,19728,,,,,,,,,,,,StudyProc3
IS_JOL A,53,1,3,BlockProc1,Artery - Bronze,U,69,10,36280,,,,,,,,,,,,StudyProc3
IS_JOL A,53,1,3,BlockProc1,Lift - Woman,U,64,10,20730,,,,,,,,,,,,StudyProc3
IS_JOL A,53,1,3,BlockProc1,Debate - Sight,U,68,10,21131,,,,,,,,,,,,StudyProc3
IS_JOL A,53,1,3,BlockProc1,Begin - End,S,49,100,15451,,,,,,,,,,,,StudyProc3
IS_JOL A,53,1,3,BlockProc1,Law - Attorney,B,29,,,,,,,,,,100,19725,,,StudyProc7
IS_JOL A,53,1,3,BlockProc1,Paw - Dog,F,10,,,,,,,,,,100,20382,,,StudyProc7
IS_JOL A,53,1,3,BlockProc1,Drink - Sip,B,22,,,,,,,,,,100,21492,,,StudyProc7
IS_JOL A,53,1,3,BlockProc1,Wage - Money,F,3,,,,,,,,,,100,28646,,,StudyProc7
IS_JOL A,53,1,3,BlockProc1,Sentence - Word,B,26,,,,,,,,,,100,21802,,,StudyProc7
IS_JOL A,53,1,3,BlockProc1,Way - Out,F,11,,,,,,,,,,10,22151,,,StudyProc7
IS_JOL A,53,1,3,BlockProc1,Smell - Stench,B,37,,,,,,,,,,100,29255,,,StudyProc7
IS_JOL A,53,1,3,BlockProc1,Credit - Card,F,18,,,,,,,,,,100,25433,,,StudyProc7
IS_JOL A,53,1,3,BlockProc1,Clothes - Attire,B,38,,,,,,,,,,100,21358,,,StudyProc7
IS_JOL A,53,1,3,BlockProc1,Ball - Racket,B,33,,,,,,,,,,100,21565,,,StudyProc7
IS_JOL A,53,1,3,BlockProc1,Plane - Pilot,B,39,,,,,,,,,,100,20588,,,StudyProc7
IS_JOL A,53,1,3,BlockProc1,Math - Division,B,28,,,,,,,,,,100,23538,,,StudyProc7
IS_JOL A,53,1,3,BlockProc1,Bug - Wasp,B,27,,,,,,,,,,100,17730,,,StudyProc7
IS_JOL A,53,1,3,BlockProc1,Hornet - Sting,F,6,,,,,,,,,,100,26707,,,StudyProc7
IS_JOL A,53,1,3,BlockProc1,Hygiene - Clean,F,12,,,,,,,,,,100,19355,,,StudyProc7
IS_JOL A,53,1,3,BlockProc1,Herd - Cow,F,17,,,,,,,,,,100,23707,,,StudyProc7
IS_JOL A,53,1,3,BlockProc1,Root - Plant,F,8,,,,,,,,,,100,22804,,,StudyProc7
IS_JOL A,53,1,3,BlockProc1,Delinquent - Bad,F,1,,,,,,,,,,10,30961,,,StudyProc7
IS_JOL A,53,1,3,BlockProc1,Bridge - Water,F,13,,,,,,,,,,100,27952,,,StudyProc7
IS_JOL A,53,1,3,BlockProc1,Sleep - Drowsy,B,36,,,,,,,,,,100,19151,,,StudyProc7
IS_JOL A,53,1,3,BlockProc1,Swan - Bird,F,9,,,,,,,,,,100,23239,,,StudyProc7
IS_JOL A,53,1,3,BlockProc1,Orchid - Flower,F,19,,,,,,,,,,10,34011,,,StudyProc7
IS_JOL A,53,1,3,BlockProc1,Revolution - War,F,15,,,,,,,,,,10,33863,,,StudyProc7
IS_JOL A,53,1,3,BlockProc1,Work - Chore,B,34,,,,,,,,,,10,18474,,,StudyProc7
IS_JOL A,53,1,3,BlockProc1,Chisel - Hammer,F,4,,,,,,,,,,10,18628,,,StudyProc7
IS_JOL A,53,1,3,BlockProc1,Dark - Cave,B,23,,,,,,,,,,100,25513,,,StudyProc7
IS_JOL A,53,1,3,BlockProc1,Geology - Rock,F,14,,,,,,,,,,10,19530,,,StudyProc7
IS_JOL A,53,1,3,BlockProc1,Great - Fantastic,B,30,,,,,,,,,,100,21179,,,StudyProc7
IS_JOL A,53,1,3,BlockProc1,Key - Latch,B,31,,,,,,,,,,10,15505,,,StudyProc7
IS_JOL A,53,1,3,BlockProc1,Height - Growth,B,25,,,,,,,,,,100,10771,,,StudyProc7
IS_JOL A,53,1,3,BlockProc1,Digestion - Stomach,F,2,,,,,,,,,,100,29730,,,StudyProc7
IS_JOL A,53,1,3,BlockProc1,Hunger - Famine,B,35,,,,,,,,,,10,27018,,,StudyProc7
IS_JOL A,53,1,3,BlockProc1,Editor - News,F,5,,,,,,,,,,10,15415,,,StudyProc7
IS_JOL A,53,1,3,BlockProc1,Tuna - Fish,F,20,,,,,,,,,,100,20781,,,StudyProc7
IS_JOL A,53,1,3,BlockProc1,Bitter - Cold,F,7,,,,,,,,,,10,21923,,,StudyProc7
IS_JOL A,53,1,3,BlockProc1,Full - Enough,B,21,,,,,,,,,,0,13572,,,StudyProc7
IS_JOL A,53,1,3,BlockProc1,Fire - Blaze,B,40,,,,,,,,,,10,19043,,,StudyProc7
IS_JOL A,53,1,3,BlockProc1,Discussion - Talk,F,16,,,,,,,,,,100,17695,,,StudyProc7
IS_JOL A,53,1,3,BlockProc1,Hot - Chili,B,32,,,,,,,,,,10,15945,,,StudyProc7
IS_JOL A,53,1,3,BlockProc1,Take - Seize,B,24,,,,,,,,,,10,24849,,,StudyProc7
IS_JOL A,53,1,3,BlockProc1,Friendliness - Nice,,3,,,,,,,,,,,,,,StudyProc2
IS_JOL A,53,1,3,BlockProc1,Catcher - Baseball,,4,,,,,,,,,,,,,,StudyProc2
IS_JOL A,53,1,3,BlockProc1,Grab - Take,,2,,,,,,,,,,,,,,StudyProc2
IS_JOL A,53,1,3,BlockProc1,Geese - Goose,,1,,,,,,,,,,,,,,StudyProc2
IS_JOL A,53,1,3,BlockProc1,Trees - Green,,5,,,,,,,,,,,,,,StudyProc2
IS_JOL A,53,1,3,BlockProc1,Plane - ?,,39,,,,,pilo,7979,,,,,,,,recallproc1
IS_JOL A,53,1,3,BlockProc1,Hot - ?,,32,,,,,chil,6363,,,,,,,,recallproc1
IS_JOL A,53,1,3,BlockProc1,Baby - ?,,59,,,,,chld,4707,,,,,,,,recallproc1
IS_JOL A,53,1,3,BlockProc1,Smell - ?,,37,,,,,stinch,3661,,,,,,,,recallproc1
IS_JOL A,53,1,3,BlockProc1,Location - ?,,43,,,,,site,4778,,,,,,,,recallproc1
IS_JOL A,53,1,3,BlockProc1,Way - ?,,11,,,,,site,6745,,,,,,,,recallproc1
IS_JOL A,53,1,3,BlockProc1,Hunger - ?,,35,,,,,fatigue,4850,,,,,,,,recallproc1
IS_JOL A,53,1,3,BlockProc1,Work - ?,,34,,,,,chores,5583,,,,,,,,recallproc1
IS_JOL A,53,1,3,BlockProc1,Herd - ?,,17,,,,,cow,2159,,,,,,,,recallproc1
IS_JOL A,53,1,3,BlockProc1,Ball - ?,,33,,,,,racket,8543,,,,,,,,recallproc1
IS_JOL A,53,1,3,BlockProc1,Law - ?,,29,,,,,attorney,3864,,,,,,,,recallproc1
IS_JOL A,53,1,3,BlockProc1,Sleep - ?,,36,,,,,drowsey,3797,,,,,,,,recallproc1
IS_JOL A,53,1,3,BlockProc1,Fire - ?,,40,,,,,blaze,3236,,,,,,,,recallproc1
IS_JOL A,53,1,3,BlockProc1,Strong - ?,,75,,,,,weak,5009,,,,,,,,recallproc1
IS_JOL A,53,1,3,BlockProc1,Circle - ?,,60,,,,,round,2391,,,,,,,,recallproc1
IS_JOL A,53,1,3,BlockProc1,Digestion - ?,,2,,,,,stomach,3478,,,,,,,,recallproc1
IS_JOL A,53,1,3,BlockProc1,Paw - ?,,10,,,,,dog,2274,,,,,,,,recallproc1
IS_JOL A,53,1,3,BlockProc1,Chisel - ?,,4,,,,,hammer,4582,,,,,,,,recallproc1
IS_JOL A,53,1,3,BlockProc1,Great - ?,,30,,,,,fantastic,3958,,,,,,,,recallproc1
IS_JOL A,53,1,3,BlockProc1,Credit - ?,,18,,,,,card,1822,,,,,,,,recallproc1
IS_JOL A,53,1,3,BlockProc1,Hide - ?,,79,,,,,seek,10668,,,,,,,,recallproc1
IS_JOL A,53,1,3,BlockProc1,Honey - ?,,58,,,,,bee,1576,,,,,,,,recallproc1
IS_JOL A,53,1,3,BlockProc1,Due - ?,,41,,,,,assignment,4696,,,,,,,,recallproc1
IS_JOL A,53,1,3,BlockProc1,Past - ?,,56,,,,,present,2931,,,,,,,,recallproc1
IS_JOL A,53,1,3,BlockProc1,Sugar - ?,,76,,,,,flou,10612,,,,,,,,recallproc1
IS_JOL A,53,1,3,BlockProc1,Pop - ?,,51,,,,,soda,3546,,,,,,,,recallproc1
IS_JOL A,53,1,3,BlockProc1,Art - ?,,74,,,,,artist,5971,,,,,,,,recallproc1
IS_JOL A,53,1,3,BlockProc1,Revolution - ?,,15,,,,,war,2187,,,,,,,,recallproc1
IS_JOL A,53,1,3,BlockProc1,Discussion - ?,,16,,,,,talk,3234,,,,,,,,recallproc1
IS_JOL A,53,1,3,BlockProc1,King - ?,,80,,,,,artery,6191,,,,,,,,recallproc1
IS_JOL A,53,1,3,BlockProc1,Dump - ?,,44,,,,,waste,2966,,,,,,,,recallproc1
IS_JOL A,53,1,3,BlockProc1,Death - ?,,67,,,,,dark,3959,,,,,,,,recallproc1
IS_JOL A,53,1,3,BlockProc1,Geology - ?,,14,,,,,roc,3671,,,,,,,,recallproc1
IS_JOL A,53,1,3,BlockProc1,Lift - ?,,64,,,,,strong,7531,,,,,,,,recallproc1
IS_JOL A,53,1,3,BlockProc1,Soon - ?,,65,,,,,now,5412,,,,,,,,recallproc1
IS_JOL A,53,1,3,BlockProc1,Architecture - ?,,46,,,,,design,3355,,,,,,,,recallproc1
IS_JOL A,53,1,3,BlockProc1,Sentence - ?,,26,,,,,word,3755,,,,,,,,recallproc1
IS_JOL A,53,1,3,BlockProc1,Allow - ?,,73,,,,,trust,4748,,,,,,,,recallproc1
IS_JOL A,53,1,3,BlockProc1,Bug - ?,,27,,,,,bee,3805,,,,,,,,recallproc1
IS_JOL A,53,1,3,BlockProc1,Artery - ?,,69,,,,,vein,2643,,,,,,,,recallproc1
IS_JOL A,53,1,3,BlockProc1,Clothes - ?,,38,,,,,attire,4816,,,,,,,,recallproc1
IS_JOL A,53,1,3,BlockProc1,Math - ?,,28,,,,,division,3950,,,,,,,,recallproc1
IS_JOL A,53,1,3,BlockProc1,Hornet - ?,,6,,,,,sting,2584,,,,,,,,recallproc1
IS_JOL A,53,1,3,BlockProc1,Park - ?,,63,,,,,swing,2767,,,,,,,,recallproc1
IS_JOL A,53,1,3,BlockProc1,Drink - ?,,22,,,,,water,2047,,,,,,,,recallproc1
IS_JOL A,53,1,3,BlockProc1,Trial - ?,,45,,,,,jurty,3676,,,,,,,,recallproc1
IS_JOL A,53,1,3,BlockProc1,Valley - ?,,77,,,,,hill,13248,,,,,,,,recallproc1
IS_JOL A,53,1,3,BlockProc1,Key - ?,,31,,,,,latch,2941,,,,,,,,recallproc1
IS_JOL A,53,1,3,BlockProc1,Bathroom - ?,,53,,,,,toliet,5726,,,,,,,,recallproc1
IS_JOL A,53,1,3,BlockProc1,Cash - ?,,78,,,,,card,3095,,,,,,,,recallproc1
IS_JOL A,53,1,3,BlockProc1,Orchid - ?,,19,,,,,flower,3298,,,,,,,,recallproc1
IS_JOL A,53,1,3,BlockProc1,Kidney - ?,,48,,,,,liver,3838,,,,,,,,recallproc1
IS_JOL A,53,1,3,BlockProc1,Number - ?,,42,,,,,amount,5323,,,,,,,,recallproc1
IS_JOL A,53,1,3,BlockProc1,Begin - ?,,49,,,,,endf,1500,,,,,,,,recallproc1
IS_JOL A,53,1,3,BlockProc1,Machine - ?,,71,,,,,build,7607,,,,,,,,recallproc1
IS_JOL A,53,1,3,BlockProc1,Wine - ?,,52,,,,,cheese,2326,,,,,,,,recallproc1
IS_JOL A,53,1,3,BlockProc1,Choice - ?,,57,,,,,matter,2511,,,,,,,,recallproc1
IS_JOL A,53,1,3,BlockProc1,Editor - ?,,5,,,,,news,3002,,,,,,,,recallproc1
IS_JOL A,53,1,3,BlockProc1,Dietary - ?,,62,,,,,healthy,4536,,,,,,,,recallproc1
IS_JOL A,53,1,3,BlockProc1,Hygiene - ?,,12,,,,,clean,2297,,,,,,,,recallproc1
IS_JOL A,53,1,3,BlockProc1,Shoe - ?,,55,,,,,foo,3453,,,,,,,,recallproc1
IS_JOL A,53,1,3,BlockProc1,Full - ?,,21,,,,,enough,5337,,,,,,,,recallproc1
IS_JOL A,53,1,3,BlockProc1,Fix - ?,,70,,,,,accident,5482,,,,,,,,recallproc1
IS_JOL A,53,1,3,BlockProc1,Delinquent - ?,,1,,,,,bad,2734,,,,,,,,recallproc1
IS_JOL A,53,1,3,BlockProc1,Discover - ?,,66,,,,,find,2927,,,,,,,,recallproc1
IS_JOL A,53,1,3,BlockProc1,Debate - ?,,68,,,,,talk,3209,,,,,,,,recallproc1
IS_JOL A,53,1,3,BlockProc1,Wage - ?,,3,,,,,amount,2687,,,,,,,,recallproc1
IS_JOL A,53,1,3,BlockProc1,Grill - ?,,47,,,,,cook,4418,,,,,,,,recallproc1
IS_JOL A,53,1,3,BlockProc1,Bridge - ?,,13,,,,,water,1728,,,,,,,,recallproc1
IS_JOL A,53,1,3,BlockProc1,Blow - ?,,50,,,,,wind,2186,,,,,,,,recallproc1
IS_JOL A,53,1,3,BlockProc1,Take - ?,,24,,,,,have,5385,,,,,,,,recallproc1
IS_JOL A,53,1,3,BlockProc1,Swan - ?,,9,,,,,bird,5504,,,,,,,,recallproc1
IS_JOL A,53,1,3,BlockProc1,Bitter - ?,,7,,,,,happy,6642,,,,,,,,recallproc1
IS_JOL A,53,1,3,BlockProc1,Height - ?,,25,,,,,tall,3296,,,,,,,,recallproc1
IS_JOL A,53,1,3,BlockProc1,Tuna - ?,,20,,,,,fish,2914,,,,,,,,recallproc1
IS_JOL A,53,1,3,BlockProc1,Root - ?,,8,,,,,flower,2788,,,,,,,,recallproc1
IS_JOL A,53,1,3,BlockProc1,Dark - ?,,23,,,,,death,3123,,,,,,,,recallproc1
IS_JOL A,53,1,3,BlockProc1,Pusher - ?,,61,,,,,mean,12517,,,,,,,,recallproc1
IS_JOL A,53,1,3,BlockProc1,Lettuce - ?,,54,,,,,salad,3175,,,,,,,,recallproc1
IS_JOL A,53,1,3,BlockProc1,Happy - ?,,72,,,,,sad,1927,,,,,,,,recallproc1
IS_JOL A,53,2,3,BlockProc2,Hide - Scare,,2,,,,,,,,,,,,,,StudyProc4
IS_JOL A,53,2,3,BlockProc2,Sheriff - Police,,1,,,,,,,,,,,,,,StudyProc4
IS_JOL A,53,2,3,BlockProc2,Essay - Write,,4,,,,,,,,,,,,,,StudyProc4
IS_JOL A,53,2,3,BlockProc2,Disintegrate - Disappear,,3,,,,,,,,,,,,,,StudyProc4
IS_JOL A,53,2,3,BlockProc2,Malt - Chocolate,,5,,,,,,,,,,,,,,StudyProc4
IS_JOL A,53,2,3,BlockProc2,Vehicle - Charm,U,65,,,,,,,,,,,,80,9412,StudyProc8
IS_JOL A,53,2,3,BlockProc2,Maze - Election,U,64,,,,,,,,,,,,80,14882,StudyProc8
IS_JOL A,53,2,3,BlockProc2,Safety - Seatbelt,S,52,,,,,,,,,,,,60,15709,StudyProc8
IS_JOL A,53,2,3,BlockProc2,Wrist - Bracelet,S,45,,,,,,,,,,,,70,12895,StudyProc8
IS_JOL A,53,2,3,BlockProc2,Loan - Sign,U,76,,,,,,,,,,,,70,16137,StudyProc8
IS_JOL A,53,2,3,BlockProc2,Sun - Tan,S,60,,,,,,,,,,,,50,10610,StudyProc8
IS_JOL A,53,2,3,BlockProc2,Earth - Ground,S,49,,,,,,,,,,,,40,10080,StudyProc8
IS_JOL A,53,2,3,BlockProc2,Lease - Toil,U,75,,,,,,,,,,,,40,15371,StudyProc8
IS_JOL A,53,2,3,BlockProc2,Water - Drink,S,48,,,,,,,,,,,,50,17362,StudyProc8
IS_JOL A,53,2,3,BlockProc2,Element - Carbon,S,46,,,,,,,,,,,,60,22329,StudyProc8
IS_JOL A,53,2,3,BlockProc2,Flea - Tick,S,56,,,,,,,,,,,,70,16594,StudyProc8
IS_JOL A,53,2,3,BlockProc2,Own - Have,S,58,,,,,,,,,,,,60,16616,StudyProc8
IS_JOL A,53,2,3,BlockProc2,Listen - Fiction,U,69,,,,,,,,,,,,78,15789,StudyProc8
IS_JOL A,53,2,3,BlockProc2,Main - Scar,U,80,,,,,,,,,,,,80,17676,StudyProc8
IS_JOL A,53,2,3,BlockProc2,Keys - Joke,U,70,,,,,,,,,,,,30,7751,StudyProc8
IS_JOL A,53,2,3,BlockProc2,Mason - Jar,S,43,,,,,,,,,,,,58,11159,StudyProc8
IS_JOL A,53,2,3,BlockProc2,Alone - Lonely,S,50,,,,,,,,,,,,45,12279,StudyProc8
IS_JOL A,53,2,3,BlockProc2,Both - Ounce,U,77,,,,,,,,,,,,40,11706,StudyProc8
IS_JOL A,53,2,3,BlockProc2,Truth - Lie,S,53,,,,,,,,,,,,49,22612,StudyProc8
IS_JOL A,53,2,3,BlockProc2,Rod - Reel,S,55,,,,,,,,,,,,39,11538,StudyProc8
IS_JOL A,53,2,3,BlockProc2,Justice - Maroon,U,61,,,,,,,,,,,,69,15418,StudyProc8
IS_JOL A,53,2,3,BlockProc2,Meat - Obtain,U,66,,,,,,,,,,,,70,13231,StudyProc8
IS_JOL A,53,2,3,BlockProc2,Moat - Clear,U,74,,,,,,,,,,,,70,15404,StudyProc8
IS_JOL A,53,2,3,BlockProc2,Fuzzy - Bang,U,73,,,,,,,,,,,,60,13970,StudyProc8
IS_JOL A,53,2,3,BlockProc2,Name - Hate,U,72,,,,,,,,,,,,80,10281,StudyProc8
IS_JOL A,53,2,3,BlockProc2,Temperature - Morning,U,78,,,,,,,,,,,,50,9892,StudyProc8
IS_JOL A,53,2,3,BlockProc2,Shell - Shake,U,68,,,,,,,,,,,,50,13423,StudyProc8
IS_JOL A,53,2,3,BlockProc2,Razor - Shave,S,41,,,,,,,,,,,,60,13596,StudyProc8
IS_JOL A,53,2,3,BlockProc2,Cake - Clothes,U,71,,,,,,,,,,,,80,9890,StudyProc8
IS_JOL A,53,2,3,BlockProc2,Crackle - Able,U,67,,,,,,,,,,,,70,12948,StudyProc8
IS_JOL A,53,2,3,BlockProc2,Mirror - Children,U,79,,,,,,,,,,,,50,10981,StudyProc8
IS_JOL A,53,2,3,BlockProc2,Give - Steak,U,63,,,,,,,,,,,,70,9604,StudyProc8
IS_JOL A,53,2,3,BlockProc2,Phone - Communicatio,S,54,,,,,,,,,,,,70,15362,StudyProc8
IS_JOL A,53,2,3,BlockProc2,Stretch - Cloth,U,62,,,,,,,,,,,,60,18322,StudyProc8
IS_JOL A,53,2,3,BlockProc2,Gone - Away,S,47,,,,,,,,,,,,70,11442,StudyProc8
IS_JOL A,53,2,3,BlockProc2,Rights - Equal,S,42,,,,,,,,,,,,60,20727,StudyProc8
IS_JOL A,53,2,3,BlockProc2,Candle - Wax,S,44,,,,,,,,,,,,80,16080,StudyProc8
IS_JOL A,53,2,3,BlockProc2,Dry - Wet,S,51,,,,,,,,,,,,80,17866,StudyProc8
IS_JOL A,53,2,3,BlockProc2,Loud - Noise,S,57,,,,,,,,,,,,70,16062,StudyProc8
IS_JOL A,53,2,3,BlockProc2,Tantrum - Temper,S,59,,,,,,,,,,,,80,9026,StudyProc8
IS_JOL A,53,2,3,BlockProc2,Honest - Truthful,B,38,,,70,18167,,,,,,,,,,StudyProc5
IS_JOL A,53,2,3,BlockProc2,Fish - Sardine,B,35,,,80,14719,,,,,,,,,,StudyProc5
IS_JOL A,53,2,3,BlockProc2,Furry - Dog,F,7,,,60,11040,,,,,,,,,,StudyProc5
IS_JOL A,53,2,3,BlockProc2,Turn - Flip,B,21,,,80,10028,,,,,,,,,,StudyProc5
IS_JOL A,53,2,3,BlockProc2,Bad - Villain,B,23,,,80,13786,,,,,,,,,,StudyProc5
IS_JOL A,53,2,3,BlockProc2,Baseball - League,B,36,,,890,13216,,,,,,,,,,StudyProc5
IS_JOL A,53,2,3,BlockProc2,Car - Windshield,B,22,,,60,11166,,,,,,,,,,StudyProc5
IS_JOL A,53,2,3,BlockProc2,Chill - Cold,F,19,,,60,11942,,,,,,,,,,StudyProc5
IS_JOL A,53,2,3,BlockProc2,Document - Paper,F,14,,,80,14118,,,,,,,,,,StudyProc5
IS_JOL A,53,2,3,BlockProc2,Adjourn - End,F,6,,,70,10919,,,,,,,,,,StudyProc5
IS_JOL A,53,2,3,BlockProc2,Chop - Cut,F,12,,,80,10529,,,,,,,,,,StudyProc5
IS_JOL A,53,2,3,BlockProc2,Detective - Mystery,F,5,,,90,8986,,,,,,,,,,StudyProc5
IS_JOL A,53,2,3,BlockProc2,Plane - Aircraft,B,34,,,90,16601,,,,,,,,,,StudyProc5
IS_JOL A,53,2,3,BlockProc2,Scalp - Head,F,10,,,90,11399,,,,,,,,,,StudyProc5
IS_JOL A,53,2,3,BlockProc2,Shoelace - Tie,F,4,,,8,9230,,,,,,,,,,StudyProc5
IS_JOL A,53,2,3,BlockProc2,Driver - Car,F,11,,,80,11579,,,,,,,,,,StudyProc5
IS_JOL A,53,2,3,BlockProc2,Money - Banker,B,37,,,80,11818,,,,,,,,,,StudyProc5
IS_JOL A,53,2,3,BlockProc2,Fruit - Strawberry,B,29,,,80,12311,,,,,,,,,,StudyProc5
IS_JOL A,53,2,3,BlockProc2,Cherry - Red,F,9,,,60,7097,,,,,,,,,,StudyProc5
IS_JOL A,53,2,3,BlockProc2,Glass - Breakable,B,32,,,60,14028,,,,,,,,,,StudyProc5
IS_JOL A,53,2,3,BlockProc2,Feud - Fight,F,18,,,8,9417,,,,,,,,,,StudyProc5
IS_JOL A,53,2,3,BlockProc2,Shears - Scissors,F,17,,,80,12446,,,,,,,,,,StudyProc5
IS_JOL A,53,2,3,BlockProc2,Fight - Brawl,B,40,,,70,8387,,,,,,,,,,StudyProc5
IS_JOL A,53,2,3,BlockProc2,Bird - Penguin,B,24,,,80,8498,,,,,,,,,,StudyProc5
IS_JOL A,53,2,3,BlockProc2,Cactus - Plant,F,3,,,60,8884,,,,,,,,,,StudyProc5
IS_JOL A,53,2,3,BlockProc2,Cat - Panther,B,31,,,80,12287,,,,,,,,,,StudyProc5
IS_JOL A,53,2,3,BlockProc2,Clue - Game,F,2,,,80,9058,,,,,,,,,,StudyProc5
IS_JOL A,53,2,3,BlockProc2,Thread - Thimble,B,26,,,70,11958,,,,,,,,,,StudyProc5
IS_JOL A,53,2,3,BlockProc2,Incense - Smell,F,15,,,90,25454,,,,,,,,,,StudyProc5
IS_JOL A,53,2,3,BlockProc2,Mule - Donkey,F,13,,,90,17137,,,,,,,,,,StudyProc5
IS_JOL A,53,2,3,BlockProc2,Best - Favorite,B,30,,,80,10265,,,,,,,,,,StudyProc5
IS_JOL A,53,2,3,BlockProc2,Extension - Long,F,1,,,70,9037,,,,,,,,,,StudyProc5
IS_JOL A,53,2,3,BlockProc2,Dine - Eat,F,16,,,80,9977,,,,,,,,,,StudyProc5
IS_JOL A,53,2,3,BlockProc2,Affection - Love,F,20,,,80,13985,,,,,,,,,,StudyProc5
IS_JOL A,53,2,3,BlockProc2,Pop - Balloon,B,28,,,80,7752,,,,,,,,,,StudyProc5
IS_JOL A,53,2,3,BlockProc2,Dead - Coffin,B,33,,,60,6776,,,,,,,,,,StudyProc5
IS_JOL A,53,2,3,BlockProc2,Even - Revenge,B,27,,,78,13111,,,,,,,,,,StudyProc5
IS_JOL A,53,2,3,BlockProc2,Sleep - Nap,B,39,,,80,10697,,,,,,,,,,StudyProc5
IS_JOL A,53,2,3,BlockProc2,Star - Actress,B,25,,,70,13308,,,,,,,,,,StudyProc5
IS_JOL A,53,2,3,BlockProc2,Litter - Trash,F,8,,,80,8182,,,,,,,,,,StudyProc5
IS_JOL A,53,2,3,BlockProc2,Contest - Competition,,5,,,,,,,,,,,,,,StudyProc6
IS_JOL A,53,2,3,BlockProc2,Magician - Magic,,4,,,,,,,,,,,,,,StudyProc6
IS_JOL A,53,2,3,BlockProc2,Deaf - Hear,,3,,,,,,,,,,,,,,StudyProc6
IS_JOL A,53,2,3,BlockProc2,Deciet - Cheat,,1,,,,,,,,,,,,,,StudyProc6
IS_JOL A,53,2,3,BlockProc2,Mind - Matter,,2,,,,,,,,,,,,,,StudyProc6
IS_JOL A,53,2,3,BlockProc2,Fight - ?,,40,,,,,,,wr,,,,,,,recallproc2
IS_JOL A,53,2,3,BlockProc2,Shears - ?,,17,,,,,,,scissors,,,,,,,recallproc2
IS_JOL A,53,2,3,BlockProc2,Give - ?,,63,,,,,,,take,,,,,,,recallproc2
IS_JOL A,53,2,3,BlockProc2,Furry - ?,,7,,,,,,,dog,,,,,,,recallproc2
IS_JOL A,53,2,3,BlockProc2,Best - ?,,30,,,,,,,favorite,,,,,,,recallproc2
IS_JOL A,53,2,3,BlockProc2,Honest - ?,,38,,,,,,,opinion,,,,,,,recallproc2
IS_JOL A,53,2,3,BlockProc2,Loud - ?,,57,,,,,,,noise,,,,,,,recallproc2
IS_JOL A,53,2,3,BlockProc2,Pop - ?,,28,,,,,,,balloon,,,,,,,recallproc2
IS_JOL A,53,2,3,BlockProc2,Main - ?,,80,,,,,,,purpose,,,,,,,recallproc2
IS_JOL A,53,2,3,BlockProc2,Razor - ?,,41,,,,,,,blade,,,,,,,recallproc2
IS_JOL A,53,2,3,BlockProc2,Tantrum - ?,,59,,,,,,,bad,,,,,,,recallproc2
IS_JOL A,53,2,3,BlockProc2,Truth - ?,,53,,,,,,,honest,,,,,,,recallproc2
IS_JOL A,53,2,3,BlockProc2,Cherry - ?,,9,,,,,,,rede,,,,,,,recallproc2
IS_JOL A,53,2,3,BlockProc2,Litter - ?,,8,,,,,,,trash,,,,,,,recallproc2
IS_JOL A,53,2,3,BlockProc2,Clue - ?,,2,,,,,,,mind,,,,,,,recallproc2
IS_JOL A,53,2,3,BlockProc2,Keys - ?,,70,,,,,,,latch,,,,,,,recallproc2
IS_JOL A,53,2,3,BlockProc2,Fruit - ?,,29,,,,,,,st4rawberr,,,,,,,recallproc2
IS_JOL A,53,2,3,BlockProc2,Feud - ?,,18,,,,,,,war,,,,,,,recallproc2
IS_JOL A,53,2,3,BlockProc2,Element - ?,,46,,,,,,,carbon,,,,,,,recallproc2
IS_JOL A,53,2,3,BlockProc2,Cactus - ?,,3,,,,,,,plant,,,,,,,recallproc2
IS_JOL A,53,2,3,BlockProc2,Chop - ?,,12,,,,,,,cut,,,,,,,recallproc2
IS_JOL A,53,2,3,BlockProc2,Baseball - ?,,36,,,,,,,catcher,,,,,,,recallproc2
IS_JOL A,53,2,3,BlockProc2,Cat - ?,,31,,,,,,,dog,,,,,,,recallproc2
IS_JOL A,53,2,3,BlockProc2,Earth - ?,,49,,,,,,,water,,,,,,,recallproc2
IS_JOL A,53,2,3,BlockProc2,Name - ?,,72,,,,,,,person,,,,,,,recallproc2
IS_JOL A,53,2,3,BlockProc2,Document - ?,,14,,,,,,,paper,,,,,,,recallproc2
IS_JOL A,53,2,3,BlockProc2,Mirror - ?,,79,,,,,,,self,,,,,,,recallproc2
IS_JOL A,53,2,3,BlockProc2,Crackle - ?,,67,,,,,,,pop,,,,,,,recallproc2
IS_JOL A,53,2,3,BlockProc2,Sun - ?,,60,,,,,,,moon,,,,,,,recallproc2
IS_JOL A,53,2,3,BlockProc2,Sleep - ?,,39,,,,,,,nap,,,,,,,recallproc2
IS_JOL A,53,2,3,BlockProc2,Listen - ?,,69,,,,,,,hear,,,,,,,recallproc2
IS_JOL A,53,2,3,BlockProc2,Maze - ?,,64,,,,,,,find,,,,,,,recallproc2
IS_JOL A,53,2,3,BlockProc2,Money - ?,,37,,,,,,,cash,,,,,,,recallproc2
IS_JOL A,53,2,3,BlockProc2,Detective - ?,,5,,,,,,,truth,,,,,,,recallproc2
IS_JOL A,53,2,3,BlockProc2,Shell - ?,,68,,,,,,,beach,,,,,,,recallproc2
IS_JOL A,53,2,3,BlockProc2,Glass - ?,,32,,,,,,,water,,,,,,,recallproc2
IS_JOL A,53,2,3,BlockProc2,Incense - ?,,15,,,,,,,sell,,,,,,,recallproc2
IS_JOL A,53,2,3,BlockProc2,Scalp - ?,,10,,,,,,,hair,,,,,,,recallproc2
IS_JOL A,53,2,3,BlockProc2,Justice - ?,,61,,,,,,,court,,,,,,,recallproc2
IS_JOL A,53,2,3,BlockProc2,Mason - ?,,43,,,,,,,name,,,,,,,recallproc2
IS_JOL A,53,2,3,BlockProc2,Water - ?,,48,,,,,,,earth,,,,,,,recallproc2
IS_JOL A,53,2,3,BlockProc2,Rights - ?,,42,,,,,,,law,,,,,,,recallproc2
IS_JOL A,53,2,3,BlockProc2,Star - ?,,25,,,,,,,moon,,,,,,,recallproc2
IS_JOL A,53,2,3,BlockProc2,Turn - ?,,21,,,,,,,flip,,,,,,,recallproc2
IS_JOL A,53,2,3,BlockProc2,Flea - ?,,56,,,,,,,tick,,,,,,,recallproc2
IS_JOL A,53,2,3,BlockProc2,Chill - ?,,19,,,,,,,water,,,,,,,recallproc2
IS_JOL A,53,2,3,BlockProc2,Safety - ?,,52,,,,,,,seatbelt,,,,,,,recallproc2
IS_JOL A,53,2,3,BlockProc2,Adjourn - ?,,6,,,,,,,joury,,,,,,,recallproc2
IS_JOL A,53,2,3,BlockProc2,Car - ?,,22,,,,,,,drive,,,,,,,recallproc2
IS_JOL A,53,2,3,BlockProc2,Shoelace - ?,,4,,,,,,,shoe,,,,,,,recallproc2
IS_JOL A,53,2,3,BlockProc2,Plane - ?,,34,,,,,,,aircrft,,,,,,,recallproc2
IS_JOL A,53,2,3,BlockProc2,Mule - ?,,13,,,,,,,donkey,,,,,,,recallproc2
IS_JOL A,53,2,3,BlockProc2,Fuzzy - ?,,73,,,,,,,dog,,,,,,,recallproc2
IS_JOL A,53,2,3,BlockProc2,Affection - ?,,20,,,,,,,love,,,,,,,recallproc2
IS_JOL A,53,2,3,BlockProc2,Moat - ?,,74,,,,,,,love,,,,,,,recallproc2
IS_JOL A,53,2,3,BlockProc2,Stretch - ?,,62,,,,,,,flip,,,,,,,recallproc2
IS_JOL A,53,2,3,BlockProc2,Bird - ?,,24,,,,,,,dog,,,,,,,recallproc2
IS_JOL A,53,2,3,BlockProc2,Candle - ?,,44,,,,,,,aroma,,,,,,,recallproc2
IS_JOL A,53,2,3,BlockProc2,Cake - ?,,71,,,,,,,birthday,,,,,,,recallproc2
IS_JOL A,53,2,3,BlockProc2,Dead - ?,,33,,,,,,,alive,,,,,,,recallproc2
IS_JOL A,53,2,3,BlockProc2,Extension - ?,,1,,,,,,,lon,,,,,,,recallproc2
IS_JOL A,53,2,3,BlockProc2,Temperature - ?,,78,,,,,,,hot,,,,,,,recallproc2
IS_JOL A,53,2,3,BlockProc2,Bad - ?,,23,,,,,,,good,,,,,,,recallproc2
IS_JOL A,53,2,3,BlockProc2,Thread - ?,,26,,,,,,,needle,,,,,,,recallproc2
IS_JOL A,53,2,3,BlockProc2,Wrist - ?,,45,,,,,,,hanmd,,,,,,,recallproc2
IS_JOL A,53,2,3,BlockProc2,Gone - ?,,47,,,,,,,gone,,,,,,,recallproc2
IS_JOL A,53,2,3,BlockProc2,Rod - ?,,55,,,,,,,reel,,,,,,,recallproc2
IS_JOL A,53,2,3,BlockProc2,Driver - ?,,11,,,,,,,car,,,,,,,recallproc2
IS_JOL A,53,2,3,BlockProc2,Vehicle - ?,,65,,,,,,,car,,,,,,,recallproc2
IS_JOL A,53,2,3,BlockProc2,Even - ?,,27,,,,,,,odd,,,,,,,recallproc2
IS_JOL A,53,2,3,BlockProc2,Lease - ?,,75,,,,,,,own,,,,,,,recallproc2
IS_JOL A,53,2,3,BlockProc2,Own - ?,,58,,,,,,,lease,,,,,,,recallproc2
IS_JOL A,53,2,3,BlockProc2,Fish - ?,,35,,,,,,,tuna,,,,,,,recallproc2
IS_JOL A,53,2,3,BlockProc2,Dine - ?,,16,,,,,,,eat,,,,,,,recallproc2
IS_JOL A,53,2,3,BlockProc2,Phone - ?,,54,,,,,,,person,,,,,,,recallproc2
IS_JOL A,53,2,3,BlockProc2,Loan - ?,,76,,,,,,,money,,,,,,,recallproc2
IS_JOL A,53,2,3,BlockProc2,Meat - ?,,66,,,,,,,cow,,,,,,,recallproc2
IS_JOL A,53,2,3,BlockProc2,Both - ?,,77,,,,,,,few,,,,,,,recallproc2
IS_JOL A,53,2,3,BlockProc2,Dry - ?,,51,,,,,,,wet,,,,,,,recallproc2
IS_JOL A,53,2,3,BlockProc2,Alone - ?,,50,,,,,,,lonley,,,,,,,recallproc2
IS_JOL B,54,1,,BlockProc1,Chocolate-Bar,,7,,,,,,,,,,,,,,Practice1
IS_JOL B,54,1,,BlockProc1,Fashion-Model,,10,,,,,,,,,,,,,,Practice1
IS_JOL B,54,1,,BlockProc1,Ham-Bone,,3,,,,,,,,,,,,,,Practice1
IS_JOL B,54,1,,BlockProc1,Paddle-Row,,4,,,,,,,,,,,,,,Practice1
IS_JOL B,54,1,,BlockProc1,Disbelieve-Skeptic,,6,,,,,,,,,,,,,,Practice1
IS_JOL B,54,1,,BlockProc1,Aardvark-Zoo,,1,,,,,,,,,,,,,,Practice1
IS_JOL B,54,1,,BlockProc1,Hinge-Swing,,5,,,,,,,,,,,,,,Practice1
IS_JOL B,54,1,,BlockProc1,Deaf-Mute,,2,,,,,,,,,,,,,,Practice1
IS_JOL B,54,1,,BlockProc1,Behavior-Social,,9,,,,,,,,,,,,,,Practice1
IS_JOL B,54,1,,BlockProc1,Chime-Music,,8,,,,,,,,,,,,,,Practice1
IS_JOL B,54,1,3,BlockProc1,Member - Group,,5,,,,,,,,,,,,,,StudyProc1
IS_JOL B,54,1,3,BlockProc1,Snow - Ice,,3,,,,,,,,,,,,,,StudyProc1
IS_JOL B,54,1,3,BlockProc1,Haircut-Scissors,,1,,,,,,,,,,,,,,StudyProc1
IS_JOL B,54,1,3,BlockProc1,Curtain - Drapes,,2,,,,,,,,,,,,,,StudyProc1
IS_JOL B,54,1,3,BlockProc1,Shrimp - Fish,,4,,,,,,,,,,,,,,StudyProc1
IS_JOL B,54,1,3,BlockProc1,Turn - Flip,B,21,100,7249,,,,,,,,,,,,StudyProc3
IS_JOL B,54,1,3,BlockProc1,Honest - Truthful,B,38,97,9886,,,,,,,,,,,,StudyProc3
IS_JOL B,54,1,3,BlockProc1,Plane - Aircraft,B,34,100,8481,,,,,,,,,,,,StudyProc3
IS_JOL B,54,1,3,BlockProc1,Best - Favorite,B,30,98,8636,,,,,,,,,,,,StudyProc3
IS_JOL B,54,1,3,BlockProc1,Driver - Car,F,11,100,8969,,,,,,,,,,,,StudyProc3
IS_JOL B,54,1,3,BlockProc1,Mule - Donkey,F,13,98,12209,,,,,,,,,,,,StudyProc3
IS_JOL B,54,1,3,BlockProc1,Adjourn - End,F,6,98,9006,,,,,,,,,,,,StudyProc3
IS_JOL B,54,1,3,BlockProc1,Scalp - Head,F,10,96,10972,,,,,,,,,,,,StudyProc3
IS_JOL B,54,1,3,BlockProc1,Cat - Panther,B,31,100,5684,,,,,,,,,,,,StudyProc3
IS_JOL B,54,1,3,BlockProc1,Incense - Smell,F,15,100,9823,,,,,,,,,,,,StudyProc3
IS_JOL B,54,1,3,BlockProc1,Clue - Game,F,2,96,31165,,,,,,,,,,,,StudyProc3
IS_JOL B,54,1,3,BlockProc1,Bad - Villain,B,23,100,8171,,,,,,,,,,,,StudyProc3
IS_JOL B,54,1,3,BlockProc1,Fish - Sardine,B,35,100,5867,,,,,,,,,,,,StudyProc3
IS_JOL B,54,1,3,BlockProc1,Chill - Cold,F,19,99,6687,,,,,,,,,,,,StudyProc3
IS_JOL B,54,1,3,BlockProc1,Chop - Cut,F,12,100,10130,,,,,,,,,,,,StudyProc3
IS_JOL B,54,1,3,BlockProc1,Detective - Mystery,F,5,100,10643,,,,,,,,,,,,StudyProc3
IS_JOL B,54,1,3,BlockProc1,Furry - Dog,F,7,100,11928,,,,,,,,,,,,StudyProc3
IS_JOL B,54,1,3,BlockProc1,Extension - Long,F,1,99,9305,,,,,,,,,,,,StudyProc3
IS_JOL B,54,1,3,BlockProc1,Cactus - Plant,F,3,98,8483,,,,,,,,,,,,StudyProc3
IS_JOL B,54,1,3,BlockProc1,Thread - Thimble,B,26,70,13598,,,,,,,,,,,,StudyProc3
IS_JOL B,54,1,3,BlockProc1,Pop - Balloon,B,28,100,7085,,,,,,,,,,,,StudyProc3
IS_JOL B,54,1,3,BlockProc1,Document - Paper,F,14,100,8712,,,,,,,,,,,,StudyProc3
IS_JOL B,54,1,3,BlockProc1,Dead - Coffin,B,33,100,7530,,,,,,,,,,,,StudyProc3
IS_JOL B,54,1,3,BlockProc1,Even - Revenge,B,27,96,8235,,,,,,,,,,,,StudyProc3
IS_JOL B,54,1,3,BlockProc1,Money - Banker,B,37,100,7032,,,,,,,,,,,,StudyProc3
IS_JOL B,54,1,3,BlockProc1,Shears - Scissors,F,17,100,10910,,,,,,,,,,,,StudyProc3
IS_JOL B,54,1,3,BlockProc1,Star - Actress,B,25,100,5919,,,,,,,,,,,,StudyProc3
IS_JOL B,54,1,3,BlockProc1,Litter - Trash,F,8,98,10761,,,,,,,,,,,,StudyProc3
IS_JOL B,54,1,3,BlockProc1,Fruit - Strawberry,B,29,98,9081,,,,,,,,,,,,StudyProc3
IS_JOL B,54,1,3,BlockProc1,Cherry - Red,F,9,100,13276,,,,,,,,,,,,StudyProc3
IS_JOL B,54,1,3,BlockProc1,Glass - Breakable,B,32,100,12295,,,,,,,,,,,,StudyProc3
IS_JOL B,54,1,3,BlockProc1,Affection - Love,F,20,100,9946,,,,,,,,,,,,StudyProc3
IS_JOL B,54,1,3,BlockProc1,Feud - Fight,F,18,100,10123,,,,,,,,,,,,StudyProc3
IS_JOL B,54,1,3,BlockProc1,Sleep - Nap,B,39,100,10876,,,,,,,,,,,,StudyProc3
IS_JOL B,54,1,3,BlockProc1,Bird - Penguin,B,24,95,8199,,,,,,,,,,,,StudyProc3
IS_JOL B,54,1,3,BlockProc1,Fight - Brawl,B,40,97,10630,,,,,,,,,,,,StudyProc3
IS_JOL B,54,1,3,BlockProc1,Car - Windshield,B,22,100,7275,,,,,,,,,,,,StudyProc3
IS_JOL B,54,1,3,BlockProc1,Dine - Eat,F,16,96,8767,,,,,,,,,,,,StudyProc3
IS_JOL B,54,1,3,BlockProc1,Shoelace - Tie,F,4,98,9015,,,,,,,,,,,,StudyProc3
IS_JOL B,54,1,3,BlockProc1,Baseball - League,B,36,97,12789,,,,,,,,,,,,StudyProc3
IS_JOL B,54,1,3,BlockProc1,Mason - Jar,S,43,,,,,,,,98,5470,,,,,StudyProc7
IS_JOL B,54,1,3,BlockProc1,Moat - Clear,U,74,,,,,,,,93,11641,,,,,StudyProc7
IS_JOL B,54,1,3,BlockProc1,Both - Ounce,U,77,,,,,,,,90,9150,,,,,StudyProc7
IS_JOL B,54,1,3,BlockProc1,Gone - Away,S,47,,,,,,,,100,8407,,,,,StudyProc7
IS_JOL B,54,1,3,BlockProc1,Dry - Wet,S,51,,,,,,,,98,8701,,,,,StudyProc7
IS_JOL B,54,1,3,BlockProc1,Candle - Wax,S,44,,,,,,,,98,8223,,,,,StudyProc7
IS_JOL B,54,1,3,BlockProc1,Temperature - Morning,U,78,,,,,,,,98,9308,,,,,StudyProc7
IS_JOL B,54,1,3,BlockProc1,Razor - Shave,S,41,,,,,,,,97,12270,,,,,StudyProc7
IS_JOL B,54,1,3,BlockProc1,Rights - Equal,S,42,,,,,,,,100,12250,,,,,StudyProc7
IS_JOL B,54,1,3,BlockProc1,Fuzzy - Bang,U,73,,,,,,,,98,6678,,,,,StudyProc7
IS_JOL B,54,1,3,BlockProc1,Stretch - Cloth,U,62,,,,,,,,98,5810,,,,,StudyProc7
IS_JOL B,54,1,3,BlockProc1,Rod - Reel,S,55,,,,,,,,86,10097,,,,,StudyProc7
IS_JOL B,54,1,3,BlockProc1,Phone - Communicatio,S,54,,,,,,,,100,12562,,,,,StudyProc7
IS_JOL B,54,1,3,BlockProc1,Maze - Election,U,64,,,,,,,,95,7874,,,,,StudyProc7
IS_JOL B,54,1,3,BlockProc1,Loud - Noise,S,57,,,,,,,,100,12590,,,,,StudyProc7
IS_JOL B,54,1,3,BlockProc1,Lease - Toil,U,75,,,,,,,,0,16308,,,,,StudyProc7
IS_JOL B,54,1,3,BlockProc1,Justice - Maroon,U,61,,,,,,,,100,12838,,,,,StudyProc7
IS_JOL B,54,1,3,BlockProc1,Meat - Obtain,U,66,,,,,,,,96,6602,,,,,StudyProc7
IS_JOL B,54,1,3,BlockProc1,Crackle - Able,U,67,,,,,,,,0,9057,,,,,StudyProc7
IS_JOL B,54,1,3,BlockProc1,Shell - Shake,U,68,,,,,,,,100,7077,,,,,StudyProc7
IS_JOL B,54,1,3,BlockProc1,Earth - Ground,S,49,,,,,,,,95,5024,,,,,StudyProc7
IS_JOL B,54,1,3,BlockProc1,Keys - Joke,U,70,,,,,,,,98,6606,,,,,StudyProc7
IS_JOL B,54,1,3,BlockProc1,Truth - Lie,S,53,,,,,,,,90,10284,,,,,StudyProc7
IS_JOL B,54,1,3,BlockProc1,Main - Scar,U,80,,,,,,,,93,13967,,,,,StudyProc7
IS_JOL B,54,1,3,BlockProc1,Mirror - Children,U,79,,,,,,,,86,7551,,,,,StudyProc7
IS_JOL B,54,1,3,BlockProc1,Alone - Lonely,S,50,,,,,,,,100,11359,,,,,StudyProc7
IS_JOL B,54,1,3,BlockProc1,Sun - Tan,S,60,,,,,,,,94,8183,,,,,StudyProc7
IS_JOL B,54,1,3,BlockProc1,Name - Hate,U,72,,,,,,,,94,6558,,,,,StudyProc7
IS_JOL B,54,1,3,BlockProc1,Wrist - Bracelet,S,45,,,,,,,,94,9447,,,,,StudyProc7
IS_JOL B,54,1,3,BlockProc1,Cake - Clothes,U,71,,,,,,,,100,4563,,,,,StudyProc7
IS_JOL B,54,1,3,BlockProc1,Flea - Tick,S,56,,,,,,,,93,9932,,,,,StudyProc7
IS_JOL B,54,1,3,BlockProc1,Water - Drink,S,48,,,,,,,,100,6181,,,,,StudyProc7
IS_JOL B,54,1,3,BlockProc1,Give - Steak,U,63,,,,,,,,95,8525,,,,,StudyProc7
IS_JOL B,54,1,3,BlockProc1,Listen - Fiction,U,69,,,,,,,,100,5966,,,,,StudyProc7
IS_JOL B,54,1,3,BlockProc1,Loan - Sign,U,76,,,,,,,,98,8582,,,,,StudyProc7
IS_JOL B,54,1,3,BlockProc1,Safety - Seatbelt,S,52,,,,,,,,90,7750,,,,,StudyProc7
IS_JOL B,54,1,3,BlockProc1,Tantrum - Temper,S,59,,,,,,,,98,9583,,,,,StudyProc7
IS_JOL B,54,1,3,BlockProc1,Own - Have,S,58,,,,,,,,90,5726,,,,,StudyProc7
IS_JOL B,54,1,3,BlockProc1,Element - Carbon,S,46,,,,,,,,98,8528,,,,,StudyProc7
IS_JOL B,54,1,3,BlockProc1,Vehicle - Charm,U,65,,,,,,,,93,6953,,,,,StudyProc7
IS_JOL B,54,1,3,BlockProc1,Catcher - Baseball,,4,,,,,,,,,,,,,,StudyProc2
IS_JOL B,54,1,3,BlockProc1,Friendliness - Nice,,3,,,,,,,,,,,,,,StudyProc2
IS_JOL B,54,1,3,BlockProc1,Geese - Goose,,1,,,,,,,,,,,,,,StudyProc2
IS_JOL B,54,1,3,BlockProc1,Grab - Take,,2,,,,,,,,,,,,,,StudyProc2
IS_JOL B,54,1,3,BlockProc1,Trees - Green,,5,,,,,,,,,,,,,,StudyProc2
IS_JOL B,54,1,3,BlockProc1,Bird - ?,,24,,,,,FLY,10692,,,,,,,,recallproc1
IS_JOL B,54,1,3,BlockProc1,Rod - ?,,55,,,,,REEL,3550,,,,,,,,recallproc1
IS_JOL B,54,1,3,BlockProc1,Cat - ?,,31,,,,,DOG,3279,,,,,,,,recallproc1
IS_JOL B,54,1,3,BlockProc1,Money - ?,,37,,,,,BANK,2595,,,,,,,,recallproc1
IS_JOL B,54,1,3,BlockProc1,Element - ?,,46,,,,,CARBON,4354,,,,,,,,recallproc1
IS_JOL B,54,1,3,BlockProc1,Plane - ?,,34,,,,,AIRCRAFT,4154,,,,,,,,recallproc1
IS_JOL B,54,1,3,BlockProc1,Lease - ?,,75,,,,,LOAN,4083,,,,,,,,recallproc1
IS_JOL B,54,1,3,BlockProc1,Sleep - ?,,39,,,,,NAP,4038,,,,,,,,recallproc1
IS_JOL B,54,1,3,BlockProc1,Candle - ?,,44,,,,,WAX,2515,,,,,,,,recallproc1
IS_JOL B,54,1,3,BlockProc1,Shoelace - ?,,4,,,,,TIE,4374,,,,,,,,recallproc1
IS_JOL B,54,1,3,BlockProc1,Bad - ?,,23,,,,,VILLIAN,6286,,,,,,,,recallproc1
IS_JOL B,54,1,3,BlockProc1,Shears - ?,,17,,,,,SCISSORS,3704,,,,,,,,recallproc1
IS_JOL B,54,1,3,BlockProc1,Phone - ?,,54,,,,,COMMUNCATION,4635,,,,,,,,recallproc1
IS_JOL B,54,1,3,BlockProc1,Star - ?,,25,,,,,DREAM,6360,,,,,,,,recallproc1
IS_JOL B,54,1,3,BlockProc1,Main - ?,,80,,,,,FIRST,5912,,,,,,,,recallproc1
IS_JOL B,54,1,3,BlockProc1,Dry - ?,,51,,,,,OLD,11066,,,,,,,,recallproc1
IS_JOL B,54,1,3,BlockProc1,Scalp - ?,,10,,,,,HEAD,2318,,,,,,,,recallproc1
IS_JOL B,54,1,3,BlockProc1,Dine - ?,,16,,,,,FOOD,10832,,,,,,,,recallproc1
IS_JOL B,54,1,3,BlockProc1,Shell - ?,,68,,,,,OCEAN,6030,,,,,,,,recallproc1
IS_JOL B,54,1,3,BlockProc1,Cherry - ?,,9,,,,,RED,1515,,,,,,,,recallproc1
IS_JOL B,54,1,3,BlockProc1,Cactus - ?,,3,,,,,PLANT,7822,,,,,,,,recallproc1
IS_JOL B,54,1,3,BlockProc1,Car - ?,,22,,,,,VECHICLE,4515,,,,,,,,recallproc1
IS_JOL B,54,1,3,BlockProc1,Turn - ?,,21,,,,,CIRCLE,14461,,,,,,,,recallproc1
IS_JOL B,54,1,3,BlockProc1,Name - ?,,72,,,,,PERSON,8665,,,,,,,,recallproc1
IS_JOL B,54,1,3,BlockProc1,Give - ?,,63,,,,,RECIEVE,6525,,,,,,,,recallproc1
IS_JOL B,54,1,3,BlockProc1,Honest - ?,,38,,,,,TRUTHFUL,3935,,,,,,,,recallproc1
IS_JOL B,54,1,3,BlockProc1,Mirror - ?,,79,,,,,CLEAR,5568,,,,,,,,recallproc1
IS_JOL B,54,1,3,BlockProc1,Chill - ?,,19,,,,,TOGETHER,8015,,,,,,,,recallproc1
IS_JOL B,54,1,3,BlockProc1,Even - ?,,27,,,,,EQUAL,6782,,,,,,,,recallproc1
IS_JOL B,54,1,3,BlockProc1,Adjourn - ?,,6,,,,,END,4717,,,,,,,,recallproc1
IS_JOL B,54,1,3,BlockProc1,Fight - ?,,40,,,,,BRAWL,3303,,,,,,,,recallproc1
IS_JOL B,54,1,3,BlockProc1,Truth - ?,,53,,,,,HONEST,2410,,,,,,,,recallproc1
IS_JOL B,54,1,3,BlockProc1,Clue - ?,,2,,,,,IDEA,16256,,,,,,,,recallproc1
IS_JOL B,54,1,3,BlockProc1,Document - ?,,14,,,,,PAGE,6436,,,,,,,,recallproc1
IS_JOL B,54,1,3,BlockProc1,Safety - ?,,52,,,,,SEATBELT,5185,,,,,,,,recallproc1
IS_JOL B,54,1,3,BlockProc1,Flea - ?,,56,,,,,TICK,2008,,,,,,,,recallproc1
IS_JOL B,54,1,3,BlockProc1,Rights - ?,,42,,,,,EQUA,2982,,,,,,,,recallproc1
IS_JOL B,54,1,3,BlockProc1,Dead - ?,,33,,,,,COFFIN,3686,,,,,,,,recallproc1
IS_JOL B,54,1,3,BlockProc1,Pop - ?,,28,,,,,DRINK,6809,,,,,,,,recallproc1
IS_JOL B,54,1,3,BlockProc1,Keys - ?,,70,,,,,VEHICLE,4319,,,,,,,,recallproc1
IS_JOL B,54,1,3,BlockProc1,Loan - ?,,76,,,,,LEASE,2209,,,,,,,,recallproc1
IS_JOL B,54,1,3,BlockProc1,Thread - ?,,26,,,,,THUMBNIL,7192,,,,,,,,recallproc1
IS_JOL B,54,1,3,BlockProc1,Fruit - ?,,29,,,,,STRAWBERRY,4887,,,,,,,,recallproc1
IS_JOL B,54,1,3,BlockProc1,Both - ?,,77,,,,,SAME,3698,,,,,,,,recallproc1
IS_JOL B,54,1,3,BlockProc1,Best - ?,,30,,,,,GOOD,16917,,,,,,,,recallproc1
IS_JOL B,54,1,3,BlockProc1,Vehicle - ?,,65,,,,,CAR,3182,,,,,,,,recallproc1
IS_JOL B,54,1,3,BlockProc1,Glass - ?,,32,,,,,CLEAR,4494,,,,,,,,recallproc1
IS_JOL B,54,1,3,BlockProc1,Mule - ?,,13,,,,,DONKEY,2529,,,,,,,,recallproc1
IS_JOL B,54,1,3,BlockProc1,Earth - ?,,49,,,,,GROUND,4195,,,,,,,,recallproc1
IS_JOL B,54,1,3,BlockProc1,Driver - ?,,11,,,,,PASSENGER,8242,,,,,,,,recallproc1
IS_JOL B,54,1,3,BlockProc1,Razor - ?,,41,,,,,SHAVE,2999,,,,,,,,recallproc1
IS_JOL B,54,1,3,BlockProc1,Loud - ?,,57,,,,,NOISE,2870,,,,,,,,recallproc1
IS_JOL B,54,1,3,BlockProc1,Affection - ?,,20,,,,,LOVE,1778,,,,,,,,recallproc1
IS_JOL B,54,1,3,BlockProc1,Tantrum - ?,,59,,,,,TEMPER,14649,,,,,,,,recallproc1
IS_JOL B,54,1,3,BlockProc1,Baseball - ?,,36,,,,,CATCHER,4574,,,,,,,,recallproc1
IS_JOL B,54,1,3,BlockProc1,Chop - ?,,12,,,,,CUT,2261,,,,,,,,recallproc1
IS_JOL B,54,1,3,BlockProc1,Maze - ?,,64,,,,,RUN,4402,,,,,,,,recallproc1
IS_JOL B,54,1,3,BlockProc1,Detective - ?,,5,,,,,MYSTERY,4512,,,,,,,,recallproc1
IS_JOL B,54,1,3,BlockProc1,Fish - ?,,35,,,,,SHRIMP,4147,,,,,,,,recallproc1
IS_JOL B,54,1,3,BlockProc1,Litter - ?,,8,,,,,TRASH,4844,,,,,,,,recallproc1
IS_JOL B,54,1,3,BlockProc1,Moat - ?,,74,,,,,RIVER,3177,,,,,,,,recallproc1
IS_JOL B,54,1,3,BlockProc1,Listen - ?,,69,,,,,HEAR,4081,,,,,,,,recallproc1
IS_JOL B,54,1,3,BlockProc1,Meat - ?,,66,,,,,STEAK,2572,,,,,,,,recallproc1
IS_JOL B,54,1,3,BlockProc1,Crackle - ?,,67,,,,,NOISE,7372,,,,,,,,recallproc1
IS_JOL B,54,1,3,BlockProc1,Wrist - ?,,45,,,,,ARM,6972,,,,,,,,recallproc1
IS_JOL B,54,1,3,BlockProc1,Incense - ?,,15,,,,,IDENTIFICATION,9539,,,,,,,,recallproc1
IS_JOL B,54,1,3,BlockProc1,Furry - ?,,7,,,,,CAT,1892,,,,,,,,recallproc1
IS_JOL B,54,1,3,BlockProc1,Justice - ?,,61,,,,,EQUL,4063,,,,,,,,recallproc1
IS_JOL B,54,1,3,BlockProc1,Cake - ?,,71,,,,,DESSERT,4251,,,,,,,,recallproc1
IS_JOL B,54,1,3,BlockProc1,Fuzzy - ?,,73,,,,,DOG,5832,,,,,,,,recallproc1
IS_JOL B,54,1,3,BlockProc1,Sun - ?,,60,,,,,TAN,3461,,,,,,,,recallproc1
IS_JOL B,54,1,3,BlockProc1,Water - ?,,48,,,,,DRINK,9362,,,,,,,,recallproc1
IS_JOL B,54,1,3,BlockProc1,Alone - ?,,50,,,,,LONELY,4978,,,,,,,,recallproc1
IS_JOL B,54,1,3,BlockProc1,Feud - ?,,18,,,,,FIGHT,2146,,,,,,,,recallproc1
IS_JOL B,54,1,3,BlockProc1,Mason - ?,,43,,,,,JAR,6139,,,,,,,,recallproc1
IS_JOL B,54,1,3,BlockProc1,Extension - ?,,1,,,,,LONG,8764,,,,,,,,recallproc1
IS_JOL B,54,1,3,BlockProc1,Own - ?,,58,,,,,BUY,2764,,,,,,,,recallproc1
IS_JOL B,54,1,3,BlockProc1,Temperature - ?,,78,,,,,MORNING,2604,,,,,,,,recallproc1
IS_JOL B,54,1,3,BlockProc1,Gone - ?,,47,,,,,LEFT,2227,,,,,,,,recallproc1
IS_JOL B,54,1,3,BlockProc1,Stretch - ?,,62,,,,,LENGTH,5561,,,,,,,,recallproc1
IS_JOL B,54,2,3,BlockProc2,Malt - Chocolate,,5,,,,,,,,,,,,,,StudyProc4
IS_JOL B,54,2,3,BlockProc2,Hide - Scare,,2,,,,,,,,,,,,,,StudyProc4
IS_JOL B,54,2,3,BlockProc2,Essay - Write,,4,,,,,,,,,,,,,,StudyProc4
IS_JOL B,54,2,3,BlockProc2,Disintegrate - Disappear,,3,,,,,,,,,,,,,,StudyProc4
IS_JOL B,54,2,3,BlockProc2,Sheriff - Police,,1,,,,,,,,,,,,,,StudyProc4
IS_JOL B,54,2,3,BlockProc2,Bridge - Water,F,13,,,100,5507,,,,,,,,,,StudyProc5
IS_JOL B,54,2,3,BlockProc2,Credit - Card,F,18,,,90,6677,,,,,,,,,,StudyProc5
IS_JOL B,54,2,3,BlockProc2,Discussion - Talk,F,16,,,90,8801,,,,,,,,,,StudyProc5
IS_JOL B,54,2,3,BlockProc2,Hornet - Sting,F,6,,,90,8367,,,,,,,,,,StudyProc5
IS_JOL B,54,2,3,BlockProc2,Hygiene - Clean,F,12,,,90,10887,,,,,,,,,,StudyProc5
IS_JOL B,54,2,3,BlockProc2,Geology - Rock,F,14,,,100,9689,,,,,,,,,,StudyProc5
IS_JOL B,54,2,3,BlockProc2,Fire - Blaze,B,40,,,90,13380,,,,,,,,,,StudyProc5
IS_JOL B,54,2,3,BlockProc2,Hunger - Famine,B,35,,,90,10515,,,,,,,,,,StudyProc5
IS_JOL B,54,2,3,BlockProc2,Editor - News,F,5,,,90,8501,,,,,,,,,,StudyProc5
IS_JOL B,54,2,3,BlockProc2,Revolution - War,F,15,,,95,7303,,,,,,,,,,StudyProc5
IS_JOL B,54,2,3,BlockProc2,Paw - Dog,F,10,,,60,6689,,,,,,,,,,StudyProc5
IS_JOL B,54,2,3,BlockProc2,Delinquent - Bad,F,1,,,100,7132,,,,,,,,,,StudyProc5
IS_JOL B,54,2,3,BlockProc2,Drink - Sip,B,22,,,90,11606,,,,,,,,,,StudyProc5
IS_JOL B,54,2,3,BlockProc2,Swan - Bird,F,9,,,100,9148,,,,,,,,,,StudyProc5
IS_JOL B,54,2,3,BlockProc2,Way - Out,F,11,,,100,11564,,,,,,,,,,StudyProc5
IS_JOL B,54,2,3,BlockProc2,Great - Fantastic,B,30,,,90,7964,,,,,,,,,,StudyProc5
IS_JOL B,54,2,3,BlockProc2,Plane - Pilot,B,39,,,100,7732,,,,,,,,,,StudyProc5
IS_JOL B,54,2,3,BlockProc2,Sentence - Word,B,26,,,100,12718,,,,,,,,,,StudyProc5
IS_JOL B,54,2,3,BlockProc2,Wage - Money,F,3,,,90,6719,,,,,,,,,,StudyProc5
IS_JOL B,54,2,3,BlockProc2,Tuna - Fish,F,20,,,100,4345,,,,,,,,,,StudyProc5
IS_JOL B,54,2,3,BlockProc2,Sleep - Drowsy,B,36,,,80,9194,,,,,,,,,,StudyProc5
IS_JOL B,54,2,3,BlockProc2,Work - Chore,B,34,,,90,5992,,,,,,,,,,StudyProc5
IS_JOL B,54,2,3,BlockProc2,Herd - Cow,F,17,,,90,7303,,,,,,,,,,StudyProc5
IS_JOL B,54,2,3,BlockProc2,Digestion - Stomach,F,2,,,90,10377,,,,,,,,,,StudyProc5
IS_JOL B,54,2,3,BlockProc2,Height - Growth,B,25,,,78,10561,,,,,,,,,,StudyProc5
IS_JOL B,54,2,3,BlockProc2,Smell - Stench,B,37,,,100,14697,,,,,,,,,,StudyProc5
IS_JOL B,54,2,3,BlockProc2,Root - Plant,F,8,,,90,6331,,,,,,,,,,StudyProc5
IS_JOL B,54,2,3,BlockProc2,Full - Enough,B,21,,,90,13269,,,,,,,,,,StudyProc5
IS_JOL B,54,2,3,BlockProc2,Key - Latch,B,31,,,90,6440,,,,,,,,,,StudyProc5
IS_JOL B,54,2,3,BlockProc2,Dark - Cave,B,23,,,90,8533,,,,,,,,,,StudyProc5
IS_JOL B,54,2,3,BlockProc2,Take - Seize,B,24,,,90,9190,,,,,,,,,,StudyProc5
IS_JOL B,54,2,3,BlockProc2,Law - Attorney,B,29,,,90,7485,,,,,,,,,,StudyProc5
IS_JOL B,54,2,3,BlockProc2,Orchid - Flower,F,19,,,90,14104,,,,,,,,,,StudyProc5
IS_JOL B,54,2,3,BlockProc2,Hot - Chili,B,32,,,100,8321,,,,,,,,,,StudyProc5
IS_JOL B,54,2,3,BlockProc2,Clothes - Attire,B,38,,,90,5547,,,,,,,,,,StudyProc5
IS_JOL B,54,2,3,BlockProc2,Bitter - Cold,F,7,,,97,7860,,,,,,,,,,StudyProc5
IS_JOL B,54,2,3,BlockProc2,Ball - Racket,B,33,,,100,6696,,,,,,,,,,StudyProc5
IS_JOL B,54,2,3,BlockProc2,Chisel - Hammer,F,4,,,90,7275,,,,,,,,,,StudyProc5
IS_JOL B,54,2,3,BlockProc2,Bug - Wasp,B,27,,,100,6150,,,,,,,,,,StudyProc5
IS_JOL B,54,2,3,BlockProc2,Math - Division,B,28,,,90,13191,,,,,,,,,,StudyProc5
IS_JOL B,54,2,3,BlockProc2,Trial - Jury,S,45,,,,,,,,,,90,11093,,,StudyProc8
IS_JOL B,54,2,3,BlockProc2,Honey - Bee,S,58,,,,,,,,,,90,7367,,,StudyProc8
IS_JOL B,54,2,3,BlockProc2,Park - Hungry,U,63,,,,,,,,,,80,7623,,,StudyProc8
IS_JOL B,54,2,3,BlockProc2,Hide - Sick,U,79,,,,,,,,,,90,7284,,,StudyProc8
IS_JOL B,54,2,3,BlockProc2,Dietary - Slacking,U,62,,,,,,,,,,90,13391,,,StudyProc8
IS_JOL B,54,2,3,BlockProc2,Grill - Bar,S,47,,,,,,,,,,90,6733,,,StudyProc8
IS_JOL B,54,2,3,BlockProc2,Shoe - Foot,S,55,,,,,,,,,,100,5847,,,StudyProc8
IS_JOL B,54,2,3,BlockProc2,Soon - Belt,U,65,,,,,,,,,,90,7924,,,StudyProc8
IS_JOL B,54,2,3,BlockProc2,Art - Lion,U,74,,,,,,,,,,90,4637,,,StudyProc8
IS_JOL B,54,2,3,BlockProc2,Due - Assignment,S,41,,,,,,,,,,90,7514,,,StudyProc8
IS_JOL B,54,2,3,BlockProc2,Fix - Hand,U,70,,,,,,,,,,90,6949,,,StudyProc8
IS_JOL B,54,2,3,BlockProc2,Begin - End,S,49,,,,,,,,,,100,7893,,,StudyProc8
IS_JOL B,54,2,3,BlockProc2,King - Vase,U,80,,,,,,,,,,90,6240,,,StudyProc8
IS_JOL B,54,2,3,BlockProc2,Baby - Child,S,59,,,,,,,,,,90,11269,,,StudyProc8
IS_JOL B,54,2,3,BlockProc2,Cash - Would,U,78,,,,,,,,,,90,12944,,,StudyProc8
IS_JOL B,54,2,3,BlockProc2,Lift - Woman,U,64,,,,,,,,,,100,7713,,,StudyProc8
IS_JOL B,54,2,3,BlockProc2,Past - Future,S,56,,,,,,,,,,90,10083,,,StudyProc8
IS_JOL B,54,2,3,BlockProc2,Wine - Cheese,S,52,,,,,,,,,,80,5342,,,StudyProc8
IS_JOL B,54,2,3,BlockProc2,Location - Site,S,43,,,,,,,,,,90,8039,,,StudyProc8
IS_JOL B,54,2,3,BlockProc2,Bathroom - Toilet,S,53,,,,,,,,,,90,10212,,,StudyProc8
IS_JOL B,54,2,3,BlockProc2,Valley - Add,U,77,,,,,,,,,,90,9114,,,StudyProc8
IS_JOL B,54,2,3,BlockProc2,Sugar - Riddle,U,76,,,,,,,,,,98,5500,,,StudyProc8
IS_JOL B,54,2,3,BlockProc2,Happy - Car,U,72,,,,,,,,,,95,4063,,,StudyProc8
IS_JOL B,54,2,3,BlockProc2,Blow - Wind,S,50,,,,,,,,,,7,8459,,,StudyProc8
IS_JOL B,54,2,3,BlockProc2,Discover - Floor,U,66,,,,,,,,,,90,6504,,,StudyProc8
IS_JOL B,54,2,3,BlockProc2,Pusher - Clutter,U,61,,,,,,,,,,80,8346,,,StudyProc8
IS_JOL B,54,2,3,BlockProc2,Death - Business,U,67,,,,,,,,,,90,7132,,,StudyProc8
IS_JOL B,54,2,3,BlockProc2,Dump - Waste,S,44,,,,,,,,,,90,10620,,,StudyProc8
IS_JOL B,54,2,3,BlockProc2,Debate - Sight,U,68,,,,,,,,,,90,6121,,,StudyProc8
IS_JOL B,54,2,3,BlockProc2,Circle - Round,S,60,,,,,,,,,,90,7483,,,StudyProc8
IS_JOL B,54,2,3,BlockProc2,Machine - Position,U,71,,,,,,,,,,87,6870,,,StudyProc8
IS_JOL B,54,2,3,BlockProc2,Lettuce - Salad,S,54,,,,,,,,,,90,5330,,,StudyProc8
IS_JOL B,54,2,3,BlockProc2,Strong - Accident,U,75,,,,,,,,,,90,12164,,,StudyProc8
IS_JOL B,54,2,3,BlockProc2,Allow - Tuck,U,73,,,,,,,,,,80,8763,,,StudyProc8
IS_JOL B,54,2,3,BlockProc2,Architecture - Design,S,46,,,,,,,,,,8,10788,,,StudyProc8
IS_JOL B,54,2,3,BlockProc2,Artery - Bronze,U,69,,,,,,,,,,90,8090,,,StudyProc8
IS_JOL B,54,2,3,BlockProc2,Number - Amount,S,42,,,,,,,,,,90,6717,,,StudyProc8
IS_JOL B,54,2,3,BlockProc2,Kidney - Liver,S,48,,,,,,,,,,90,7927,,,StudyProc8
IS_JOL B,54,2,3,BlockProc2,Choice - Decision,S,57,,,,,,,,,,90,11385,,,StudyProc8
IS_JOL B,54,2,3,BlockProc2,Pop - Soda,S,51,,,,,,,,,,90,7743,,,StudyProc8
IS_JOL B,54,2,3,BlockProc2,Magician - Magic,,4,,,,,,,,,,,,,,StudyProc6
IS_JOL B,54,2,3,BlockProc2,Mind - Matter,,2,,,,,,,,,,,,,,StudyProc6
IS_JOL B,54,2,3,BlockProc2,Deciet - Cheat,,1,,,,,,,,,,,,,,StudyProc6
IS_JOL B,54,2,3,BlockProc2,Deaf - Hear,,3,,,,,,,,,,,,,,StudyProc6
IS_JOL B,54,2,3,BlockProc2,Contest - Competition,,5,,,,,,,,,,,,,,StudyProc6
IS_JOL B,54,2,3,BlockProc2,Hunger - ?,,35,,,,,,,famine,,,,,,,recallproc2
IS_JOL B,54,2,3,BlockProc2,Math - ?,,28,,,,,,,number,,,,,,,recallproc2
IS_JOL B,54,2,3,BlockProc2,Delinquent - ?,,1,,,,,,,bad,,,,,,,recallproc2
IS_JOL B,54,2,3,BlockProc2,Pusher - ?,,61,,,,,,,complaint,,,,,,,recallproc2
IS_JOL B,54,2,3,BlockProc2,Digestion - ?,,2,,,,,,,stomach,,,,,,,recallproc2
IS_JOL B,54,2,3,BlockProc2,Bridge - ?,,13,,,,,,,river,,,,,,,recallproc2
IS_JOL B,54,2,3,BlockProc2,Debate - ?,,68,,,,,,,argue,,,,,,,recallproc2
IS_JOL B,54,2,3,BlockProc2,Hygiene - ?,,12,,,,,,,clean,,,,,,,recallproc2
IS_JOL B,54,2,3,BlockProc2,Art - ?,,74,,,,,,,painting,,,,,,,recallproc2
IS_JOL B,54,2,3,BlockProc2,Strong - ?,,75,,,,,,,weight,,,,,,,recallproc2
IS_JOL B,54,2,3,BlockProc2,Law - ?,,29,,,,,,,lega,,,,,,,recallproc2
IS_JOL B,54,2,3,BlockProc2,Bathroom - ?,,53,,,,,,,toielt,,,,,,,recallproc2
IS_JOL B,54,2,3,BlockProc2,Discussion - ?,,16,,,,,,,talk,,,,,,,recallproc2
IS_JOL B,54,2,3,BlockProc2,Location - ?,,43,,,,,,,here,,,,,,,recallproc2
IS_JOL B,54,2,3,BlockProc2,Full - ?,,21,,,,,,,ill,,,,,,,recallproc2
IS_JOL B,54,2,3,BlockProc2,Height - ?,,25,,,,,,,weight,,,,,,,recallproc2
IS_JOL B,54,2,3,BlockProc2,Happy - ?,,72,,,,,,,good,,,,,,,recallproc2
IS_JOL B,54,2,3,BlockProc2,Ball - ?,,33,,,,,,,court,,,,,,,recallproc2
IS_JOL B,54,2,3,BlockProc2,Bug - ?,,27,,,,,,,wasp,,,,,,,recallproc2
IS_JOL B,54,2,3,BlockProc2,Drink - ?,,22,,,,,,,bar,,,,,,,recallproc2
IS_JOL B,54,2,3,BlockProc2,Grill - ?,,47,,,,,,,food,,,,,,,recallproc2
IS_JOL B,54,2,3,BlockProc2,Key - ?,,31,,,,,,,car,,,,,,,recallproc2
IS_JOL B,54,2,3,BlockProc2,Due - ?,,41,,,,,,,assignmnet,,,,,,,recallproc2
IS_JOL B,54,2,3,BlockProc2,Dump - ?,,44,,,,,,,trash,,,,,,,recallproc2
IS_JOL B,54,2,3,BlockProc2,Hornet - ?,,6,,,,,,,bug,,,,,,,recallproc2
IS_JOL B,54,2,3,BlockProc2,Death - ?,,67,,,,,,,burried,,,,,,,recallproc2
IS_JOL B,54,2,3,BlockProc2,Cash - ?,,78,,,,,,,bank,,,,,,,recallproc2
IS_JOL B,54,2,3,BlockProc2,Sleep - ?,,36,,,,,,,drowsy,,,,,,,recallproc2
IS_JOL B,54,2,3,BlockProc2,Begin - ?,,49,,,,,,,end,,,,,,,recallproc2
IS_JOL B,54,2,3,BlockProc2,Clothes - ?,,38,,,,,,,attire,,,,,,,recallproc2
IS_JOL B,54,2,3,BlockProc2,Orchid - ?,,19,,,,,,,flower,,,,,,,recallproc2
IS_JOL B,54,2,3,BlockProc2,Sugar - ?,,76,,,,,,,sweeet,,,,,,,recallproc2
IS_JOL B,54,2,3,BlockProc2,Fire - ?,,40,,,,,,,flame,,,,,,,recallproc2
IS_JOL B,54,2,3,BlockProc2,Dark - ?,,23,,,,,,,cave,,,,,,,recallproc2
IS_JOL B,54,2,3,BlockProc2,Blow - ?,,50,,,,,,,wind,,,,,,,recallproc2
IS_JOL B,54,2,3,BlockProc2,Chisel - ?,,4,,,,,,,hammer,,,,,,,recallproc2
IS_JOL B,54,2,3,BlockProc2,Way - ?,,11,,,,,,,direction,,,,,,,recallproc2
IS_JOL B,54,2,3,BlockProc2,Bitter - ?,,7,,,,,,,sour,,,,,,,recallproc2
IS_JOL B,54,2,3,BlockProc2,Valley - ?,,77,,,,,,,mountain,,,,,,,recallproc2
IS_JOL B,54,2,3,BlockProc2,Root - ?,,8,,,,,,,tree,,,,,,,recallproc2
IS_JOL B,54,2,3,BlockProc2,Kidney - ?,,48,,,,,,,liver,,,,,,,recallproc2
IS_JOL B,54,2,3,BlockProc2,Trial - ?,,45,,,,,,,jury,,,,,,,recallproc2
IS_JOL B,54,2,3,BlockProc2,Work - ?,,34,,,,,,,assignment,,,,,,,recallproc2
IS_JOL B,54,2,3,BlockProc2,Sentence - ?,,26,,,,,,,word,,,,,,,recallproc2
IS_JOL B,54,2,3,BlockProc2,Shoe - ?,,55,,,,,,,lace,,,,,,,recallproc2
IS_JOL B,54,2,3,BlockProc2,Take - ?,,24,,,,,,,grab,,,,,,,recallproc2
IS_JOL B,54,2,3,BlockProc2,Dietary - ?,,62,,,,,,,food,,,,,,,recallproc2
IS_JOL B,54,2,3,BlockProc2,Credit - ?,,18,,,,,,,card,,,,,,,recallproc2
IS_JOL B,54,2,3,BlockProc2,Choice - ?,,57,,,,,,,option,,,,,,,recallproc2
IS_JOL B,54,2,3,BlockProc2,Geology - ?,,14,,,,,,,rock,,,,,,,recallproc2
IS_JOL B,54,2,3,BlockProc2,Discover - ?,,66,,,,,,,new,,,,,,,recallproc2
IS_JOL B,54,2,3,BlockProc2,Park - ?,,63,,,,,,,place,,,,,,,recallproc2
IS_JOL B,54,2,3,BlockProc2,Editor - ?,,5,,,,,,,writter,,,,,,,recallproc2
IS_JOL B,54,2,3,BlockProc2,Paw - ?,,10,,,,,,,dog,,,,,,,recallproc2
IS_JOL B,54,2,3,BlockProc2,Soon - ?,,65,,,,,,,after,,,,,,,recallproc2
IS_JOL B,54,2,3,BlockProc2,Architecture - ?,,46,,,,,,,paint,,,,,,,recallproc2
IS_JOL B,54,2,3,BlockProc2,Number - ?,,42,,,,,,,math,,,,,,,recallproc2
IS_JOL B,54,2,3,BlockProc2,Allow - ?,,73,,,,,,,give,,,,,,,recallproc2
IS_JOL B,54,2,3,BlockProc2,Fix - ?,,70,,,,,,,broken,,,,,,,recallproc2
IS_JOL B,54,2,3,BlockProc2,Great - ?,,30,,,,,,,fantastic,,,,,,,recallproc2
IS_JOL B,54,2,3,BlockProc2,Lettuce - ?,,54,,,,,,,salad,,,,,,,recallproc2
IS_JOL B,54,2,3,BlockProc2,Hide - ?,,79,,,,,,,secret,,,,,,,recallproc2
IS_JOL B,54,2,3,BlockProc2,Hot - ?,,32,,,,,,,warm,,,,,,,recallproc2
IS_JOL B,54,2,3,BlockProc2,Honey - ?,,58,,,,,,,sweet,,,,,,,recallproc2
IS_JOL B,54,2,3,BlockProc2,Pop - ?,,51,,,,,,,soad,,,,,,,recallproc2
IS_JOL B,54,2,3,BlockProc2,Herd - ?,,17,,,,,,,animal,,,,,,,recallproc2
IS_JOL B,54,2,3,BlockProc2,King - ?,,80,,,,,,,queen,,,,,,,recallproc2
IS_JOL B,54,2,3,BlockProc2,Swan - ?,,9,,,,,,,bird,,,,,,,recallproc2
IS_JOL B,54,2,3,BlockProc2,Artery - ?,,69,,,,,,,vein,,,,,,,recallproc2
IS_JOL B,54,2,3,BlockProc2,Baby - ?,,59,,,,,,,children,,,,,,,recallproc2
IS_JOL B,54,2,3,BlockProc2,Plane - ?,,39,,,,,,,piolet,,,,,,,recallproc2
IS_JOL B,54,2,3,BlockProc2,Machine - ?,,71,,,,,,,efficient,,,,,,,recallproc2
IS_JOL B,54,2,3,BlockProc2,Tuna - ?,,20,,,,,,,fish,,,,,,,recallproc2
IS_JOL B,54,2,3,BlockProc2,Revolution - ?,,15,,,,,,,new,,,,,,,recallproc2
IS_JOL B,54,2,3,BlockProc2,Lift - ?,,64,,,,,,,up,,,,,,,recallproc2
IS_JOL B,54,2,3,BlockProc2,Smell - ?,,37,,,,,,,stench,,,,,,,recallproc2
IS_JOL B,54,2,3,BlockProc2,Wine - ?,,52,,,,,,,cheese,,,,,,,recallproc2
IS_JOL B,54,2,3,BlockProc2,Circle - ?,,60,,,,,,,round,,,,,,,recallproc2
IS_JOL B,54,2,3,BlockProc2,Wage - ?,,3,,,,,,,money,,,,,,,recallproc2
IS_JOL B,54,2,3,BlockProc2,Past - ?,,56,,,,,,,future,,,,,,,recallproc2
IS_JOL C,55,1,,BlockProc1,Deaf-Mute,,2,,,,,,,,,,,,,,Practice1
IS_JOL C,55,1,,BlockProc1,Hinge-Swing,,5,,,,,,,,,,,,,,Practice1
IS_JOL C,55,1,,BlockProc1,Behavior-Social,,9,,,,,,,,,,,,,,Practice1
IS_JOL C,55,1,,BlockProc1,Chocolate-Bar,,7,,,,,,,,,,,,,,Practice1
IS_JOL C,55,1,,BlockProc1,Ham-Bone,,3,,,,,,,,,,,,,,Practice1
IS_JOL C,55,1,,BlockProc1,Fashion-Model,,10,,,,,,,,,,,,,,Practice1
IS_JOL C,55,1,,BlockProc1,Disbelieve-Skeptic,,6,,,,,,,,,,,,,,Practice1
IS_JOL C,55,1,,BlockProc1,Aardvark-Zoo,,1,,,,,,,,,,,,,,Practice1
IS_JOL C,55,1,,BlockProc1,Chime-Music,,8,,,,,,,,,,,,,,Practice1
IS_JOL C,55,1,,BlockProc1,Paddle-Row,,4,,,,,,,,,,,,,,Practice1
IS_JOL C,55,1,3,BlockProc1,Haircut-Scissors,,1,,,,,,,,,,,,,,StudyProc1
IS_JOL C,55,1,3,BlockProc1,Shrimp - Fish,,4,,,,,,,,,,,,,,StudyProc1
IS_JOL C,55,1,3,BlockProc1,Snow - Ice,,3,,,,,,,,,,,,,,StudyProc1
IS_JOL C,55,1,3,BlockProc1,Member - Group,,5,,,,,,,,,,,,,,StudyProc1
IS_JOL C,55,1,3,BlockProc1,Curtain - Drapes,,2,,,,,,,,,,,,,,StudyProc1
IS_JOL C,55,1,3,BlockProc1,Clutter - Pusher,U,61,40,23229,,,,,,,,,,,,StudyProc3
IS_JOL C,55,1,3,BlockProc1,Amount - Number,S,42,50,17945,,,,,,,,,,,,StudyProc3
IS_JOL C,55,1,3,BlockProc1,Accident - Strong,U,75,30,11738,,,,,,,,,,,,StudyProc3
IS_JOL C,55,1,3,BlockProc1,Belt - Soon,U,65,40,7530,,,,,,,,,,,,StudyProc3
IS_JOL C,55,1,3,BlockProc1,Decision - Choise,S,57,40,52940,,,,,,,,,,,,StudyProc3
IS_JOL C,55,1,3,BlockProc1,Sight - Debate,U,68,50,7793,,,,,,,,,,,,StudyProc3
IS_JOL C,55,1,3,BlockProc1,Soda - Pop,S,51,30,13936,,,,,,,,,,,,StudyProc3
IS_JOL C,55,1,3,BlockProc1,Wind - Blow,S,50,40,10601,,,,,,,,,,,,StudyProc3
IS_JOL C,55,1,3,BlockProc1,Position - Machine,U,71,40,13007,,,,,,,,,,,,StudyProc3
IS_JOL C,55,1,3,BlockProc1,Child - Baby,S,59,30,10197,,,,,,,,,,,,StudyProc3
IS_JOL C,55,1,3,BlockProc1,Assignment - Due,S,41,30,11924,,,,,,,,,,,,StudyProc3
IS_JOL C,55,1,3,BlockProc1,Site - Location,S,43,40,16989,,,,,,,,,,,,StudyProc3
IS_JOL C,55,1,3,BlockProc1,Salad - Lettuce,S,54,34,15395,,,,,,,,,,,,StudyProc3
IS_JOL C,55,1,3,BlockProc1,Add - Valley,U,77,23,12689,,,,,,,,,,,,StudyProc3
IS_JOL C,55,1,3,BlockProc1,Toilet - Bathroom,S,53,45,7748,,,,,,,,,,,,StudyProc3
IS_JOL C,55,1,3,BlockProc1,Business - Death,U,67,50,25229,,,,,,,,,,,,StudyProc3
IS_JOL C,55,1,3,BlockProc1,End - Begin,S,49,45,9337,,,,,,,,,,,,StudyProc3
IS_JOL C,55,1,3,BlockProc1,Jury - Trial,S,45,56,12722,,,,,,,,,,,,StudyProc3
IS_JOL C,55,1,3,BlockProc1,Hungry - Park,U,63,60,12915,,,,,,,,,,,,StudyProc3
IS_JOL C,55,1,3,BlockProc1,Tuck - Allow,U,73,40,11052,,,,,,,,,,,,StudyProc3
IS_JOL C,55,1,3,BlockProc1,Sacking -Dietary,U,62,23,16408,,,,,,,,,,,,StudyProc3
IS_JOL C,55,1,3,BlockProc1,Vase - King,U,80,45,7270,,,,,,,,,,,,StudyProc3
IS_JOL C,55,1,3,BlockProc1,Hand - Fix,U,70,56,8833,,,,,,,,,,,,StudyProc3
IS_JOL C,55,1,3,BlockProc1,Round - Circle,S,60,45,11231,,,,,,,,,,,,StudyProc3
IS_JOL C,55,1,3,BlockProc1,Design - Architecture,S,46,56,12260,,,,,,,,,,,,StudyProc3
IS_JOL C,55,1,3,BlockProc1,Car - Happy,U,72,67,16256,,,,,,,,,,,,StudyProc3
IS_JOL C,55,1,3,BlockProc1,Would - Cash,U,78,67,13339,,,,,,,,,,,,StudyProc3
IS_JOL C,55,1,3,BlockProc1,Floor - Discover,U,66,34,11964,,,,,,,,,,,,StudyProc3
IS_JOL C,55,1,3,BlockProc1,Bee - Honey,S,58,78,13276,,,,,,,,,,,,StudyProc3
IS_JOL C,55,1,3,BlockProc1,Foot - Shoe,S,55,90,8375,,,,,,,,,,,,StudyProc3
IS_JOL C,55,1,3,BlockProc1,Bar - Grill,S,47,90,7718,,,,,,,,,,,,StudyProc3
IS_JOL C,55,1,3,BlockProc1,Liver - Kidney,S,48,90,21904,,,,,,,,,,,,StudyProc3
IS_JOL C,55,1,3,BlockProc1,Waste - Dump,S,44,90,9105,,,,,,,,,,,,StudyProc3
IS_JOL C,55,1,3,BlockProc1,Riddle - Sugar,U,76,90,15787,,,,,,,,,,,,StudyProc3
IS_JOL C,55,1,3,BlockProc1,Woman - Lift,U,64,56,12873,,,,,,,,,,,,StudyProc3
IS_JOL C,55,1,3,BlockProc1,Future - Past,S,56,90,6084,,,,,,,,,,,,StudyProc3
IS_JOL C,55,1,3,BlockProc1,Bronze - Artery,U,69,56,12424,,,,,,,,,,,,StudyProc3
IS_JOL C,55,1,3,BlockProc1,Lion - Art,U,74,45,15861,,,,,,,,,,,,StudyProc3
IS_JOL C,55,1,3,BlockProc1,Cheese - Wine,S,52,56,9753,,,,,,,,,,,,StudyProc3
IS_JOL C,55,1,3,BlockProc1,Sick - Hide,U,79,89,7361,,,,,,,,,,,,StudyProc3
IS_JOL C,55,1,3,BlockProc1,Rock - Geology,F,14,,,,,,,,89,11641,,,,,StudyProc7
IS_JOL C,55,1,3,BlockProc1,Hammer - Chisel,F,4,,,,,,,,90,11758,,,,,StudyProc7
IS_JOL C,55,1,3,BlockProc1,Growth - Height,B,25,,,,,,,,90,10517,,,,,StudyProc7
IS_JOL C,55,1,3,BlockProc1,Pilot - Plane,B,39,,,,,,,,90,14807,,,,,StudyProc7
IS_JOL C,55,1,3,BlockProc1,Attorney - Law,B,29,,,,,,,,90,13317,,,,,StudyProc7
IS_JOL C,55,1,3,BlockProc1,Enough - Full,B,21,,,,,,,,90,11175,,,,,StudyProc7
IS_JOL C,55,1,3,BlockProc1,Sip - Drink,B,22,,,,,,,,90,14094,,,,,StudyProc7
IS_JOL C,55,1,3,BlockProc1,Bad - Delinquent,F,1,,,,,,,,78,11088,,,,,StudyProc7
IS_JOL C,55,1,3,BlockProc1,Seize - Take,B,24,,,,,,,,89,13267,,,,,StudyProc7
IS_JOL C,55,1,3,BlockProc1,Stomach - Digestion,F,2,,,,,,,,90,14495,,,,,StudyProc7
IS_JOL C,55,1,3,BlockProc1,Talk - Discussion,F,16,,,,,,,,90,8057,,,,,StudyProc7
IS_JOL C,55,1,3,BlockProc1,Clean - Hygiene,F,12,,,,,,,,90,11573,,,,,StudyProc7
IS_JOL C,55,1,3,BlockProc1,News - Editor,F,5,,,,,,,,78,12949,,,,,StudyProc7
IS_JOL C,55,1,3,BlockProc1,Drowsy - Sleep,B,36,,,,,,,,90,10821,,,,,StudyProc7
IS_JOL C,55,1,3,BlockProc1,Stench - Smell,B,37,,,,,,,,89,11162,,,,,StudyProc7
IS_JOL C,55,1,3,BlockProc1,Blaze - Fire,B,40,,,,,,,,89,18266,,,,,StudyProc7
IS_JOL C,55,1,3,BlockProc1,Fantastic - Great,B,30,,,,,,,,90,10110,,,,,StudyProc7
IS_JOL C,55,1,3,BlockProc1,Division - Math,B,28,,,,,,,,90,18136,,,,,StudyProc7
IS_JOL C,55,1,3,BlockProc1,Card - Credit,F,18,,,,,,,,89,18000,,,,,StudyProc7
IS_JOL C,55,1,3,BlockProc1,Famine - Hunger,B,35,,,,,,,,90,11478,,,,,StudyProc7
IS_JOL C,55,1,3,BlockProc1,Flower - Orchid,F,19,,,,,,,,90,10537,,,,,StudyProc7
IS_JOL C,55,1,3,BlockProc1,Sting - Hornet,F,6,,,,,,,,78,14938,,,,,StudyProc7
IS_JOL C,55,1,3,BlockProc1,Chili - Hot,B,32,,,,,,,,90,12042,,,,,StudyProc7
IS_JOL C,55,1,3,BlockProc1,Money - Wage,F,3,,,,,,,,90,8838,,,,,StudyProc7
IS_JOL C,55,1,3,BlockProc1,Plant - Root,F,8,,,,,,,,89,11859,,,,,StudyProc7
IS_JOL C,55,1,3,BlockProc1,Bird - Swan,F,9,,,,,,,,90,14279,,,,,StudyProc7
IS_JOL C,55,1,3,BlockProc1,Out - Way,F,11,,,,,,,,34,11194,,,,,StudyProc7
IS_JOL C,55,1,3,BlockProc1,Cave - Dark,B,23,,,,,,,,78,15353,,,,,StudyProc7
IS_JOL C,55,1,3,BlockProc1,Cow - Herd,F,17,,,,,,,,78,14608,,,,,StudyProc7
IS_JOL C,55,1,3,BlockProc1,Attire - Clothes,B,38,,,,,,,,89,12966,,,,,StudyProc7
IS_JOL C,55,1,3,BlockProc1,Latch - Key,B,31,,,,,,,,89,14678,,,,,StudyProc7
IS_JOL C,55,1,3,BlockProc1,Cold - Bitter,F,7,,,,,,,,89,18857,,,,,StudyProc7
IS_JOL C,55,1,3,BlockProc1,Dog - Paw,F,10,,,,,,,,90,11164,,,,,StudyProc7
IS_JOL C,55,1,3,BlockProc1,War - Revolution,F,15,,,,,,,,90,17204,,,,,StudyProc7
IS_JOL C,55,1,3,BlockProc1,Wasp - Bug,B,27,,,,,,,,78,21842,,,,,StudyProc7
IS_JOL C,55,1,3,BlockProc1,Racket - Ball,B,33,,,,,,,,89,10605,,,,,StudyProc7
IS_JOL C,55,1,3,BlockProc1,Chore - Work,B,34,,,,,,,,90,10843,,,,,StudyProc7
IS_JOL C,55,1,3,BlockProc1,Word - Sentence,B,26,,,,,,,,78,10016,,,,,StudyProc7
IS_JOL C,55,1,3,BlockProc1,Water - Bridge,F,13,,,,,,,,89,10942,,,,,StudyProc7
IS_JOL C,55,1,3,BlockProc1,Fish - Tuna,F,20,,,,,,,,89,11311,,,,,StudyProc7
IS_JOL C,55,1,3,BlockProc1,Trees - Green,,5,,,,,,,,,,,,,,StudyProc2
IS_JOL C,55,1,3,BlockProc1,Catcher - Baseball,,4,,,,,,,,,,,,,,StudyProc2
IS_JOL C,55,1,3,BlockProc1,Grab - Take,,2,,,,,,,,,,,,,,StudyProc2
IS_JOL C,55,1,3,BlockProc1,Friendliness - Nice,,3,,,,,,,,,,,,,,StudyProc2
IS_JOL C,55,1,3,BlockProc1,Geese - Goose,,1,,,,,,,,,,,,,,StudyProc2
IS_JOL C,55,1,3,BlockProc1,Bee - ?,,58,,,,,honey,3391,,,,,,,,recallproc1
IS_JOL C,55,1,3,BlockProc1,Foot - ?,,55,,,,,shoe,2534,,,,,,,,recallproc1
IS_JOL C,55,1,3,BlockProc1,Clutter - ?,,61,,,,,pusher,2856,,,,,,,,recallproc1
IS_JOL C,55,1,3,BlockProc1,Salad - ?,,54,,,,,lettuce,2884,,,,,,,,recallproc1
IS_JOL C,55,1,3,BlockProc1,Chore - ?,,34,,,,,work,1616,,,,,,,,recallproc1
IS_JOL C,55,1,3,BlockProc1,Sick - ?,,79,,,,,ill,9007,,,,,,,,recallproc1
IS_JOL C,55,1,3,BlockProc1,Decision - ?,,57,,,,,choise,2725,,,,,,,,recallproc1
IS_JOL C,55,1,3,BlockProc1,Card - ?,,18,,,,,credit,3366,,,,,,,,recallproc1
IS_JOL C,55,1,3,BlockProc1,News - ?,,5,,,,,editor,3055,,,,,,,,recallproc1
IS_JOL C,55,1,3,BlockProc1,Waste - ?,,44,,,,,dump,1979,,,,,,,,recallproc1
IS_JOL C,55,1,3,BlockProc1,Lion - ?,,74,,,,,art,4491,,,,,,,,recallproc1
IS_JOL C,55,1,3,BlockProc1,Wasp - ?,,27,,,,,bug,6142,,,,,,,,recallproc1
IS_JOL C,55,1,3,BlockProc1,Add - ?,,77,,,,,math,2031,,,,,,,,recallproc1
IS_JOL C,55,1,3,BlockProc1,Child - ?,,59,,,,,baby,3229,,,,,,,,recallproc1
IS_JOL C,55,1,3,BlockProc1,Cheese - ?,,52,,,,,wine,4219,,,,,,,,recallproc1
IS_JOL C,55,1,3,BlockProc1,Woman - ?,,64,,,,,girl,10240,,,,,,,,recallproc1
IS_JOL C,55,1,3,BlockProc1,Water - ?,,13,,,,,bridge,3093,,,,,,,,recallproc1
IS_JOL C,55,1,3,BlockProc1,Hammer - ?,,4,,,,,chisel,5192,,,,,,,,recallproc1
IS_JOL C,55,1,3,BlockProc1,Jury - ?,,45,,,,,trial,1975,,,,,,,,recallproc1
IS_JOL C,55,1,3,BlockProc1,Rock - ?,,14,,,,,geology,2911,,,,,,,,recallproc1
IS_JOL C,55,1,3,BlockProc1,Stench - ?,,37,,,,,smell,2282,,,,,,,,recallproc1
IS_JOL C,55,1,3,BlockProc1,Latch - ?,,31,,,,,keyt,1909,,,,,,,,recallproc1
IS_JOL C,55,1,3,BlockProc1,Seize - ?,,24,,,,,take,3784,,,,,,,,recallproc1
IS_JOL C,55,1,3,BlockProc1,Growth - ?,,25,,,,,height,2320,,,,,,,,recallproc1
IS_JOL C,55,1,3,BlockProc1,Attorney - ?,,29,,,,,law,1521,,,,,,,,recallproc1
IS_JOL C,55,1,3,BlockProc1,Belt - ?,,65,,,,,waste,8498,,,,,,,,recallproc1
IS_JOL C,55,1,3,BlockProc1,Bird - ?,,9,,,,,swan,8774,,,,,,,,recallproc1
IS_JOL C,55,1,3,BlockProc1,Bad - ?,,1,,,,,terrible,10366,,,,,,,,recallproc1
IS_JOL C,55,1,3,BlockProc1,Hand - ?,,70,,,,,arm,8286,,,,,,,,recallproc1
IS_JOL C,55,1,3,BlockProc1,Tuck - ?,,73,,,,,shirt,3936,,,,,,,,recallproc1
IS_JOL C,55,1,3,BlockProc1,Fish - ?,,20,,,,,tuna,4065,,,,,,,,recallproc1
IS_JOL C,55,1,3,BlockProc1,Vase - ?,,80,,,,,flower,5134,,,,,,,,recallproc1
IS_JOL C,55,1,3,BlockProc1,Position - ?,,71,,,,,specific,17751,,,,,,,,recallproc1
IS_JOL C,55,1,3,BlockProc1,Enough - ?,,21,,,,,full,2536,,,,,,,,recallproc1
IS_JOL C,55,1,3,BlockProc1,Dog - ?,,10,,,,,paw,3865,,,,,,,,recallproc1
IS_JOL C,55,1,3,BlockProc1,Round - ?,,60,,,,,circle,2189,,,,,,,,recallproc1
IS_JOL C,55,1,3,BlockProc1,End - ?,,49,,,,,begin,3524,,,,,,,,recallproc1
IS_JOL C,55,1,3,BlockProc1,Soda - ?,,51,,,,,pop,3918,,,,,,,,recallproc1
IS_JOL C,55,1,3,BlockProc1,Famine - ?,,35,,,,,hunger,2504,,,,,,,,recallproc1
IS_JOL C,55,1,3,BlockProc1,Site - ?,,43,,,,,location,3586,,,,,,,,recallproc1
IS_JOL C,55,1,3,BlockProc1,Car - ?,,72,,,,,happy,4073,,,,,,,,recallproc1
IS_JOL C,55,1,3,BlockProc1,Wind - ?,,50,,,,,blow,1717,,,,,,,,recallproc1
IS_JOL C,55,1,3,BlockProc1,Fantastic - ?,,30,,,,,great,1888,,,,,,,,recallproc1
IS_JOL C,55,1,3,BlockProc1,Assignment - ?,,41,,,,,due,2283,,,,,,,,recallproc1
IS_JOL C,55,1,3,BlockProc1,Liver - ?,,48,,,,,kidney,2671,,,,,,,,recallproc1
IS_JOL C,55,1,3,BlockProc1,Word - ?,,26,,,,,sentence,2619,,,,,,,,recallproc1
IS_JOL C,55,1,3,BlockProc1,Out - ?,,11,,,,,it,2856,,,,,,,,recallproc1
IS_JOL C,55,1,3,BlockProc1,Hungry - ?,,63,,,,,food,2941,,,,,,,,recallproc1
IS_JOL C,55,1,3,BlockProc1,Cave - ?,,23,,,,,dark,3542,,,,,,,,recallproc1
IS_JOL C,55,1,3,BlockProc1,Chili - ?,,32,,,,,hot,1407,,,,,,,,recallproc1
IS_JOL C,55,1,3,BlockProc1,Clean - ?,,12,,,,,hygene,5510,,,,,,,,recallproc1
IS_JOL C,55,1,3,BlockProc1,War - ?,,15,,,,,revolution,3696,,,,,,,,recallproc1
IS_JOL C,55,1,3,BlockProc1,Design - ?,,46,,,,,fashion,2931,,,,,,,,recallproc1
IS_JOL C,55,1,3,BlockProc1,Toilet - ?,,53,,,,,bathroom,4573,,,,,,,,recallproc1
IS_JOL C,55,1,3,BlockProc1,Stomach - ?,,2,,,,,hunger,6157,,,,,,,,recallproc1
IS_JOL C,55,1,3,BlockProc1,Cow - ?,,17,,,,,herd,12165,,,,,,,,recallproc1
IS_JOL C,55,1,3,BlockProc1,Riddle - ?,,76,,,,,question,18581,,,,,,,,recallproc1
IS_JOL C,55,1,3,BlockProc1,Amount - ?,,42,,,,,money,5883,,,,,,,,recallproc1
IS_JOL C,55,1,3,BlockProc1,Sacking - ?,,62,,,,,football,8247,,,,,,,,recallproc1
IS_JOL C,55,1,3,BlockProc1,Floor - ?,,66,,,,,ceiling,4420,,,,,,,,recallproc1
IS_JOL C,55,1,3,BlockProc1,Bar - ?,,47,,,,,grill,1777,,,,,,,,recallproc1
IS_JOL C,55,1,3,BlockProc1,Blaze - ?,,40,,,,,fire,1489,,,,,,,,recallproc1
IS_JOL C,55,1,3,BlockProc1,Talk - ?,,16,,,,,discuss,3621,,,,,,,,recallproc1
IS_JOL C,55,1,3,BlockProc1,Flower - ?,,19,,,,,vase,1898,,,,,,,,recallproc1
IS_JOL C,55,1,3,BlockProc1,Business - ?,,67,,,,,death,4637,,,,,,,,recallproc1
IS_JOL C,55,1,3,BlockProc1,Sight - ?,,68,,,,,sound,7419,,,,,,,,recallproc1
IS_JOL C,55,1,3,BlockProc1,Division - ?,,28,,,,,math,1720,,,,,,,,recallproc1
IS_JOL C,55,1,3,BlockProc1,Attire - ?,,38,,,,,clothes,4034,,,,,,,,recallproc1
IS_JOL C,55,1,3,BlockProc1,Pilot - ?,,39,,,,,plane,1872,,,,,,,,recallproc1
IS_JOL C,55,1,3,BlockProc1,Would - ?,,78,,,,,talk,13483,,,,,,,,recallproc1
IS_JOL C,55,1,3,BlockProc1,Money - ?,,3,,,,,amount,7647,,,,,,,,recallproc1
IS_JOL C,55,1,3,BlockProc1,Sip - ?,,22,,,,,drink,2811,,,,,,,,recallproc1
IS_JOL C,55,1,3,BlockProc1,Accident - ?,,75,,,,,purpose,3826,,,,,,,,recallproc1
IS_JOL C,55,1,3,BlockProc1,Racket - ?,,33,,,,,ball,2128,,,,,,,,recallproc1
IS_JOL C,55,1,3,BlockProc1,Drowsy - ?,,36,,,,,sleep,2097,,,,,,,,recallproc1
IS_JOL C,55,1,3,BlockProc1,Bronze - ?,,69,,,,,artery,2509,,,,,,,,recallproc1
IS_JOL C,55,1,3,BlockProc1,Cold - ?,,7,,,,,ice,6343,,,,,,,,recallproc1
IS_JOL C,55,1,3,BlockProc1,Future - ?,,56,,,,,past,1928,,,,,,,,recallproc1
IS_JOL C,55,1,3,BlockProc1,Sting - ?,,6,,,,,yellowjacket,16410,,,,,,,,recallproc1
IS_JOL C,55,1,3,BlockProc1,Plant - ?,,8,,,,,roots,3263,,,,,,,,recallproc1
IS_JOL C,55,2,3,BlockProc2,Essay - Write,,4,,,,,,,,,,,,,,StudyProc4
IS_JOL C,55,2,3,BlockProc2,Hide - Scare,,2,,,,,,,,,,,,,,StudyProc4
IS_JOL C,55,2,3,BlockProc2,Malt - Chocolate,,5,,,,,,,,,,,,,,StudyProc4
IS_JOL C,55,2,3,BlockProc2,Disintegrate - Disappear,,3,,,,,,,,,,,,,,StudyProc4
IS_JOL C,55,2,3,BlockProc2,Sheriff - Police,,1,,,,,,,,,,,,,,StudyProc4
IS_JOL C,55,2,3,BlockProc2,Lie - Truth,S,53,,,67,7951,,,,,,,,,,StudyProc5
IS_JOL C,55,2,3,BlockProc2,Seatbelt - Safety,S,52,,,90,9625,,,,,,,,,,StudyProc5
IS_JOL C,55,2,3,BlockProc2,Ounce - Both,U,77,,,90,10238,,,,,,,,,,StudyProc5
IS_JOL C,55,2,3,BlockProc2,Drink - Water,S,48,,,89,11251,,,,,,,,,,StudyProc5
IS_JOL C,55,2,3,BlockProc2,Scar - Main,U,80,,,90,20927,,,,,,,,,,StudyProc5
IS_JOL C,55,2,3,BlockProc2,Charm - Vehicle,U,65,,,90,12504,,,,,,,,,,StudyProc5
IS_JOL C,55,2,3,BlockProc2,Able - Crackle,U,67,,,78,14193,,,,,,,,,,StudyProc5
IS_JOL C,55,2,3,BlockProc2,Noise - Loud,S,57,,,89,15360,,,,,,,,,,StudyProc5
IS_JOL C,55,2,3,BlockProc2,Carbon - Element,S,46,,,90,12759,,,,,,,,,,StudyProc5
IS_JOL C,55,2,3,BlockProc2,Shave - Razor,S,41,,,78,9143,,,,,,,,,,StudyProc5
IS_JOL C,55,2,3,BlockProc2,Temper - Tantrum,S,59,,,90,10864,,,,,,,,,,StudyProc5
IS_JOL C,55,2,3,BlockProc2,Wet - Dry,S,51,,,89,8364,,,,,,,,,,StudyProc5
IS_JOL C,55,2,3,BlockProc2,Election - Maze,U,64,,,67,23204,,,,,,,,,,StudyProc5
IS_JOL C,55,2,3,BlockProc2,Reel - Rod,S,55,,,89,26769,,,,,,,,,,StudyProc5
IS_JOL C,55,2,3,BlockProc2,Jar - Mason,S,43,,,90,11216,,,,,,,,,,StudyProc5
IS_JOL C,55,2,3,BlockProc2,Fiction - Listen,U,69,,,78,10486,,,,,,,,,,StudyProc5
IS_JOL C,55,2,3,BlockProc2,Sign - Loan,U,76,,,90,13000,,,,,,,,,,StudyProc5
IS_JOL C,55,2,3,BlockProc2,Equal - Rights,S,42,,,89,13254,,,,,,,,,,StudyProc5
IS_JOL C,55,2,3,BlockProc2,Cloth - Stretch,U,62,,,90,14434,,,,,,,,,,StudyProc5
IS_JOL C,55,2,3,BlockProc2,Tan - Sun,S,60,,,90,13591,,,,,,,,,,StudyProc5
IS_JOL C,55,2,3,BlockProc2,Clothes - Cake,U,71,,,67,10726,,,,,,,,,,StudyProc5
IS_JOL C,55,2,3,BlockProc2,Have - Own,S,58,,,90,11591,,,,,,,,,,StudyProc5
IS_JOL C,55,2,3,BlockProc2,Away - Gone,S,47,,,89,13325,,,,,,,,,,StudyProc5
IS_JOL C,55,2,3,BlockProc2,Communication - Phone,S,54,,,90,14383,,,,,,,,,,StudyProc5
IS_JOL C,55,2,3,BlockProc2,Morning - Temperature,U,78,,,90,10918,,,,,,,,,,StudyProc5
IS_JOL C,55,2,3,BlockProc2,Wax - Candle,S,44,,,89,20615,,,,,,,,,,StudyProc5
IS_JOL C,55,2,3,BlockProc2,Hate - Name,U,72,,,67,8981,,,,,,,,,,StudyProc5
IS_JOL C,55,2,3,BlockProc2,Children - Mirror,U,79,,,67,10267,,,,,,,,,,StudyProc5
IS_JOL C,55,2,3,BlockProc2,Steak - Give,U,63,,,67,13072,,,,,,,,,,StudyProc5
IS_JOL C,55,2,3,BlockProc2,Bracelet - Wrist,S,45,,,89,11355,,,,,,,,,,StudyProc5
IS_JOL C,55,2,3,BlockProc2,Lonely - Alone,S,50,,,89,8155,,,,,,,,,,StudyProc5
IS_JOL C,55,2,3,BlockProc2,Bang - Fuzzy,U,73,,,90,15082,,,,,,,,,,StudyProc5
IS_JOL C,55,2,3,BlockProc2,Tick - Flea,S,56,,,90,16198,,,,,,,,,,StudyProc5
IS_JOL C,55,2,3,BlockProc2,Shake - Shell,U,68,,,67,15061,,,,,,,,,,StudyProc5
IS_JOL C,55,2,3,BlockProc2,Obtain - Meat,U,66,,,89,12335,,,,,,,,,,StudyProc5
IS_JOL C,55,2,3,BlockProc2,Maroon - Justice,U,61,,,89,10585,,,,,,,,,,StudyProc5
IS_JOL C,55,2,3,BlockProc2,Joke - Keys,U,70,,,45,10008,,,,,,,,,,StudyProc5
IS_JOL C,55,2,3,BlockProc2,Clear - Moat,U,74,,,34,11822,,,,,,,,,,StudyProc5
IS_JOL C,55,2,3,BlockProc2,Ground - Earth,S,49,,,90,9210,,,,,,,,,,StudyProc5
IS_JOL C,55,2,3,BlockProc2,Toil - Lease,U,75,,,67,13112,,,,,,,,,,StudyProc5
IS_JOL C,55,2,3,BlockProc2,Banker - Money,F,37,,,,,,,,,,90,11625,,,StudyProc8
IS_JOL C,55,2,3,BlockProc2,End - Adjourn,B,6,,,,,,,,,,90,9830,,,StudyProc8
IS_JOL C,55,2,3,BlockProc2,Aircraft - Plane,F,34,,,,,,,,,,90,14212,,,StudyProc8
IS_JOL C,55,2,3,BlockProc2,League - Baseball,F,36,,,,,,,,,,90,14777,,,StudyProc8
IS_JOL C,55,2,3,BlockProc2,Dog - Furry,B,7,,,,,,,,,,90,14360,,,StudyProc8
IS_JOL C,55,2,3,BlockProc2,Strawberry - Fruit,F,29,,,,,,,,,,90,17120,,,StudyProc8
IS_JOL C,55,2,3,BlockProc2,Penguin - Bird,F,24,,,,,,,,,,90,19778,,,StudyProc8
IS_JOL C,55,2,3,BlockProc2,Windshield - Car,F,22,,,,,,,,,,90,8551,,,StudyProc8
IS_JOL C,55,2,3,BlockProc2,Donkey - Mule,B,13,,,,,,,,,,90,14472,,,StudyProc8
IS_JOL C,55,2,3,BlockProc2,Long - Extension,B,1,,,,,,,,,,78,15835,,,StudyProc8
IS_JOL C,55,2,3,BlockProc2,Balloon - Pop,F,28,,,,,,,,,,90,19927,,,StudyProc8
IS_JOL C,55,2,3,BlockProc2,Plant - Cactus,B,3,,,,,,,,,,90,12719,,,StudyProc8
IS_JOL C,55,2,3,BlockProc2,Red - Cherry,B,9,,,,,,,,,,90,7265,,,StudyProc8
IS_JOL C,55,2,3,BlockProc2,Tie - Shoelace,B,4,,,,,,,,,,90,13469,,,StudyProc8
IS_JOL C,55,2,3,BlockProc2,Paper - Document,B,14,,,,,,,,,,90,18520,,,StudyProc8
IS_JOL C,55,2,3,BlockProc2,Favorite - Best,F,30,,,,,,,,,,89,11257,,,StudyProc8
IS_JOL C,55,2,3,BlockProc2,Mystery - Detective,B,5,,,,,,,,,,90,6892,,,StudyProc8
IS_JOL C,55,2,3,BlockProc2,Actress - Star,F,25,,,,,,,,,,89,12335,,,StudyProc8
IS_JOL C,55,2,3,BlockProc2,Thimble - Thread,F,26,,,,,,,,,,90,18320,,,StudyProc8
IS_JOL C,55,2,3,BlockProc2,Cold - Chill,B,19,,,,,,,,,,90,8857,,,StudyProc8
IS_JOL C,55,2,3,BlockProc2,Car - Driver,B,11,,,,,,,,,,90,5413,,,StudyProc8
IS_JOL C,55,2,3,BlockProc2,Eat - Dine,B,16,,,,,,,,,,90,8251,,,StudyProc8
IS_JOL C,55,2,3,BlockProc2,Nap - Sleep,F,39,,,,,,,,,,89,14583,,,StudyProc8
IS_JOL C,55,2,3,BlockProc2,Game - Clue,B,2,,,,,,,,,,78,8814,,,StudyProc8
IS_JOL C,55,2,3,BlockProc2,Sardine - Fish,F,35,,,,,,,,,,90,11588,,,StudyProc8
IS_JOL C,55,2,3,BlockProc2,Fight - Feud,B,18,,,,,,,,,,90,19659,,,StudyProc8
IS_JOL C,55,2,3,BlockProc2,Breakable - Glass,F,32,,,,,,,,,,90,16158,,,StudyProc8
IS_JOL C,55,2,3,BlockProc2,Head - Scalp,B,10,,,,,,,,,,89,8982,,,StudyProc8
IS_JOL C,55,2,3,BlockProc2,Brawl - Fight,F,40,,,,,,,,,,56,10213,,,StudyProc8
IS_JOL C,55,2,3,BlockProc2,Revenge - Even,F,27,,,,,,,,,,78,17971,,,StudyProc8
IS_JOL C,55,2,3,BlockProc2,Panther - Cat,F,31,,,,,,,,,,78,15506,,,StudyProc8
IS_JOL C,55,2,3,BlockProc2,Coffin - Dead,F,33,,,,,,,,,,90,6827,,,StudyProc8
IS_JOL C,55,2,3,BlockProc2,Flip - Turn,F,21,,,,,,,,,,90,7889,,,StudyProc8
IS_JOL C,55,2,3,BlockProc2,Love - Affection,B,20,,,,,,,,,,90,10964,,,StudyProc8
IS_JOL C,55,2,3,BlockProc2,Villain - Bad,F,23,,,,,,,,,,90,9716,,,StudyProc8
IS_JOL C,55,2,3,BlockProc2,Cut - Chop,B,12,,,,,,,,,,90,8630,,,StudyProc8
IS_JOL C,55,2,3,BlockProc2,Truthful - Honest,F,38,,,,,,,,,,89,11467,,,StudyProc8
IS_JOL C,55,2,3,BlockProc2,Smell - Incense,B,15,,,,,,,,,,89,25575,,,StudyProc8
IS_JOL C,55,2,3,BlockProc2,Scissors - Shears,B,17,,,,,,,,,,90,8469,,,StudyProc8
IS_JOL C,55,2,3,BlockProc2,Trash - Litter,B,8,,,,,,,,,,90,12089,,,StudyProc8
IS_JOL C,55,2,3,BlockProc2,Mind - Matter,,2,,,,,,,,,,,,,,StudyProc6
IS_JOL C,55,2,3,BlockProc2,Deciet - Cheat,,1,,,,,,,,,,,,,,StudyProc6
IS_JOL C,55,2,3,BlockProc2,Magician - Magic,,4,,,,,,,,,,,,,,StudyProc6
IS_JOL C,55,2,3,BlockProc2,Deaf - Hear,,3,,,,,,,,,,,,,,StudyProc6
IS_JOL C,55,2,3,BlockProc2,Contest - Competition,,5,,,,,,,,,,,,,,StudyProc6
IS_JOL C,55,2,3,BlockProc2,Plant - ?,,3,,,,,,,tree,,,,,,,recallproc2
IS_JOL C,55,2,3,BlockProc2,Villain - ?,,23,,,,,,,bad,,,,,,,recallproc2
IS_JOL C,55,2,3,BlockProc2,Nap - ?,,39,,,,,,,sleep,,,,,,,recallproc2
IS_JOL C,55,2,3,BlockProc2,Strawberry - ?,,29,,,,,,,fruit,,,,,,,recallproc2
IS_JOL C,55,2,3,BlockProc2,Mystery - ?,,5,,,,,,,detective,,,,,,,recallproc2
IS_JOL C,55,2,3,BlockProc2,Long - ?,,1,,,,,,,extension,,,,,,,recallproc2
IS_JOL C,55,2,3,BlockProc2,Tie - ?,,4,,,,,,,,,,,,,,recallproc2
IS_JOL C,55,2,3,BlockProc2,Eat - ?,,16,,,,,,,food,,,,,,,recallproc2
IS_JOL C,55,2,3,BlockProc2,Sardine - ?,,35,,,,,,,fish,,,,,,,recallproc2
IS_JOL C,55,2,3,BlockProc2,Shave - ?,,41,,,,,,,razor,,,,,,,recallproc2
IS_JOL C,55,2,3,BlockProc2,Paper - ?,,14,,,,,,,document,,,,,,,recallproc2
IS_JOL C,55,2,3,BlockProc2,Donkey - ?,,13,,,,,,,mule,,,,,,,recallproc2
IS_JOL C,55,2,3,BlockProc2,Bracelet - ?,,45,,,,,,,wrist,,,,,,,recallproc2
IS_JOL C,55,2,3,BlockProc2,Game - ?,,2,,,,,,,test,,,,,,,recallproc2
IS_JOL C,55,2,3,BlockProc2,League - ?,,36,,,,,,,baseball,,,,,,,recallproc2
IS_JOL C,55,2,3,BlockProc2,Drink - ?,,48,,,,,,,sip,,,,,,,recallproc2
IS_JOL C,55,2,3,BlockProc2,Maroon - ?,,61,,,,,,,five,,,,,,,recallproc2
IS_JOL C,55,2,3,BlockProc2,Dog - ?,,7,,,,,,,paw,,,,,,,recallproc2
IS_JOL C,55,2,3,BlockProc2,End - ?,,6,,,,,,,begin,,,,,,,recallproc2
IS_JOL C,55,2,3,BlockProc2,Equal - ?,,42,,,,,,,rights,,,,,,,recallproc2
IS_JOL C,55,2,3,BlockProc2,Election - ?,,64,,,,,,,chart,,,,,,,recallproc2
IS_JOL C,55,2,3,BlockProc2,Tick - ?,,56,,,,,,,flea,,,,,,,recallproc2
IS_JOL C,55,2,3,BlockProc2,Cut - ?,,12,,,,,,,chop,,,,,,,recallproc2
IS_JOL C,55,2,3,BlockProc2,Ounce - ?,,77,,,,,,,pound,,,,,,,recallproc2
IS_JOL C,55,2,3,BlockProc2,Have - ?,,58,,,,,,,own,,,,,,,recallproc2
IS_JOL C,55,2,3,BlockProc2,Banker - ?,,37,,,,,,,money,,,,,,,recallproc2
IS_JOL C,55,2,3,BlockProc2,Clothes - ?,,71,,,,,,,cloth,,,,,,,recallproc2
IS_JOL C,55,2,3,BlockProc2,Cold - ?,,19,,,,,,,chill,,,,,,,recallproc2
IS_JOL C,55,2,3,BlockProc2,Carbon - ?,,46,,,,,,,elemen,,,,,,,recallproc2
IS_JOL C,55,2,3,BlockProc2,Lie - ?,,53,,,,,,,truth,,,,,,,recallproc2
IS_JOL C,55,2,3,BlockProc2,Balloon - ?,,28,,,,,,,pop,,,,,,,recallproc2
IS_JOL C,55,2,3,BlockProc2,Reel - ?,,55,,,,,,,rod,,,,,,,recallproc2
IS_JOL C,55,2,3,BlockProc2,Children - ?,,79,,,,,,,infant,,,,,,,recallproc2
IS_JOL C,55,2,3,BlockProc2,Red - ?,,9,,,,,,,cherry,,,,,,,recallproc2
IS_JOL C,55,2,3,BlockProc2,Breakable - ?,,32,,,,,,,glasss,,,,,,,recallproc2
IS_JOL C,55,2,3,BlockProc2,Flip - ?,,21,,,,,,,turn,,,,,,,recallproc2
IS_JOL C,55,2,3,BlockProc2,Sign - ?,,76,,,,,,,name,,,,,,,recallproc2
IS_JOL C,55,2,3,BlockProc2,Hate - ?,,72,,,,,,,have,,,,,,,recallproc2
IS_JOL C,55,2,3,BlockProc2,Seatbelt - ?,,52,,,,,,,safety,,,,,,,recallproc2
IS_JOL C,55,2,3,BlockProc2,Tan - ?,,60,,,,,,,sun,,,,,,,recallproc2
IS_JOL C,55,2,3,BlockProc2,Temper - ?,,59,,,,,,,tantrum,,,,,,,recallproc2
IS_JOL C,55,2,3,BlockProc2,Charm - ?,,65,,,,,,,scar,,,,,,,recallproc2
IS_JOL C,55,2,3,BlockProc2,Lonely - ?,,50,,,,,,,alone,,,,,,,recallproc2
IS_JOL C,55,2,3,BlockProc2,Shake - ?,,68,,,,,,,scar,,,,,,,recallproc2
IS_JOL C,55,2,3,BlockProc2,Revenge - ?,,27,,,,,,,even,,,,,,,recallproc2
IS_JOL C,55,2,3,BlockProc2,Windshield - ?,,22,,,,,,,car,,,,,,,recallproc2
IS_JOL C,55,2,3,BlockProc2,Able - ?,,67,,,,,,,money,,,,,,,recallproc2
IS_JOL C,55,2,3,BlockProc2,Thimble - ?,,26,,,,,,,thread,,,,,,,recallproc2
IS_JOL C,55,2,3,BlockProc2,Fiction - ?,,69,,,,,,,fact,,,,,,,recallproc2
IS_JOL C,55,2,3,BlockProc2,Wax - ?,,44,,,,,,,candle,,,,,,,recallproc2
IS_JOL C,55,2,3,BlockProc2,Noise - ?,,57,,,,,,,loud,,,,,,,recallproc2
IS_JOL C,55,2,3,BlockProc2,Actress - ?,,25,,,,,,,star,,,,,,,recallproc2
IS_JOL C,55,2,3,BlockProc2,Ground - ?,,49,,,,,,,earth,,,,,,,recallproc2
IS_JOL C,55,2,3,BlockProc2,Coffin - ?,,33,,,,,,,death,,,,,,,recallproc2
IS_JOL C,55,2,3,BlockProc2,Clear - ?,,74,,,,,,,glass,,,,,,,recallproc2
IS_JOL C,55,2,3,BlockProc2,Car - ?,,11,,,,,,,windshield,,,,,,,recallproc2
IS_JOL C,55,2,3,BlockProc2,Brawl - ?,,40,,,,,,,fight,,,,,,,recallproc2
IS_JOL C,55,2,3,BlockProc2,Penguin - ?,,24,,,,,,,bird,,,,,,,recallproc2
IS_JOL C,55,2,3,BlockProc2,Fight - ?,,18,,,,,,,brawl,,,,,,,recallproc2
IS_JOL C,55,2,3,BlockProc2,Wet - ?,,51,,,,,,,dry,,,,,,,recallproc2
IS_JOL C,55,2,3,BlockProc2,Scar - ?,,80,,,,,,,safe,,,,,,,recallproc2
IS_JOL C,55,2,3,BlockProc2,Cloth - ?,,62,,,,,,,fashion,,,,,,,recallproc2
IS_JOL C,55,2,3,BlockProc2,Obtain - ?,,66,,,,,,,own,,,,,,,recallproc2
IS_JOL C,55,2,3,BlockProc2,Panther - ?,,31,,,,,,,cat,,,,,,,recallproc2
IS_JOL C,55,2,3,BlockProc2,Smell - ?,,15,,,,,,,stench,,,,,,,recallproc2
IS_JOL C,55,2,3,BlockProc2,Away - ?,,47,,,,,,,out,,,,,,,recallproc2
IS_JOL C,55,2,3,BlockProc2,Head - ?,,10,,,,,,,scalp,,,,,,,recallproc2
IS_JOL C,55,2,3,BlockProc2,Truthful - ?,,38,,,,,,,hoenest,,,,,,,recallproc2
IS_JOL C,55,2,3,BlockProc2,Bang - ?,,73,,,,,,,loud,,,,,,,recallproc2
IS_JOL C,55,2,3,BlockProc2,Morning - ?,,78,,,,,,,temperature,,,,,,,recallproc2
IS_JOL C,55,2,3,BlockProc2,Toil - ?,,75,,,,,,,foil,,,,,,,recallproc2
IS_JOL C,55,2,3,BlockProc2,Joke - ?,,70,,,,,,,cold,,,,,,,recallproc2
IS_JOL C,55,2,3,BlockProc2,Jar - ?,,43,,,,,,,mason,,,,,,,recallproc2
IS_JOL C,55,2,3,BlockProc2,Communication - ?,,54,,,,,,,phone,,,,,,,recallproc2
IS_JOL C,55,2,3,BlockProc2,Scissors - ?,,17,,,,,,,shears,,,,,,,recallproc2
IS_JOL C,55,2,3,BlockProc2,Trash - ?,,8,,,,,,,litter,,,,,,,recallproc2
IS_JOL C,55,2,3,BlockProc2,Steak - ?,,63,,,,,,,meat,,,,,,,recallproc2
IS_JOL C,55,2,3,BlockProc2,Love - ?,,20,,,,,,,affection,,,,,,,recallproc2
IS_JOL C,55,2,3,BlockProc2,Favorite - ?,,30,,,,,,,best,,,,,,,recallproc2
IS_JOL C,55,2,3,BlockProc2,Aircraft - ?,,34,,,,,,,plane,,,,,,,recallproc2
READ_JOL A,49,1,,BlockProc1,Disbelieve-Skeptic,,6,,,,,,,,,,,,,,Practice1
READ_JOL A,49,1,,BlockProc1,Behavior-Social,,9,,,,,,,,,,,,,,Practice1
READ_JOL A,49,1,,BlockProc1,Deaf-Mute,,2,,,,,,,,,,,,,,Practice1
READ_JOL A,49,1,,BlockProc1,Aardvark-Zoo,,1,,,,,,,,,,,,,,Practice1
READ_JOL A,49,1,,BlockProc1,Chime-Music,,8,,,,,,,,,,,,,,Practice1
READ_JOL A,49,1,,BlockProc1,Ham-Bone,,3,,,,,,,,,,,,,,Practice1
READ_JOL A,49,1,,BlockProc1,Chocolate-Bar,,7,,,,,,,,,,,,,,Practice1
READ_JOL A,49,1,,BlockProc1,Paddle-Row,,4,,,,,,,,,,,,,,Practice1
READ_JOL A,49,1,,BlockProc1,Fashion-Model,,10,,,,,,,,,,,,,,Practice1
READ_JOL A,49,1,,BlockProc1,Hinge-Swing,,5,,,,,,,,,,,,,,Practice1
READ_JOL A,49,1,3,BlockProc1,Haircut-Scissors,,1,,,,,,,,,,,,,,StudyProc1
READ_JOL A,49,1,3,BlockProc1,Snow - Ice,,3,,,,,,,,,,,,,,StudyProc1
READ_JOL A,49,1,3,BlockProc1,Member - Group,,5,,,,,,,,,,,,,,StudyProc1
READ_JOL A,49,1,3,BlockProc1,Shrimp - Fish,,4,,,,,,,,,,,,,,StudyProc1
READ_JOL A,49,1,3,BlockProc1,Curtain - Drapes,,2,,,,,,,,,,,,,,StudyProc1
READ_JOL A,49,1,3,BlockProc1,Happy - Car,U,72,78,10329,,,,,,,,,,,,StudyProc3
READ_JOL A,49,1,3,BlockProc1,Allow - Tuck,U,73,0,4129,,,,,,,,,,,,StudyProc3
READ_JOL A,49,1,3,BlockProc1,Choice - Decision,S,57,100,5815,,,,,,,,,,,,StudyProc3
READ_JOL A,49,1,3,BlockProc1,King - Vase,U,80,23,8952,,,,,,,,,,,,StudyProc3
READ_JOL A,49,1,3,BlockProc1,Discover - Floor,U,66,0,3200,,,,,,,,,,,,StudyProc3
READ_JOL A,49,1,3,BlockProc1,Begin - End,S,49,100,3124,,,,,,,,,,,,StudyProc3
READ_JOL A,49,1,3,BlockProc1,Lettuce - Salad,S,54,100,2643,,,,,,,,,,,,StudyProc3
READ_JOL A,49,1,3,BlockProc1,Blow - Wind,S,50,100,3526,,,,,,,,,,,,StudyProc3
READ_JOL A,49,1,3,BlockProc1,Kidney - Liver,S,48,43,5204,,,,,,,,,,,,StudyProc3
READ_JOL A,49,1,3,BlockProc1,Circle - Round,S,60,100,4718,,,,,,,,,,,,StudyProc3
READ_JOL A,49,1,3,BlockProc1,Pop - Soda,S,51,100,3012,,,,,,,,,,,,StudyProc3
READ_JOL A,49,1,3,BlockProc1,Shoe - Foot,S,55,100,2664,,,,,,,,,,,,StudyProc3
READ_JOL A,49,1,3,BlockProc1,Fix - Hand,U,70,43,7826,,,,,,,,,,,,StudyProc3
READ_JOL A,49,1,3,BlockProc1,Grill - Bar,S,47,55,5376,,,,,,,,,,,,StudyProc3
READ_JOL A,49,1,3,BlockProc1,Valley - Add,U,77,0,3251,,,,,,,,,,,,StudyProc3
READ_JOL A,49,1,3,BlockProc1,Art - Lion,U,74,54,12045,,,,,,,,,,,,StudyProc3
READ_JOL A,49,1,3,BlockProc1,Trial - Jury,S,45,88,5343,,,,,,,,,,,,StudyProc3
READ_JOL A,49,1,3,BlockProc1,Machine - Position,U,71,32,6739,,,,,,,,,,,,StudyProc3
READ_JOL A,49,1,3,BlockProc1,Cash - Would,U,78,0,2494,,,,,,,,,,,,StudyProc3
READ_JOL A,49,1,3,BlockProc1,Baby - Child,S,59,100,4415,,,,,,,,,,,,StudyProc3
READ_JOL A,49,1,3,BlockProc1,Architecture - Design,S,46,100,4817,,,,,,,,,,,,StudyProc3
READ_JOL A,49,1,3,BlockProc1,Sugar - Riddle,U,76,0,2771,,,,,,,,,,,,StudyProc3
READ_JOL A,49,1,3,BlockProc1,Number - Amount,S,42,100,5208,,,,,,,,,,,,StudyProc3
READ_JOL A,49,1,3,BlockProc1,Wine - Cheese,S,52,20,5569,,,,,,,,,,,,StudyProc3
READ_JOL A,49,1,3,BlockProc1,Due - Assignment,S,41,100,2716,,,,,,,,,,,,StudyProc3
READ_JOL A,49,1,3,BlockProc1,Dietary - Slacking,U,62,32,4452,,,,,,,,,,,,StudyProc3
READ_JOL A,49,1,3,BlockProc1,Dump - Waste,S,44,100,5765,,,,,,,,,,,,StudyProc3
READ_JOL A,49,1,3,BlockProc1,Pusher - Clutter,U,61,54,7120,,,,,,,,,,,,StudyProc3
READ_JOL A,49,1,3,BlockProc1,Bathroom - Toilet,S,53,100,2428,,,,,,,,,,,,StudyProc3
READ_JOL A,49,1,3,BlockProc1,Artery - Bronze,U,69,0,2927,,,,,,,,,,,,StudyProc3
READ_JOL A,49,1,3,BlockProc1,Soon - Belt,U,65,12,6926,,,,,,,,,,,,StudyProc3
READ_JOL A,49,1,3,BlockProc1,Lift - Woman,U,64,0,2017,,,,,,,,,,,,StudyProc3
READ_JOL A,49,1,3,BlockProc1,Death - Business,U,67,0,2006,,,,,,,,,,,,StudyProc3
READ_JOL A,49,1,3,BlockProc1,Hide - Sick,U,79,11,4227,,,,,,,,,,,,StudyProc3
READ_JOL A,49,1,3,BlockProc1,Honey - Bee,S,58,100,2412,,,,,,,,,,,,StudyProc3
READ_JOL A,49,1,3,BlockProc1,Location - Site,S,43,55,10528,,,,,,,,,,,,StudyProc3
READ_JOL A,49,1,3,BlockProc1,Debate - Sight,U,68,0,3600,,,,,,,,,,,,StudyProc3
READ_JOL A,49,1,3,BlockProc1,Past - Future,S,56,100,4476,,,,,,,,,,,,StudyProc3
READ_JOL A,49,1,3,BlockProc1,Strong - Accident,U,75,12,6931,,,,,,,,,,,,StudyProc3
READ_JOL A,49,1,3,BlockProc1,Park - Hungry,U,63,0,2574,,,,,,,,,,,,StudyProc3
READ_JOL A,49,1,3,BlockProc1,Fire - Blaze,B,40,,,,,,,,,,23,14206,,,StudyProc7
READ_JOL A,49,1,3,BlockProc1,Hornet - Sting,F,6,,,,,,,,,,15,16335,,,StudyProc7
READ_JOL A,49,1,3,BlockProc1,Height - Growth,B,25,,,,,,,,,,100,11697,,,StudyProc7
READ_JOL A,49,1,3,BlockProc1,Hygiene - Clean,F,12,,,,,,,,,,100,15673,,,StudyProc7
READ_JOL A,49,1,3,BlockProc1,Delinquent - Bad,F,1,,,,,,,,,,40,10886,,,StudyProc7
READ_JOL A,49,1,3,BlockProc1,Chisel - Hammer,F,4,,,,,,,,,,23,10831,,,StudyProc7
READ_JOL A,49,1,3,BlockProc1,Sentence - Word,B,26,,,,,,,,,,100,11618,,,StudyProc7
READ_JOL A,49,1,3,BlockProc1,Tuna - Fish,F,20,,,,,,,,,,100,10333,,,StudyProc7
READ_JOL A,49,1,3,BlockProc1,Work - Chore,B,34,,,,,,,,,,54,10917,,,StudyProc7
READ_JOL A,49,1,3,BlockProc1,Plane - Pilot,B,39,,,,,,,,,,100,10436,,,StudyProc7
READ_JOL A,49,1,3,BlockProc1,Clothes - Attire,B,38,,,,,,,,,,100,9528,,,StudyProc7
READ_JOL A,49,1,3,BlockProc1,Great - Fantastic,B,30,,,,,,,,,,100,10616,,,StudyProc7
READ_JOL A,49,1,3,BlockProc1,Sleep - Drowsy,B,36,,,,,,,,,,50,13804,,,StudyProc7
READ_JOL A,49,1,3,BlockProc1,Hot - Chili,B,32,,,,,,,,,,95,10750,,,StudyProc7
READ_JOL A,49,1,3,BlockProc1,Orchid - Flower,F,19,,,,,,,,,,0,9636,,,StudyProc7
READ_JOL A,49,1,3,BlockProc1,Ball - Racket,B,33,,,,,,,,,,13,11881,,,StudyProc7
READ_JOL A,49,1,3,BlockProc1,Full - Enough,B,21,,,,,,,,,,100,7113,,,StudyProc7
READ_JOL A,49,1,3,BlockProc1,Paw - Dog,F,10,,,,,,,,,,100,6236,,,StudyProc7
READ_JOL A,49,1,3,BlockProc1,Root - Plant,F,8,,,,,,,,,,65,10564,,,StudyProc7
READ_JOL A,49,1,3,BlockProc1,Swan - Bird,F,9,,,,,,,,,,0,4834,,,StudyProc7
READ_JOL A,49,1,3,BlockProc1,Hunger - Famine,B,35,,,,,,,,,,0,6051,,,StudyProc7
READ_JOL A,49,1,3,BlockProc1,Geology - Rock,F,14,,,,,,,,,,0,5291,,,StudyProc7
READ_JOL A,49,1,3,BlockProc1,Drink - Sip,B,22,,,,,,,,,,100,9193,,,StudyProc7
READ_JOL A,49,1,3,BlockProc1,Law - Attorney,B,29,,,,,,,,,,100,8864,,,StudyProc7
READ_JOL A,49,1,3,BlockProc1,Digestion - Stomach,F,2,,,,,,,,,,65,7163,,,StudyProc7
READ_JOL A,49,1,3,BlockProc1,Credit - Card,F,18,,,,,,,,,,100,2869,,,StudyProc7
READ_JOL A,49,1,3,BlockProc1,Wage - Money,F,3,,,,,,,,,,0,4519,,,StudyProc7
READ_JOL A,49,1,3,BlockProc1,Discussion - Talk,F,16,,,,,,,,,,100,8509,,,StudyProc7
READ_JOL A,49,1,3,BlockProc1,Bridge - Water,F,13,,,,,,,,,,54,6984,,,StudyProc7
READ_JOL A,49,1,3,BlockProc1,Way - Out,F,11,,,,,,,,,,12,9961,,,StudyProc7
READ_JOL A,49,1,3,BlockProc1,Herd - Cow,F,17,,,,,,,,,,0,4560,,,StudyProc7
READ_JOL A,49,1,3,BlockProc1,Revolution - War,F,15,,,,,,,,,,100,5564,,,StudyProc7
READ_JOL A,49,1,3,BlockProc1,Take - Seize,B,24,,,,,,,,,,0,3239,,,StudyProc7
READ_JOL A,49,1,3,BlockProc1,Smell - Stench,B,37,,,,,,,,,,0,4281,,,StudyProc7
READ_JOL A,49,1,3,BlockProc1,Bug - Wasp,B,27,,,,,,,,,,0,4137,,,StudyProc7
READ_JOL A,49,1,3,BlockProc1,Dark - Cave,B,23,,,,,,,,,,100,5319,,,StudyProc7
READ_JOL A,49,1,3,BlockProc1,Bitter - Cold,F,7,,,,,,,,,,100,5820,,,StudyProc7
READ_JOL A,49,1,3,BlockProc1,Math - Division,B,28,,,,,,,,,,55,5125,,,StudyProc7
READ_JOL A,49,1,3,BlockProc1,Editor - News,F,5,,,,,,,,,,100,5890,,,StudyProc7
READ_JOL A,49,1,3,BlockProc1,Key - Latch,B,31,,,,,,,,,,0,2904,,,StudyProc7
READ_JOL A,49,1,3,BlockProc1,Geese - Goose,,1,,,,,,,,,,,,,,StudyProc2
READ_JOL A,49,1,3,BlockProc1,Trees - Green,,5,,,,,,,,,,,,,,StudyProc2
READ_JOL A,49,1,3,BlockProc1,Grab - Take,,2,,,,,,,,,,,,,,StudyProc2
READ_JOL A,49,1,3,BlockProc1,Catcher - Baseball,,4,,,,,,,,,,,,,,StudyProc2
READ_JOL A,49,1,3,BlockProc1,Friendliness - Nice,,3,,,,,,,,,,,,,,StudyProc2
READ_JOL A,49,1,3,BlockProc1,Soon - ?,,65,,,,,now,7987,,,,,,,,recallproc1
READ_JOL A,49,1,3,BlockProc1,Geology - ?,,14,,,,,tree,7187,,,,,,,,recallproc1
READ_JOL A,49,1,3,BlockProc1,Lift - ?,,64,,,,,woods,5140,,,,,,,,recallproc1
READ_JOL A,49,1,3,BlockProc1,Full - ?,,21,,,,,enough,3720,,,,,,,,recallproc1
READ_JOL A,49,1,3,BlockProc1,Editor - ?,,5,,,,,news,2063,,,,,,,,recallproc1
READ_JOL A,49,1,3,BlockProc1,Hunger - ?,,35,,,,,fate,6610,,,,,,,,recallproc1
READ_JOL A,49,1,3,BlockProc1,Sentence - ?,,26,,,,,word,4265,,,,,,,,recallproc1
READ_JOL A,49,1,3,BlockProc1,Orchid - ?,,19,,,,,flower,7522,,,,,,,,recallproc1
READ_JOL A,49,1,3,BlockProc1,Machine - ?,,71,,,,,book,16333,,,,,,,,recallproc1
READ_JOL A,49,1,3,BlockProc1,Dietary - ?,,62,,,,,food,3279,,,,,,,,recallproc1
READ_JOL A,49,1,3,BlockProc1,Key - ?,,31,,,,,chain,8224,,,,,,,,recallproc1
READ_JOL A,49,1,3,BlockProc1,Debate - ?,,68,,,,,read,19135,,,,,,,,recallproc1
READ_JOL A,49,1,3,BlockProc1,Grill - ?,,47,,,,,bar,3302,,,,,,,,recallproc1
READ_JOL A,49,1,3,BlockProc1,Blow - ?,,50,,,,,wind,2245,,,,,,,,recallproc1
READ_JOL A,49,1,3,BlockProc1,King - ?,,80,,,,,tar,19753,,,,,,,,recallproc1
READ_JOL A,49,1,3,BlockProc1,Dark - ?,,23,,,,,woods,6783,,,,,,,,recallproc1
READ_JOL A,49,1,3,BlockProc1,Root - ?,,8,,,,,plant,3440,,,,,,,,recallproc1
READ_JOL A,49,1,3,BlockProc1,Credit - ?,,18,,,,,card,2442,,,,,,,,recallproc1
READ_JOL A,49,1,3,BlockProc1,Hot - ?,,32,,,,,chilli,4061,,,,,,,,recallproc1
READ_JOL A,49,1,3,BlockProc1,Art - ?,,74,,,,,color,15333,,,,,,,,recallproc1
READ_JOL A,49,1,3,BlockProc1,Delinquent - ?,,1,,,,,fair,5113,,,,,,,,recallproc1
READ_JOL A,49,1,3,BlockProc1,Kidney - ?,,48,,,,,lungs,3710,,,,,,,,recallproc1
READ_JOL A,49,1,3,BlockProc1,Herd - ?,,17,,,,,cows,2901,,,,,,,,recallproc1
READ_JOL A,49,1,3,BlockProc1,Valley - ?,,77,,,,,hill,3277,,,,,,,,recallproc1
READ_JOL A,49,1,3,BlockProc1,Artery - ?,,69,,,,,stone,15414,,,,,,,,recallproc1
READ_JOL A,49,1,3,BlockProc1,Height - ?,,25,,,,,tall,4006,,,,,,,,recallproc1
READ_JOL A,49,1,3,BlockProc1,Wine - ?,,52,,,,,cheese,2937,,,,,,,,recallproc1
READ_JOL A,49,1,3,BlockProc1,Lettuce - ?,,54,,,,,salad,3096,,,,,,,,recallproc1
READ_JOL A,49,1,3,BlockProc1,Great - ?,,30,,,,,fantastic,5024,,,,,,,,recallproc1
READ_JOL A,49,1,3,BlockProc1,Sugar - ?,,76,,,,,bear,8561,,,,,,,,recallproc1
READ_JOL A,49,1,3,BlockProc1,Pop - ?,,51,,,,,soda,2800,,,,,,,,recallproc1
READ_JOL A,49,1,3,BlockProc1,Location - ?,,43,,,,,site,3533,,,,,,,,recallproc1
READ_JOL A,49,1,3,BlockProc1,Shoe - ?,,55,,,,,foot,3692,,,,,,,,recallproc1
READ_JOL A,49,1,3,BlockProc1,Happy - ?,,72,,,,,foot,19227,,,,,,,,recallproc1
READ_JOL A,49,1,3,BlockProc1,Hide - ?,,79,,,,,side,13327,,,,,,,,recallproc1
READ_JOL A,49,1,3,BlockProc1,Way - ?,,11,,,,,out,2148,,,,,,,,recallproc1
READ_JOL A,49,1,3,BlockProc1,Death - ?,,67,,,,,jobs,10163,,,,,,,,recallproc1
READ_JOL A,49,1,3,BlockProc1,Wage - ?,,3,,,,,money,3674,,,,,,,,recallproc1
READ_JOL A,49,1,3,BlockProc1,Bug - ?,,27,,,,,grasshopper,17122,,,,,,,,recallproc1
READ_JOL A,49,1,3,BlockProc1,Fire - ?,,40,,,,,hot,8491,,,,,,,,recallproc1
READ_JOL A,49,1,3,BlockProc1,Circle - ?,,60,,,,,round,4031,,,,,,,,recallproc1
READ_JOL A,49,1,3,BlockProc1,Take - ?,,24,,,,,hide,9584,,,,,,,,recallproc1
READ_JOL A,49,1,3,BlockProc1,Due - ?,,41,,,,,assignment,4552,,,,,,,,recallproc1
READ_JOL A,49,1,3,BlockProc1,Fix - ?,,70,,,,,hand,4251,,,,,,,,recallproc1
READ_JOL A,49,1,3,BlockProc1,Tuna - ?,,20,,,,,fish,2301,,,,,,,,recallproc1
READ_JOL A,49,1,3,BlockProc1,Begin - ?,,49,,,,,end,3391,,,,,,,,recallproc1
READ_JOL A,49,1,3,BlockProc1,Past - ?,,56,,,,,future,6018,,,,,,,,recallproc1
READ_JOL A,49,1,3,BlockProc1,Ball - ?,,33,,,,,catcher,8275,,,,,,,,recallproc1
READ_JOL A,49,1,3,BlockProc1,Bitter - ?,,7,,,,,sweet,18799,,,,,,,,recallproc1
READ_JOL A,49,1,3,BlockProc1,Chisel - ?,,4,,,,,wind,4972,,,,,,,,recallproc1
READ_JOL A,49,1,3,BlockProc1,Baby - ?,,59,,,,,child,6096,,,,,,,,recallproc1
READ_JOL A,49,1,3,BlockProc1,Hygiene - ?,,12,,,,,clean,6909,,,,,,,,recallproc1
READ_JOL A,49,1,3,BlockProc1,Swan - ?,,9,,,,,duck,3840,,,,,,,,recallproc1
READ_JOL A,49,1,3,BlockProc1,Clothes - ?,,38,,,,,fit,5930,,,,,,,,recallproc1
READ_JOL A,49,1,3,BlockProc1,Cash - ?,,78,,,,,wage,8783,,,,,,,,recallproc1
READ_JOL A,49,1,3,BlockProc1,Pusher - ?,,61,,,,,rail,29197,,,,,,,,recallproc1
READ_JOL A,49,1,3,BlockProc1,Number - ?,,42,,,,,count,13912,,,,,,,,recallproc1
READ_JOL A,49,1,3,BlockProc1,Strong - ?,,75,,,,,green,9861,,,,,,,,recallproc1
READ_JOL A,49,1,3,BlockProc1,Math - ?,,28,,,,,numbers,13216,,,,,,,,recallproc1
READ_JOL A,49,1,3,BlockProc1,Discover - ?,,66,,,,,war,14401,,,,,,,,recallproc1
READ_JOL A,49,1,3,BlockProc1,Honey - ?,,58,,,,,bee,1954,,,,,,,,recallproc1
READ_JOL A,49,1,3,BlockProc1,Architecture - ?,,46,,,,,build,7537,,,,,,,,recallproc1
READ_JOL A,49,1,3,BlockProc1,Drink - ?,,22,,,,,sip,3540,,,,,,,,recallproc1
READ_JOL A,49,1,3,BlockProc1,Allow - ?,,73,,,,,wine,12129,,,,,,,,recallproc1
READ_JOL A,49,1,3,BlockProc1,Bathroom - ?,,53,,,,,small,4319,,,,,,,,recallproc1
READ_JOL A,49,1,3,BlockProc1,Choice - ?,,57,,,,,your,4213,,,,,,,,recallproc1
READ_JOL A,49,1,3,BlockProc1,Revolution - ?,,15,,,,,book,5224,,,,,,,,recallproc1
READ_JOL A,49,1,3,BlockProc1,Smell - ?,,37,,,,,fresh,10409,,,,,,,,recallproc1
READ_JOL A,49,1,3,BlockProc1,Work - ?,,34,,,,,time,10966,,,,,,,,recallproc1
READ_JOL A,49,1,3,BlockProc1,Park - ?,,63,,,,,green,13619,,,,,,,,recallproc1
READ_JOL A,49,1,3,BlockProc1,Dump - ?,,44,,,,,trash,3772,,,,,,,,recallproc1
READ_JOL A,49,1,3,BlockProc1,Discussion - ?,,16,,,,,talk,3474,,,,,,,,recallproc1
READ_JOL A,49,1,3,BlockProc1,Law - ?,,29,,,,,lawyer,7185,,,,,,,,recallproc1
READ_JOL A,49,1,3,BlockProc1,Trial - ?,,45,,,,,walk,7058,,,,,,,,recallproc1
READ_JOL A,49,1,3,BlockProc1,Hornet - ?,,6,,,,,nest,3327,,,,,,,,recallproc1
READ_JOL A,49,1,3,BlockProc1,Sleep - ?,,36,,,,,drowsy,4646,,,,,,,,recallproc1
READ_JOL A,49,1,3,BlockProc1,Paw - ?,,10,,,,,dog,2479,,,,,,,,recallproc1
READ_JOL A,49,1,3,BlockProc1,Bridge - ?,,13,,,,,water,2313,,,,,,,,recallproc1
READ_JOL A,49,1,3,BlockProc1,Plane - ?,,39,,,,,pilot,2681,,,,,,,,recallproc1
READ_JOL A,49,1,3,BlockProc1,Digestion - ?,,2,,,,,hunger,11619,,,,,,,,recallproc1
READ_JOL A,49,2,3,BlockProc2,Disintegrate - Disappear,,3,,,,,,,,,,,,,,StudyProc4
READ_JOL A,49,2,3,BlockProc2,Hide - Scare,,2,,,,,,,,,,,,,,StudyProc4
READ_JOL A,49,2,3,BlockProc2,Sheriff - Police,,1,,,,,,,,,,,,,,StudyProc4
READ_JOL A,49,2,3,BlockProc2,Essay - Write,,4,,,,,,,,,,,,,,StudyProc4
READ_JOL A,49,2,3,BlockProc2,Malt - Chocolate,,5,,,,,,,,,,,,,,StudyProc4
READ_JOL A,49,2,3,BlockProc2,Own - Have,S,58,,,,,,,,,,,,98,4796,StudyProc8
READ_JOL A,49,2,3,BlockProc2,Tantrum - Temper,S,59,,,,,,,,,,,,100,2879,StudyProc8
READ_JOL A,49,2,3,BlockProc2,Fuzzy - Bang,U,73,,,,,,,,,,,,54,4456,StudyProc8
READ_JOL A,49,2,3,BlockProc2,Alone - Lonely,S,50,,,,,,,,,,,,100,7736,StudyProc8
READ_JOL A,49,2,3,BlockProc2,Dry - Wet,S,51,,,,,,,,,,,,88,10042,StudyProc8
READ_JOL A,49,2,3,BlockProc2,Lease - Toil,U,75,,,,,,,,,,,,67,5206,StudyProc8
READ_JOL A,49,2,3,BlockProc2,Safety - Seatbelt,S,52,,,,,,,,,,,,100,6424,StudyProc8
READ_JOL A,49,2,3,BlockProc2,Crackle - Able,U,67,,,,,,,,,,,,25,4183,StudyProc8
READ_JOL A,49,2,3,BlockProc2,Phone - Communicatio,S,54,,,,,,,,,,,,100,7211,StudyProc8
READ_JOL A,49,2,3,BlockProc2,Name - Hate,U,72,,,,,,,,,,,,34,3123,StudyProc8
READ_JOL A,49,2,3,BlockProc2,Maze - Election,U,64,,,,,,,,,,,,0,1985,StudyProc8
READ_JOL A,49,2,3,BlockProc2,Cake - Clothes,U,71,,,,,,,,,,,,46,2519,StudyProc8
READ_JOL A,49,2,3,BlockProc2,Mason - Jar,S,43,,,,,,,,,,,,100,2831,StudyProc8
READ_JOL A,49,2,3,BlockProc2,Main - Scar,U,80,,,,,,,,,,,,0,2962,StudyProc8
READ_JOL A,49,2,3,BlockProc2,Both - Ounce,U,77,,,,,,,,,,,,35,5784,StudyProc8
READ_JOL A,49,2,3,BlockProc2,Temperature - Morning,U,78,,,,,,,,,,,,0,5642,StudyProc8
READ_JOL A,49,2,3,BlockProc2,Rod - Reel,S,55,,,,,,,,,,,,76,5714,StudyProc8
READ_JOL A,49,2,3,BlockProc2,Flea - Tick,S,56,,,,,,,,,,,,100,3367,StudyProc8
READ_JOL A,49,2,3,BlockProc2,Mirror - Children,U,79,,,,,,,,,,,,45,7820,StudyProc8
READ_JOL A,49,2,3,BlockProc2,Razor - Shave,S,41,,,,,,,,,,,,100,4787,StudyProc8
READ_JOL A,49,2,3,BlockProc2,Moat - Clear,U,74,,,,,,,,,,,,0,2278,StudyProc8
READ_JOL A,49,2,3,BlockProc2,Shell - Shake,U,68,,,,,,,,,,,,0,3096,StudyProc8
READ_JOL A,49,2,3,BlockProc2,Listen - Fiction,U,69,,,,,,,,,,,,87,3704,StudyProc8
READ_JOL A,49,2,3,BlockProc2,Justice - Maroon,U,61,,,,,,,,,,,,0,4583,StudyProc8
READ_JOL A,49,2,3,BlockProc2,Earth - Ground,S,49,,,,,,,,,,,,100,2971,StudyProc8
READ_JOL A,49,2,3,BlockProc2,Meat - Obtain,U,66,,,,,,,,,,,,23,3511,StudyProc8
READ_JOL A,49,2,3,BlockProc2,Wrist - Bracelet,S,45,,,,,,,,,,,,76,2638,StudyProc8
READ_JOL A,49,2,3,BlockProc2,Candle - Wax,S,44,,,,,,,,,,,,100,2953,StudyProc8
READ_JOL A,49,2,3,BlockProc2,Keys - Joke,U,70,,,,,,,,,,,,0,3983,StudyProc8
READ_JOL A,49,2,3,BlockProc2,Sun - Tan,S,60,,,,,,,,,,,,100,3939,StudyProc8
READ_JOL A,49,2,3,BlockProc2,Loud - Noise,S,57,,,,,,,,,,,,100,3160,StudyProc8
READ_JOL A,49,2,3,BlockProc2,Give - Steak,U,63,,,,,,,,,,,,65,8654,StudyProc8
READ_JOL A,49,2,3,BlockProc2,Gone - Away,S,47,,,,,,,,,,,,100,4914,StudyProc8
READ_JOL A,49,2,3,BlockProc2,Water - Drink,S,48,,,,,,,,,,,,100,3496,StudyProc8
READ_JOL A,49,2,3,BlockProc2,Vehicle - Charm,U,65,,,,,,,,,,,,54,7224,StudyProc8
READ_JOL A,49,2,3,BlockProc2,Truth - Lie,S,53,,,,,,,,,,,,98,3446,StudyProc8
READ_JOL A,49,2,3,BlockProc2,Stretch - Cloth,U,62,,,,,,,,,,,,28,4928,StudyProc8
READ_JOL A,49,2,3,BlockProc2,Rights - Equal,S,42,,,,,,,,,,,,100,5565,StudyProc8
READ_JOL A,49,2,3,BlockProc2,Loan - Sign,U,76,,,,,,,,,,,,65,3160,StudyProc8
READ_JOL A,49,2,3,BlockProc2,Element - Carbon,S,46,,,,,,,,,,,,87,4590,StudyProc8
READ_JOL A,49,2,3,BlockProc2,Sleep - Nap,B,39,,,100,4982,,,,,,,,,,StudyProc5
READ_JOL A,49,2,3,BlockProc2,Chill - Cold,F,19,,,67,4313,,,,,,,,,,StudyProc5
READ_JOL A,49,2,3,BlockProc2,Feud - Fight,F,18,,,45,4231,,,,,,,,,,StudyProc5
READ_JOL A,49,2,3,BlockProc2,Adjourn - End,F,6,,,68,6057,,,,,,,,,,StudyProc5
READ_JOL A,49,2,3,BlockProc2,Plane - Aircraft,B,34,,,100,3519,,,,,,,,,,StudyProc5
READ_JOL A,49,2,3,BlockProc2,Furry - Dog,F,7,,,100,2934,,,,,,,,,,StudyProc5
READ_JOL A,49,2,3,BlockProc2,Bird - Penguin,B,24,,,0,3405,,,,,,,,,,StudyProc5
READ_JOL A,49,2,3,BlockProc2,Baseball - League,B,36,,,0,2601,,,,,,,,,,StudyProc5
READ_JOL A,49,2,3,BlockProc2,Incense - Smell,F,15,,,56,12301,,,,,,,,,,StudyProc5
READ_JOL A,49,2,3,BlockProc2,Extension - Long,F,1,,,100,6204,,,,,,,,,,StudyProc5
READ_JOL A,49,2,3,BlockProc2,Turn - Flip,B,21,,,100,5062,,,,,,,,,,StudyProc5
READ_JOL A,49,2,3,BlockProc2,Shoelace - Tie,F,4,,,100,5509,,,,,,,,,,StudyProc5
READ_JOL A,49,2,3,BlockProc2,Detective - Mystery,F,5,,,100,4186,,,,,,,,,,StudyProc5
READ_JOL A,49,2,3,BlockProc2,Car - Windshield,B,22,,,54,5726,,,,,,,,,,StudyProc5
READ_JOL A,49,2,3,BlockProc2,Bad - Villain,B,23,,,87,6466,,,,,,,,,,StudyProc5
READ_JOL A,49,2,3,BlockProc2,Affection - Love,F,20,,,50,5760,,,,,,,,,,StudyProc5
READ_JOL A,49,2,3,BlockProc2,Shears - Scissors,F,17,,,0,2539,,,,,,,,,,StudyProc5
READ_JOL A,49,2,3,BlockProc2,Pop - Balloon,B,28,,,100,3066,,,,,,,,,,StudyProc5
READ_JOL A,49,2,3,BlockProc2,Cherry - Red,F,9,,,99,5900,,,,,,,,,,StudyProc5
READ_JOL A,49,2,3,BlockProc2,Dine - Eat,F,16,,,98,5409,,,,,,,,,,StudyProc5
READ_JOL A,49,2,3,BlockProc2,Even - Revenge,B,27,,,100,4450,,,,,,,,,,StudyProc5
READ_JOL A,49,2,3,BlockProc2,Honest - Truthful,B,38,,,100,2931,,,,,,,,,,StudyProc5
READ_JOL A,49,2,3,BlockProc2,Thread - Thimble,B,26,,,0,2450,,,,,,,,,,StudyProc5
READ_JOL A,49,2,3,BlockProc2,Dead - Coffin,B,33,,,0,2005,,,,,,,,,,StudyProc5
READ_JOL A,49,2,3,BlockProc2,Mule - Donkey,F,13,,,0,3298,,,,,,,,,,StudyProc5
READ_JOL A,49,2,3,BlockProc2,Star - Actress,B,25,,,55,2762,,,,,,,,,,StudyProc5
READ_JOL A,49,2,3,BlockProc2,Chop - Cut,F,12,,,100,5312,,,,,,,,,,StudyProc5
READ_JOL A,49,2,3,BlockProc2,Driver - Car,F,11,,,100,4661,,,,,,,,,,StudyProc5
READ_JOL A,49,2,3,BlockProc2,Best - Favorite,B,30,,,89,9597,,,,,,,,,,StudyProc5
READ_JOL A,49,2,3,BlockProc2,Clue - Game,F,2,,,35,5187,,,,,,,,,,StudyProc5
READ_JOL A,49,2,3,BlockProc2,Cat - Panther,B,31,,,0,2390,,,,,,,,,,StudyProc5
READ_JOL A,49,2,3,BlockProc2,Document - Paper,F,14,,,66,4186,,,,,,,,,,StudyProc5
READ_JOL A,49,2,3,BlockProc2,Cactus - Plant,F,3,,,99,3638,,,,,,,,,,StudyProc5
READ_JOL A,49,2,3,BlockProc2,Litter - Trash,F,8,,,99,3520,,,,,,,,,,StudyProc5
READ_JOL A,49,2,3,BlockProc2,Fight - Brawl,B,40,,,0,3279,,,,,,,,,,StudyProc5
READ_JOL A,49,2,3,BlockProc2,Fish - Sardine,B,35,,,0,2768,,,,,,,,,,StudyProc5
READ_JOL A,49,2,3,BlockProc2,Glass - Breakable,B,32,,,0,2422,,,,,,,,,,StudyProc5
READ_JOL A,49,2,3,BlockProc2,Money - Banker,B,37,,,55,4969,,,,,,,,,,StudyProc5
READ_JOL A,49,2,3,BlockProc2,Scalp - Head,F,10,,,0,4117,,,,,,,,,,StudyProc5
READ_JOL A,49,2,3,BlockProc2,Fruit - Strawberry,B,29,,,0,5739,,,,,,,,,,StudyProc5
READ_JOL A,49,2,3,BlockProc2,Contest - Competition,,5,,,,,,,,,,,,,,StudyProc6
READ_JOL A,49,2,3,BlockProc2,Mind - Matter,,2,,,,,,,,,,,,,,StudyProc6
READ_JOL A,49,2,3,BlockProc2,Deciet - Cheat,,1,,,,,,,,,,,,,,StudyProc6
READ_JOL A,49,2,3,BlockProc2,Deaf - Hear,,3,,,,,,,,,,,,,,StudyProc6
READ_JOL A,49,2,3,BlockProc2,Magician - Magic,,4,,,,,,,,,,,,,,StudyProc6
READ_JOL A,49,2,3,BlockProc2,Best - ?,,30,,,,,,,great,,,,,,,recallproc2
READ_JOL A,49,2,3,BlockProc2,Name - ?,,72,,,,,,,tag,,,,,,,recallproc2
READ_JOL A,49,2,3,BlockProc2,Sleep - ?,,39,,,,,,,drowsy,,,,,,,recallproc2
READ_JOL A,49,2,3,BlockProc2,Own - ?,,58,,,,,,,car,,,,,,,recallproc2
READ_JOL A,49,2,3,BlockProc2,Rod - ?,,55,,,,,,,lever,,,,,,,recallproc2
READ_JOL A,49,2,3,BlockProc2,Glass - ?,,32,,,,,,,breakable,,,,,,,recallproc2
READ_JOL A,49,2,3,BlockProc2,Give - ?,,63,,,,,,,book,,,,,,,recallproc2
