ExperimentName,Subject,Block,list,Procedure[Block],cue_target,Direction,ListNum,pword3.RESP,pword3.RT,pword5.RESP,pword5.RT,Rword1.RESP,Rword1.RT,Rword2.RESP,pword8.RESP,pword8.RT,pword9.RESP,pword9.RT,Procedure[Trial]
RL_JOL D,100,1,,BlockProc1,Hinge-Swing,,5,,,,,,,,,,,,Practice1
RL_JOL D,100,1,,BlockProc1,Behavior-Social,,9,,,,,,,,,,,,Practice1
RL_JOL D,100,1,,BlockProc1,Deaf-Mute,,2,,,,,,,,,,,,Practice1
RL_JOL D,100,1,,BlockProc1,Disbelieve-Skeptic,,6,,,,,,,,,,,,Practice1
RL_JOL D,100,1,,BlockProc1,Chime-Music,,8,,,,,,,,,,,,Practice1
RL_JOL D,100,1,,BlockProc1,Ham-Bone,,3,,,,,,,,,,,,Practice1
RL_JOL D,100,1,,BlockProc1,Fashion-Model,,10,,,,,,,,,,,,Practice1
RL_JOL D,100,1,,BlockProc1,Chocolate-Bar,,7,,,,,,,,,,,,Practice1
RL_JOL D,100,1,,BlockProc1,Aardvark-Zoo,,1,,,,,,,,,,,,Practice1
RL_JOL D,100,1,,BlockProc1,Paddle-Row,,4,,,,,,,,,,,,Practice1
RL_JOL D,100,1,3,BlockProc1,Shrimp - Fish,,4,,,,,,,,,,,,StudyProc1
RL_JOL D,100,1,3,BlockProc1,Curtain - Drapes,,2,,,,,,,,,,,,StudyProc1
RL_JOL D,100,1,3,BlockProc1,Snow - Ice,,3,,,,,,,,,,,,StudyProc1
RL_JOL D,100,1,3,BlockProc1,Member - Group,,5,,,,,,,,,,,,StudyProc1
RL_JOL D,100,1,3,BlockProc1,Haircut-Scissors,,1,,,,,,,,,,,,StudyProc1
RL_JOL D,100,1,3,BlockProc1,Eat - Dine,B,16,76,5779,,,,,,,,,,StudyProc3
RL_JOL D,100,1,3,BlockProc1,Favorite - Best,F,30,67,11237,,,,,,,,,,StudyProc3
RL_JOL D,100,1,3,BlockProc1,Mystery - Detective,B,5,56,6529,,,,,,,,,,StudyProc3
RL_JOL D,100,1,3,BlockProc1,League - Baseball,F,36,89,5325,,,,,,,,,,StudyProc3
RL_JOL D,100,1,3,BlockProc1,Thimble - Thread,F,26,12,9089,,,,,,,,,,StudyProc3
RL_JOL D,100,1,3,BlockProc1,Long - Extension,B,1,45,4435,,,,,,,,,,StudyProc3
RL_JOL D,100,1,3,BlockProc1,Sardine - Fish,F,35,38,4821,,,,,,,,,,StudyProc3
RL_JOL D,100,1,3,BlockProc1,Plant - Cactus,B,3,45,10415,,,,,,,,,,StudyProc3
RL_JOL D,100,1,3,BlockProc1,Red - Cherry,B,9,43,10811,,,,,,,,,,StudyProc3
RL_JOL D,100,1,3,BlockProc1,Brawl - Fight,F,40,35,5695,,,,,,,,,,StudyProc3
RL_JOL D,100,1,3,BlockProc1,Nap - Sleep,F,39,89,6997,,,,,,,,,,StudyProc3
RL_JOL D,100,1,3,BlockProc1,Penguin - Bird,F,24,87,4845,,,,,,,,,,StudyProc3
RL_JOL D,100,1,3,BlockProc1,Coffin - Dead,F,33,89,7534,,,,,,,,,,StudyProc3
RL_JOL D,100,1,3,BlockProc1,Villain - Bad,F,23,76,12760,,,,,,,,,,StudyProc3
RL_JOL D,100,1,3,BlockProc1,Windshield - Car,F,22,54,9349,,,,,,,,,,StudyProc3
RL_JOL D,100,1,3,BlockProc1,Fight - Feud,B,18,44,4613,,,,,,,,,,StudyProc3
RL_JOL D,100,1,3,BlockProc1,Strawberry - Fruit,F,29,65,7063,,,,,,,,,,StudyProc3
RL_JOL D,100,1,3,BlockProc1,Banker - Money,F,37,56,9612,,,,,,,,,,StudyProc3
RL_JOL D,100,1,3,BlockProc1,Balloon - Pop,F,28,45,8153,,,,,,,,,,StudyProc3
RL_JOL D,100,1,3,BlockProc1,Revenge - Even,F,27,36,14187,,,,,,,,,,StudyProc3
RL_JOL D,100,1,3,BlockProc1,Donkey - Mule,B,13,66,4420,,,,,,,,,,StudyProc3
RL_JOL D,100,1,3,BlockProc1,Car - Driver,B,11,76,8143,,,,,,,,,,StudyProc3
RL_JOL D,100,1,3,BlockProc1,Actress - Star,F,25,56,5216,,,,,,,,,,StudyProc3
RL_JOL D,100,1,3,BlockProc1,Trash - Litter,B,8,89,7993,,,,,,,,,,StudyProc3
RL_JOL D,100,1,3,BlockProc1,Head - Scalp,B,10,56,6505,,,,,,,,,,StudyProc3
RL_JOL D,100,1,3,BlockProc1,End - Adjourn,B,6,12,6669,,,,,,,,,,StudyProc3
RL_JOL D,100,1,3,BlockProc1,Aircraft - Plane,F,34,67,3979,,,,,,,,,,StudyProc3
RL_JOL D,100,1,3,BlockProc1,Game - Clue,B,2,45,4327,,,,,,,,,,StudyProc3
RL_JOL D,100,1,3,BlockProc1,Love - Affection,B,20,89,5861,,,,,,,,,,StudyProc3
RL_JOL D,100,1,3,BlockProc1,Tie - Shoelace,B,4,67,5292,,,,,,,,,,StudyProc3
RL_JOL D,100,1,3,BlockProc1,Cut - Chop,B,12,78,4834,,,,,,,,,,StudyProc3
RL_JOL D,100,1,3,BlockProc1,Panther - Cat,F,31,56,6275,,,,,,,,,,StudyProc3
RL_JOL D,100,1,3,BlockProc1,Truthful - Honest,F,38,68,10401,,,,,,,,,,StudyProc3
RL_JOL D,100,1,3,BlockProc1,Smell - Incense,B,15,67,3158,,,,,,,,,,StudyProc3
RL_JOL D,100,1,3,BlockProc1,Paper - Document,B,14,59,6155,,,,,,,,,,StudyProc3
RL_JOL D,100,1,3,BlockProc1,Cold - Chill,B,19,87,6262,,,,,,,,,,StudyProc3
RL_JOL D,100,1,3,BlockProc1,Scissors - Shears,B,17,19,6653,,,,,,,,,,StudyProc3
RL_JOL D,100,1,3,BlockProc1,Flip - Turn,F,21,24,6683,,,,,,,,,,StudyProc3
RL_JOL D,100,1,3,BlockProc1,Dog - Furry,B,7,34,8025,,,,,,,,,,StudyProc3
RL_JOL D,100,1,3,BlockProc1,Breakable - Glass,F,32,34,6815,,,,,,,,,,StudyProc3
RL_JOL D,100,1,3,BlockProc1,Noise - Loud,S,57,,,,,,,,56,10200,,,StudyProc7
RL_JOL D,100,1,3,BlockProc1,Charm - Vehicle,U,65,,,,,,,,23,19301,,,StudyProc7
RL_JOL D,100,1,3,BlockProc1,Jar - Mason,S,43,,,,,,,,24,5710,,,StudyProc7
RL_JOL D,100,1,3,BlockProc1,Shake - Shell,U,68,,,,,,,,314,7323,,,StudyProc7
RL_JOL D,100,1,3,BlockProc1,Equal - Rights,S,42,,,,,,,,56,4326,,,StudyProc7
RL_JOL D,100,1,3,BlockProc1,Wet - Dry,S,51,,,,,,,,78,6636,,,StudyProc7
RL_JOL D,100,1,3,BlockProc1,Wax - Candle,S,44,,,,,,,,78,7587,,,StudyProc7
RL_JOL D,100,1,3,BlockProc1,Lie - Truth,S,53,,,,,,,,78,4852,,,StudyProc7
RL_JOL D,100,1,3,BlockProc1,Bang - Fuzzy,U,73,,,,,,,,24,7948,,,StudyProc7
RL_JOL D,100,1,3,BlockProc1,Toil - Lease,U,75,,,,,,,,12,4070,,,StudyProc7
RL_JOL D,100,1,3,BlockProc1,Able - Crackle,U,67,,,,,,,,12,8278,,,StudyProc7
RL_JOL D,100,1,3,BlockProc1,Steak - Give,U,63,,,,,,,,8,12674,,,StudyProc7
RL_JOL D,100,1,3,BlockProc1,Obtain - Meat,U,66,,,,,,,,10,10338,,,StudyProc7
RL_JOL D,100,1,3,BlockProc1,Ground - Earth,S,49,,,,,,,,78,5353,,,StudyProc7
RL_JOL D,100,1,3,BlockProc1,Carbon - Element,S,46,,,,,,,,78,4005,,,StudyProc7
RL_JOL D,100,1,3,BlockProc1,Fiction - Listen,U,69,,,,,,,,67,6048,,,StudyProc7
RL_JOL D,100,1,3,BlockProc1,Temper - Tantrum,S,59,,,,,,,,78,3775,,,StudyProc7
RL_JOL D,100,1,3,BlockProc1,Lonely - Alone,S,50,,,,,,,,79,4493,,,StudyProc7
RL_JOL D,100,1,3,BlockProc1,Election - Maze,U,64,,,,,,,,18,5002,,,StudyProc7
RL_JOL D,100,1,3,BlockProc1,Drink - Water,S,48,,,,,,,,90,4141,,,StudyProc7
RL_JOL D,100,1,3,BlockProc1,Morning - Temperature,U,78,,,,,,,,67,10882,,,StudyProc7
RL_JOL D,100,1,3,BlockProc1,Tick - Flea,S,56,,,,,,,,45,3507,,,StudyProc7
RL_JOL D,100,1,3,BlockProc1,Cloth - Stretch,U,62,,,,,,,,56,7418,,,StudyProc7
RL_JOL D,100,1,3,BlockProc1,Bracelet - Wrist,S,45,,,,,,,,67,6177,,,StudyProc7
RL_JOL D,100,1,3,BlockProc1,Shave - Razor,S,41,,,,,,,,56,9379,,,StudyProc7
RL_JOL D,100,1,3,BlockProc1,Maroon - Justice,U,61,,,,,,,,34,6850,,,StudyProc7
RL_JOL D,100,1,3,BlockProc1,Scar - Main,U,80,,,,,,,,23,8648,,,StudyProc7
RL_JOL D,100,1,3,BlockProc1,Hate - Name,U,72,,,,,,,,8,25541,,,StudyProc7
RL_JOL D,100,1,3,BlockProc1,Seatbelt - Safety,S,52,,,,,,,,45,4134,,,StudyProc7
RL_JOL D,100,1,3,BlockProc1,Communication - Phone,S,54,,,,,,,,89,6652,,,StudyProc7
RL_JOL D,100,1,3,BlockProc1,Sign - Loan,U,76,,,,,,,,34,10971,,,StudyProc7
RL_JOL D,100,1,3,BlockProc1,Tan - Sun,S,60,,,,,,,,90,3144,,,StudyProc7
RL_JOL D,100,1,3,BlockProc1,Ounce - Both,U,77,,,,,,,,13,4407,,,StudyProc7
RL_JOL D,100,1,3,BlockProc1,Have - Own,S,58,,,,,,,,45,3489,,,StudyProc7
RL_JOL D,100,1,3,BlockProc1,Away - Gone,S,47,,,,,,,,67,2865,,,StudyProc7
RL_JOL D,100,1,3,BlockProc1,Clear - Moat,U,74,,,,,,,,23,5274,,,StudyProc7
RL_JOL D,100,1,3,BlockProc1,Clothes - Cake,U,71,,,,,,,,23,8553,,,StudyProc7
RL_JOL D,100,1,3,BlockProc1,Reel - Rod,S,55,,,,,,,,11,6186,,,StudyProc7
RL_JOL D,100,1,3,BlockProc1,Joke - Keys,U,70,,,,,,,,11,11732,,,StudyProc7
RL_JOL D,100,1,3,BlockProc1,Children - Mirror,U,79,,,,,,,,12,7850,,,StudyProc7
RL_JOL D,100,1,3,BlockProc1,Trees - Green,,5,,,,,,,,,,,,StudyProc2
RL_JOL D,100,1,3,BlockProc1,Friendliness - Nice,,3,,,,,,,,,,,,StudyProc2
RL_JOL D,100,1,3,BlockProc1,Catcher - Baseball,,4,,,,,,,,,,,,StudyProc2
RL_JOL D,100,1,3,BlockProc1,Geese - Goose,,1,,,,,,,,,,,,StudyProc2
RL_JOL D,100,1,3,BlockProc1,Grab - Take,,2,,,,,,,,,,,,StudyProc2
RL_JOL D,100,1,3,BlockProc1,Communication - ?,,54,,,,,speak,15086,,,,,,recallproc1
RL_JOL D,100,1,3,BlockProc1,Clothes - ?,,71,,,,,cake,3570,,,,,,recallproc1
RL_JOL D,100,1,3,BlockProc1,Hate - ?,,72,,,,,love,7416,,,,,,recallproc1
RL_JOL D,100,1,3,BlockProc1,Noise - ?,,57,,,,,loud,7807,,,,,,recallproc1
RL_JOL D,100,1,3,BlockProc1,Joke - ?,,70,,,,,keys,5087,,,,,,recallproc1
RL_JOL D,100,1,3,BlockProc1,Shake - ?,,68,,,,,fuzzy,13301,,,,,,recallproc1
RL_JOL D,100,1,3,BlockProc1,Lie - ?,,53,,,,,truth,2435,,,,,,recallproc1
RL_JOL D,100,1,3,BlockProc1,Nap - ?,,39,,,,,sleep,1791,,,,,,recallproc1
RL_JOL D,100,1,3,BlockProc1,Cut - ?,,12,,,,,hair,1661,,,,,,recallproc1
RL_JOL D,100,1,3,BlockProc1,Aircraft - ?,,34,,,,,pilot,2199,,,,,,recallproc1
RL_JOL D,100,1,3,BlockProc1,Long - ?,,1,,,,,extension,2869,,,,,,recallproc1
RL_JOL D,100,1,3,BlockProc1,Donkey - ?,,13,,,,,mule,1671,,,,,,recallproc1
RL_JOL D,100,1,3,BlockProc1,Thimble - ?,,26,,,,,stubble,14057,,,,,,recallproc1
RL_JOL D,100,1,3,BlockProc1,Fiction - ?,,69,,,,,novel,5968,,,,,,recallproc1
RL_JOL D,100,1,3,BlockProc1,Carbon - ?,,46,,,,,oxygen,14842,,,,,,recallproc1
RL_JOL D,100,1,3,BlockProc1,Trash - ?,,8,,,,,rubbish,8330,,,,,,recallproc1
RL_JOL D,100,1,3,BlockProc1,Balloon - ?,,28,,,,,pop,2043,,,,,,recallproc1
RL_JOL D,100,1,3,BlockProc1,Sign - ?,,76,,,,,voice,3630,,,,,,recallproc1
RL_JOL D,100,1,3,BlockProc1,Clear - ?,,74,,,,,glass,11752,,,,,,recallproc1
RL_JOL D,100,1,3,BlockProc1,Truthful - ?,,38,,,,,repsect,10342,,,,,,recallproc1
RL_JOL D,100,1,3,BlockProc1,Eat - ?,,16,,,,,mouth,13126,,,,,,recallproc1
RL_JOL D,100,1,3,BlockProc1,Able - ?,,67,,,,,can,6731,,,,,,recallproc1
RL_JOL D,100,1,3,BlockProc1,Plant - ?,,3,,,,,trees,2838,,,,,,recallproc1
RL_JOL D,100,1,3,BlockProc1,Head - ?,,10,,,,,scalp,2337,,,,,,recallproc1
RL_JOL D,100,1,3,BlockProc1,Toil - ?,,75,,,,,rope,23032,,,,,,recallproc1
RL_JOL D,100,1,3,BlockProc1,Maroon - ?,,61,,,,,able,11703,,,,,,recallproc1
RL_JOL D,100,1,3,BlockProc1,Mystery - ?,,5,,,,,crime,2255,,,,,,recallproc1
RL_JOL D,100,1,3,BlockProc1,Revenge - ?,,27,,,,,justice,10449,,,,,,recallproc1
RL_JOL D,100,1,3,BlockProc1,Temper - ?,,59,,,,,anger,1692,,,,,,recallproc1
RL_JOL D,100,1,3,BlockProc1,Away - ?,,47,,,,,distant,3806,,,,,,recallproc1
RL_JOL D,100,1,3,BlockProc1,Breakable - ?,,32,,,,,glass,2409,,,,,,recallproc1
RL_JOL D,100,1,3,BlockProc1,Wet - ?,,51,,,,,dry,1565,,,,,,recallproc1
RL_JOL D,100,1,3,BlockProc1,Windshield - ?,,22,,,,,car,1860,,,,,,recallproc1
RL_JOL D,100,1,3,BlockProc1,Villain - ?,,23,,,,,bad,7463,,,,,,recallproc1
RL_JOL D,100,1,3,BlockProc1,Morning - ?,,78,,,,,weather,3164,,,,,,recallproc1
RL_JOL D,100,1,3,BlockProc1,Panther - ?,,31,,,,,cat,4298,,,,,,recallproc1
RL_JOL D,100,1,3,BlockProc1,Obtain - ?,,66,,,,,hold,4713,,,,,,recallproc1
RL_JOL D,100,1,3,BlockProc1,Favorite - ?,,30,,,,,best,4599,,,,,,recallproc1
RL_JOL D,100,1,3,BlockProc1,Fight - ?,,18,,,,,hit,8713,,,,,,recallproc1
RL_JOL D,100,1,3,BlockProc1,League - ?,,36,,,,,baseball,2603,,,,,,recallproc1
RL_JOL D,100,1,3,BlockProc1,Wax - ?,,44,,,,,face,9767,,,,,,recallproc1
RL_JOL D,100,1,3,BlockProc1,Smell - ?,,15,,,,,fragrance,6494,,,,,,recallproc1
RL_JOL D,100,1,3,BlockProc1,Charm - ?,,65,,,,,vehicle,4611,,,,,,recallproc1
RL_JOL D,100,1,3,BlockProc1,Have - ?,,58,,,,,need,2870,,,,,,recallproc1
RL_JOL D,100,1,3,BlockProc1,Red - ?,,9,,,,,cheery,2079,,,,,,recallproc1
RL_JOL D,100,1,3,BlockProc1,Tick - ?,,56,,,,,flee,3225,,,,,,recallproc1
RL_JOL D,100,1,3,BlockProc1,Banker - ?,,37,,,,,money,7195,,,,,,recallproc1
RL_JOL D,100,1,3,BlockProc1,Scissors - ?,,17,,,,,cut,2204,,,,,,recallproc1
RL_JOL D,100,1,3,BlockProc1,Coffin - ?,,33,,,,,dead,3024,,,,,,recallproc1
RL_JOL D,100,1,3,BlockProc1,Scar - ?,,80,,,,,cut,6499,,,,,,recallproc1
RL_JOL D,100,1,3,BlockProc1,Election - ?,,64,,,,,president,3280,,,,,,recallproc1
RL_JOL D,100,1,3,BlockProc1,Cold - ?,,19,,,,,wet,8504,,,,,,recallproc1
RL_JOL D,100,1,3,BlockProc1,Shave - ?,,41,,,,,razor,5131,,,,,,recallproc1
RL_JOL D,100,1,3,BlockProc1,End - ?,,6,,,,,stop,7160,,,,,,recallproc1
RL_JOL D,100,1,3,BlockProc1,Sardine - ?,,35,,,,,fish,2546,,,,,,recallproc1
RL_JOL D,100,1,3,BlockProc1,Game - ?,,2,,,,,money,4704,,,,,,recallproc1
RL_JOL D,100,1,3,BlockProc1,Love - ?,,20,,,,,affection,4063,,,,,,recallproc1
RL_JOL D,100,1,3,BlockProc1,Tie - ?,,4,,,,,knot,6728,,,,,,recallproc1
RL_JOL D,100,1,3,BlockProc1,Steak - ?,,63,,,,,able,5035,,,,,,recallproc1
RL_JOL D,100,1,3,BlockProc1,Dog - ?,,7,,,,,cat,2108,,,,,,recallproc1
RL_JOL D,100,1,3,BlockProc1,Car - ?,,11,,,,,vehicle,5020,,,,,,recallproc1
RL_JOL D,100,1,3,BlockProc1,Bang - ?,,73,,,,,pop,2270,,,,,,recallproc1
RL_JOL D,100,1,3,BlockProc1,Brawl - ?,,40,,,,,fight,4176,,,,,,recallproc1
RL_JOL D,100,1,3,BlockProc1,Flip - ?,,21,,,,,spin,10044,,,,,,recallproc1
RL_JOL D,100,1,3,BlockProc1,Cloth - ?,,62,,,,,curtain,3959,,,,,,recallproc1
RL_JOL D,100,1,3,BlockProc1,Children - ?,,79,,,,,fun,6676,,,,,,recallproc1
RL_JOL D,100,1,3,BlockProc1,Lonely - ?,,50,,,,,isolation,9241,,,,,,recallproc1
RL_JOL D,100,1,3,BlockProc1,Strawberry - ?,,29,,,,,fruit,6022,,,,,,recallproc1
RL_JOL D,100,1,3,BlockProc1,Jar - ?,,43,,,,,container,8943,,,,,,recallproc1
RL_JOL D,100,1,3,BlockProc1,Actress - ?,,25,,,,,stage,7615,,,,,,recallproc1
RL_JOL D,100,1,3,BlockProc1,Ounce - ?,,77,,,,,length,15950,,,,,,recallproc1
RL_JOL D,100,1,3,BlockProc1,Penguin - ?,,24,,,,,cold,5912,,,,,,recallproc1
RL_JOL D,100,1,3,BlockProc1,Bracelet - ?,,45,,,,,hand,9492,,,,,,recallproc1
RL_JOL D,100,1,3,BlockProc1,Ground - ?,,49,,,,,earth,2583,,,,,,recallproc1
RL_JOL D,100,1,3,BlockProc1,Equal - ?,,42,,,,,even,3860,,,,,,recallproc1
RL_JOL D,100,1,3,BlockProc1,Reel - ?,,55,,,,,steel,3117,,,,,,recallproc1
RL_JOL D,100,1,3,BlockProc1,Paper - ?,,14,,,,,book,4277,,,,,,recallproc1
RL_JOL D,100,1,3,BlockProc1,Tan - ?,,60,,,,,sun,5164,,,,,,recallproc1
RL_JOL D,100,1,3,BlockProc1,Drink - ?,,48,,,,,food,5648,,,,,,recallproc1
RL_JOL D,100,1,3,BlockProc1,Seatbelt - ?,,52,,,,,car,1672,,,,,,recallproc1
RL_JOL D,100,2,3,BlockProc2,Sheriff - Police,,1,,,,,,,,,,,,StudyProc4
RL_JOL D,100,2,3,BlockProc2,Essay - Write,,4,,,,,,,,,,,,StudyProc4
RL_JOL D,100,2,3,BlockProc2,Hide - Scare,,2,,,,,,,,,,,,StudyProc4
RL_JOL D,100,2,3,BlockProc2,Disintegrate - Disappear,,3,,,,,,,,,,,,StudyProc4
RL_JOL D,100,2,3,BlockProc2,Malt - Chocolate,,5,,,,,,,,,,,,StudyProc4
RL_JOL D,100,2,3,BlockProc2,Latch - Key,F,31,,,12,8021,,,,,,,,StudyProc5
RL_JOL D,100,2,3,BlockProc2,Clean - Hygiene,B,12,,,78,6780,,,,,,,,StudyProc5
RL_JOL D,100,2,3,BlockProc2,Talk - Discussion,B,16,,,56,6773,,,,,,,,StudyProc5
RL_JOL D,100,2,3,BlockProc2,Sting - Hornet,B,6,,,23,5071,,,,,,,,StudyProc5
RL_JOL D,100,2,3,BlockProc2,Sip - Drink,F,22,,,45,7782,,,,,,,,StudyProc5
RL_JOL D,100,2,3,BlockProc2,Bird - Swan,B,9,,,67,2671,,,,,,,,StudyProc5
RL_JOL D,100,2,3,BlockProc2,Enough - Full,F,21,,,56,8008,,,,,,,,StudyProc5
RL_JOL D,100,2,3,BlockProc2,Fish - Tuna,B,20,,,56,6679,,,,,,,,StudyProc5
RL_JOL D,100,2,3,BlockProc2,Famine - Hunger,F,35,,,78,3717,,,,,,,,StudyProc5
RL_JOL D,100,2,3,BlockProc2,Money - Wage,B,3,,,45,11068,,,,,,,,StudyProc5
RL_JOL D,100,2,3,BlockProc2,Growth - Height,F,25,,,78,12101,,,,,,,,StudyProc5
RL_JOL D,100,2,3,BlockProc2,Bad - Delinquent,B,1,,,12,6220,,,,,,,,StudyProc5
RL_JOL D,100,2,3,BlockProc2,Chore - Work,F,34,,,23,6733,,,,,,,,StudyProc5
RL_JOL D,100,2,3,BlockProc2,Dog - Paw,B,10,,,45,4992,,,,,,,,StudyProc5
RL_JOL D,100,2,3,BlockProc2,Drowsy - Sleep,F,36,,,56,3802,,,,,,,,StudyProc5
RL_JOL D,100,2,3,BlockProc2,Attire - Clothes,F,38,,,45,3878,,,,,,,,StudyProc5
RL_JOL D,100,2,3,BlockProc2,Water - Bridge,B,13,,,34,9158,,,,,,,,StudyProc5
RL_JOL D,100,2,3,BlockProc2,Plant - Root,B,8,,,45,2862,,,,,,,,StudyProc5
RL_JOL D,100,2,3,BlockProc2,Racket - Ball,F,33,,,55,4768,,,,,,,,StudyProc5
RL_JOL D,100,2,3,BlockProc2,Wasp - Bug,F,27,,,56,4188,,,,,,,,StudyProc5
RL_JOL D,100,2,3,BlockProc2,Word - Sentence,F,26,,,67,6168,,,,,,,,StudyProc5
RL_JOL D,100,2,3,BlockProc2,Chili - Hot,F,32,,,78,3666,,,,,,,,StudyProc5
RL_JOL D,100,2,3,BlockProc2,Attorney - Law,F,29,,,23,10683,,,,,,,,StudyProc5
RL_JOL D,100,2,3,BlockProc2,Seize - Take,F,24,,,34,2956,,,,,,,,StudyProc5
RL_JOL D,100,2,3,BlockProc2,Blaze - Fire,F,40,,,67,4498,,,,,,,,StudyProc5
RL_JOL D,100,2,3,BlockProc2,Rock - Geology,B,14,,,45,5241,,,,,,,,StudyProc5
RL_JOL D,100,2,3,BlockProc2,War - Revolution,B,15,,,56,7809,,,,,,,,StudyProc5
RL_JOL D,100,2,3,BlockProc2,Stench - Smell,F,37,,,67,4488,,,,,,,,StudyProc5
RL_JOL D,100,2,3,BlockProc2,Cow - Herd,B,17,,,45,3167,,,,,,,,StudyProc5
RL_JOL D,100,2,3,BlockProc2,Division - Math,F,28,,,56,3661,,,,,,,,StudyProc5
RL_JOL D,100,2,3,BlockProc2,Flower - Orchid,B,19,,,56,3462,,,,,,,,StudyProc5
RL_JOL D,100,2,3,BlockProc2,Cold - Bitter,B,7,,,67,2567,,,,,,,,StudyProc5
RL_JOL D,100,2,3,BlockProc2,Out - Way,B,11,,,45,8725,,,,,,,,StudyProc5
RL_JOL D,100,2,3,BlockProc2,Pilot - Plane,F,39,,,78,4783,,,,,,,,StudyProc5
RL_JOL D,100,2,3,BlockProc2,Stomach - Digestion,B,2,,,56,3970,,,,,,,,StudyProc5
RL_JOL D,100,2,3,BlockProc2,Card - Credit,B,18,,,56,3863,,,,,,,,StudyProc5
RL_JOL D,100,2,3,BlockProc2,Fantastic - Great,F,30,,,78,3624,,,,,,,,StudyProc5
RL_JOL D,100,2,3,BlockProc2,Cave - Dark,F,23,,,45,13642,,,,,,,,StudyProc5
RL_JOL D,100,2,3,BlockProc2,Hammer - Chisel,B,4,,,23,6603,,,,,,,,StudyProc5
RL_JOL D,100,2,3,BlockProc2,News - Editor,B,5,,,55,6067,,,,,,,,StudyProc5
RL_JOL D,100,2,3,BlockProc2,Child - Baby,S,59,,,,,,,,,,89,6842,StudyProc8
RL_JOL D,100,2,3,BlockProc2,Amount - Number,S,42,,,,,,,,,,45,11193,StudyProc8
RL_JOL D,100,2,3,BlockProc2,Round - Circle,S,60,,,,,,,,,,78,5222,StudyProc8
RL_JOL D,100,2,3,BlockProc2,Vase - King,U,80,,,,,,,,,,23,6407,StudyProc8
RL_JOL D,100,2,3,BlockProc2,Bronze - Artery,U,69,,,,,,,,,,23,4623,StudyProc8
RL_JOL D,100,2,3,BlockProc2,Belt - Soon,U,65,,,,,,,,,,23,7929,StudyProc8
RL_JOL D,100,2,3,BlockProc2,Would - Cash,U,78,,,,,,,,,,23,5995,StudyProc8
RL_JOL D,100,2,3,BlockProc2,Lion - Art,U,74,,,,,,,,,,34,6828,StudyProc8
RL_JOL D,100,2,3,BlockProc2,Sacking -Dietary,U,62,,,,,,,,,,34,12907,StudyProc8
RL_JOL D,100,2,3,BlockProc2,Future - Past,S,56,,,,,,,,,,78,6634,StudyProc8
RL_JOL D,100,2,3,BlockProc2,Waste - Dump,S,44,,,,,,,,,,67,2888,StudyProc8
RL_JOL D,100,2,3,BlockProc2,Riddle - Sugar,U,76,,,,,,,,,,23,12089,StudyProc8
RL_JOL D,100,2,3,BlockProc2,Business - Death,U,67,,,,,,,,,,23,8545,StudyProc8
RL_JOL D,100,2,3,BlockProc2,Car - Happy,U,72,,,,,,,,,,45,4889,StudyProc8
RL_JOL D,100,2,3,BlockProc2,Assignment - Due,S,41,,,,,,,,,,78,3568,StudyProc8
RL_JOL D,100,2,3,BlockProc2,Foot - Shoe,S,55,,,,,,,,,,89,5093,StudyProc8
RL_JOL D,100,2,3,BlockProc2,Accident - Strong,U,75,,,,,,,,,,45,8099,StudyProc8
RL_JOL D,100,2,3,BlockProc2,Floor - Discover,U,66,,,,,,,,,,23,9102,StudyProc8
RL_JOL D,100,2,3,BlockProc2,Hungry - Park,U,63,,,,,,,,,,23,12489,StudyProc8
RL_JOL D,100,2,3,BlockProc2,Add - Valley,U,77,,,,,,,,,,12,14824,StudyProc8
RL_JOL D,100,2,3,BlockProc2,Sight - Debate,U,68,,,,,,,,,,12,6552,StudyProc8
RL_JOL D,100,2,3,BlockProc2,Cheese - Wine,S,52,,,,,,,,,,67,4746,StudyProc8
RL_JOL D,100,2,3,BlockProc2,Site - Location,S,43,,,,,,,,,,67,3943,StudyProc8
RL_JOL D,100,2,3,BlockProc2,Soda - Pop,S,51,,,,,,,,,,45,4604,StudyProc8
RL_JOL D,100,2,3,BlockProc2,Liver - Kidney,S,48,,,,,,,,,,56,2630,StudyProc8
RL_JOL D,100,2,3,BlockProc2,Salad - Lettuce,S,54,,,,,,,,,,67,2331,StudyProc8
RL_JOL D,100,2,3,BlockProc2,Tuck - Allow,U,73,,,,,,,,,,12,17241,StudyProc8
RL_JOL D,100,2,3,BlockProc2,Hand - Fix,U,70,,,,,,,,,,34,4686,StudyProc8
RL_JOL D,100,2,3,BlockProc2,Bar - Grill,S,47,,,,,,,,,,34,7582,StudyProc8
RL_JOL D,100,2,3,BlockProc2,End - Begin,S,49,,,,,,,,,,89,2670,StudyProc8
RL_JOL D,100,2,3,BlockProc2,Woman - Lift,U,64,,,,,,,,,,56,5367,StudyProc8
RL_JOL D,100,2,3,BlockProc2,Toilet - Bathroom,S,53,,,,,,,,,,78,2283,StudyProc8
RL_JOL D,100,2,3,BlockProc2,Bee - Honey,S,58,,,,,,,,,,56,13004,StudyProc8
RL_JOL D,100,2,3,BlockProc2,Clutter - Pusher,U,61,,,,,,,,,,12,5487,StudyProc8
RL_JOL D,100,2,3,BlockProc2,Jury - Trial,S,45,,,,,,,,,,16,4261,StudyProc8
RL_JOL D,100,2,3,BlockProc2,Design - Architecture,S,46,,,,,,,,,,56,4789,StudyProc8
RL_JOL D,100,2,3,BlockProc2,Position - Machine,U,71,,,,,,,,,,34,7032,StudyProc8
RL_JOL D,100,2,3,BlockProc2,Wind - Blow,S,50,,,,,,,,,,45,3039,StudyProc8
RL_JOL D,100,2,3,BlockProc2,Sick - Hide,U,79,,,,,,,,,,23,7121,StudyProc8
RL_JOL D,100,2,3,BlockProc2,Decision - Choise,S,57,,,,,,,,,,56,6045,StudyProc8
RL_JOL D,100,2,3,BlockProc2,Mind - Matter,,2,,,,,,,,,,,,StudyProc6
RL_JOL D,100,2,3,BlockProc2,Deciet - Cheat,,1,,,,,,,,,,,,StudyProc6
RL_JOL D,100,2,3,BlockProc2,Deaf - Hear,,3,,,,,,,,,,,,StudyProc6
RL_JOL D,100,2,3,BlockProc2,Magician - Magic,,4,,,,,,,,,,,,StudyProc6
RL_JOL D,100,2,3,BlockProc2,Contest - Competition,,5,,,,,,,,,,,,StudyProc6
RL_JOL D,100,2,3,BlockProc2,Salad - ?,,54,,,,,,,lettuce,,,,,recallproc2
RL_JOL D,100,2,3,BlockProc2,Woman - ?,,64,,,,,,,weightlifter,,,,,recallproc2
RL_JOL D,100,2,3,BlockProc2,Foot - ?,,55,,,,,,,shoe,,,,,recallproc2
RL_JOL D,100,2,3,BlockProc2,Word - ?,,26,,,,,,,essay,,,,,recallproc2
RL_JOL D,100,2,3,BlockProc2,Future - ?,,56,,,,,,,past,,,,,recallproc2
RL_JOL D,100,2,3,BlockProc2,Hammer - ?,,4,,,,,,,chile,,,,,recallproc2
RL_JOL D,100,2,3,BlockProc2,Attorney - ?,,29,,,,,,,pp,,,,,recallproc2
RL_JOL D,100,2,3,BlockProc2,Assignment - ?,,41,,,,,,,homework,,,,,recallproc2
RL_JOL D,100,2,3,BlockProc2,Belt - ?,,65,,,,,,,pants,,,,,recallproc2
RL_JOL D,100,2,3,BlockProc2,End - ?,,49,,,,,,,death,,,,,recallproc2
RL_JOL D,100,2,3,BlockProc2,Division - ?,,28,,,,,,,numbers,,,,,recallproc2
RL_JOL D,100,2,3,BlockProc2,Amount - ?,,42,,,,,,,cash,,,,,recallproc2
RL_JOL D,100,2,3,BlockProc2,Chili - ?,,32,,,,,,,hot,,,,,recallproc2
RL_JOL D,100,2,3,BlockProc2,Racket - ?,,33,,,,,,,ball,,,,,recallproc2
RL_JOL D,100,2,3,BlockProc2,Blaze - ?,,40,,,,,,,scorch,,,,,recallproc2
RL_JOL D,100,2,3,BlockProc2,Wasp - ?,,27,,,,,,,bee,,,,,recallproc2
RL_JOL D,100,2,3,BlockProc2,Hand - ?,,70,,,,,,,hit,,,,,recallproc2
RL_JOL D,100,2,3,BlockProc2,Design - ?,,46,,,,,,,architecture,,,,,recallproc2
RL_JOL D,100,2,3,BlockProc2,Clutter - ?,,61,,,,,,,huddle,,,,,recallproc2
RL_JOL D,100,2,3,BlockProc2,Cheese - ?,,52,,,,,,,wine,,,,,recallproc2
RL_JOL D,100,2,3,BlockProc2,Talk - ?,,16,,,,,,,speech,,,,,recallproc2
RL_JOL D,100,2,3,BlockProc2,Site - ?,,43,,,,,,,location,,,,,recallproc2
RL_JOL D,100,2,3,BlockProc2,Bee - ?,,58,,,,,,,honey,,,,,recallproc2
RL_JOL D,100,2,3,BlockProc2,Cold - ?,,7,,,,,,,bitter,,,,,recallproc2
RL_JOL D,100,2,3,BlockProc2,Cow - ?,,17,,,,,,,herd,,,,,recallproc2
RL_JOL D,100,2,3,BlockProc2,Famine - ?,,35,,,,,,,poverty,,,,,recallproc2
RL_JOL D,100,2,3,BlockProc2,Soda - ?,,51,,,,,,,pop,,,,,recallproc2
RL_JOL D,100,2,3,BlockProc2,Jury - ?,,45,,,,,,,judge,,,,,recallproc2
RL_JOL D,100,2,3,BlockProc2,Bronze - ?,,69,,,,,,,metal,,,,,recallproc2
RL_JOL D,100,2,3,BlockProc2,Waste - ?,,44,,,,,,,rubbish,,,,,recallproc2
RL_JOL D,100,2,3,BlockProc2,Plant - ?,,8,,,,,,,rose,,,,,recallproc2
RL_JOL D,100,2,3,BlockProc2,Lion - ?,,74,,,,,,,art,,,,,recallproc2
RL_JOL D,100,2,3,BlockProc2,Latch - ?,,31,,,,,,,lock,,,,,recallproc2
RL_JOL D,100,2,3,BlockProc2,Liver - ?,,48,,,,,,,kidney,,,,,recallproc2
RL_JOL D,100,2,3,BlockProc2,Toilet - ?,,53,,,,,,,restroom,,,,,recallproc2
RL_JOL D,100,2,3,BlockProc2,Wind - ?,,50,,,,,,,cold,,,,,recallproc2
RL_JOL D,100,2,3,BlockProc2,Bad - ?,,1,,,,,,,bad,,,,,recallproc2
RL_JOL D,100,2,3,BlockProc2,Rock - ?,,14,,,,,,,floor,,,,,recallproc2
RL_JOL D,100,2,3,BlockProc2,Fantastic - ?,,30,,,,,,,great,,,,,recallproc2
RL_JOL D,100,2,3,BlockProc2,Sacking - ?,,62,,,,,,,job,,,,,recallproc2
RL_JOL D,100,2,3,BlockProc2,War - ?,,15,,,,,,,revolution,,,,,recallproc2
RL_JOL D,100,2,3,BlockProc2,Business - ?,,67,,,,,,,sackin,,,,,recallproc2
RL_JOL D,100,2,3,BlockProc2,Seize - ?,,24,,,,,,,hold,,,,,recallproc2
RL_JOL D,100,2,3,BlockProc2,Bird - ?,,9,,,,,,,swan,,,,,recallproc2
RL_JOL D,100,2,3,BlockProc2,Chore - ?,,34,,,,,,,sing,,,,,recallproc2
RL_JOL D,100,2,3,BlockProc2,Attire - ?,,38,,,,,,,cloth,,,,,recallproc2
RL_JOL D,100,2,3,BlockProc2,Flower - ?,,19,,,,,,,rose,,,,,recallproc2
RL_JOL D,100,2,3,BlockProc2,Water - ?,,13,,,,,,,drink,,,,,recallproc2
RL_JOL D,100,2,3,BlockProc2,Vase - ?,,80,,,,,,,hold,,,,,recallproc2
RL_JOL D,100,2,3,BlockProc2,Floor - ?,,66,,,,,,,ground,,,,,recallproc2
RL_JOL D,100,2,3,BlockProc2,Add - ?,,77,,,,,,,up,,,,,recallproc2
RL_JOL D,100,2,3,BlockProc2,Accident - ?,,75,,,,,,,car,,,,,recallproc2
RL_JOL D,100,2,3,BlockProc2,Would - ?,,78,,,,,,,should,,,,,recallproc2
RL_JOL D,100,2,3,BlockProc2,Decision - ?,,57,,,,,,,making,,,,,recallproc2
RL_JOL D,100,2,3,BlockProc2,Round - ?,,60,,,,,,,circle,,,,,recallproc2
RL_JOL D,100,2,3,BlockProc2,Enough - ?,,21,,,,,,,full,,,,,recallproc2
RL_JOL D,100,2,3,BlockProc2,Stench - ?,,37,,,,,,,smell,,,,,recallproc2
RL_JOL D,100,2,3,BlockProc2,Stomach - ?,,2,,,,,,,full,,,,,recallproc2
RL_JOL D,100,2,3,BlockProc2,Money - ?,,3,,,,,,,bag,,,,,recallproc2
RL_JOL D,100,2,3,BlockProc2,Sting - ?,,6,,,,,,,cut,,,,,recallproc2
RL_JOL D,100,2,3,BlockProc2,Clean - ?,,12,,,,,,,wash,,,,,recallproc2
RL_JOL D,100,2,3,BlockProc2,Cave - ?,,23,,,,,,,dark,,,,,recallproc2
RL_JOL D,100,2,3,BlockProc2,Growth - ?,,25,,,,,,,height,,,,,recallproc2
RL_JOL D,100,2,3,BlockProc2,Position - ?,,71,,,,,,,location,,,,,recallproc2
RL_JOL D,100,2,3,BlockProc2,Hungry - ?,,63,,,,,,,park,,,,,recallproc2
RL_JOL D,100,2,3,BlockProc2,Sight - ?,,68,,,,,,,see,,,,,recallproc2
RL_JOL D,100,2,3,BlockProc2,Tuck - ?,,73,,,,,,,hide,,,,,recallproc2
RL_JOL D,100,2,3,BlockProc2,Riddle - ?,,76,,,,,,,children,,,,,recallproc2
RL_JOL D,100,2,3,BlockProc2,Card - ?,,18,,,,,,,paper,,,,,recallproc2
RL_JOL D,100,2,3,BlockProc2,Pilot - ?,,39,,,,,,,palne,,,,,recallproc2
RL_JOL D,100,2,3,BlockProc2,Dog - ?,,10,,,,,,,furry,,,,,recallproc2
RL_JOL D,100,2,3,BlockProc2,Out - ?,,11,,,,,,,leave,,,,,recallproc2
RL_JOL D,100,2,3,BlockProc2,Car - ?,,72,,,,,,,accident,,,,,recallproc2
RL_JOL D,100,2,3,BlockProc2,Bar - ?,,47,,,,,,,hold,,,,,recallproc2
RL_JOL D,100,2,3,BlockProc2,Child - ?,,59,,,,,,,baby,,,,,recallproc2
RL_JOL D,100,2,3,BlockProc2,Sip - ?,,22,,,,,,,drink,,,,,recallproc2
RL_JOL D,100,2,3,BlockProc2,News - ?,,5,,,,,,,paper,,,,,recallproc2
RL_JOL D,100,2,3,BlockProc2,Fish - ?,,20,,,,,,,tuna,,,,,recallproc2
RL_JOL D,100,2,3,BlockProc2,Drowsy - ?,,36,,,,,,,tired,,,,,recallproc2
RL_JOL D,100,2,3,BlockProc2,Sick - ?,,79,,,,,,,cold,,,,,recallproc2
RL_JOL D,90,1,,BlockProc1,Ham-Bone,,3,,,,,,,,,,,,Practice1
RL_JOL D,90,1,,BlockProc1,Behavior-Social,,9,,,,,,,,,,,,Practice1
RL_JOL D,90,1,,BlockProc1,Chime-Music,,8,,,,,,,,,,,,Practice1
RL_JOL D,90,1,,BlockProc1,Chocolate-Bar,,7,,,,,,,,,,,,Practice1
RL_JOL D,90,1,,BlockProc1,Fashion-Model,,10,,,,,,,,,,,,Practice1
RL_JOL D,90,1,,BlockProc1,Hinge-Swing,,5,,,,,,,,,,,,Practice1
RL_JOL D,90,1,,BlockProc1,Deaf-Mute,,2,,,,,,,,,,,,Practice1
RL_JOL D,90,1,,BlockProc1,Paddle-Row,,4,,,,,,,,,,,,Practice1
RL_JOL D,90,1,,BlockProc1,Aardvark-Zoo,,1,,,,,,,,,,,,Practice1
RL_JOL D,90,1,,BlockProc1,Disbelieve-Skeptic,,6,,,,,,,,,,,,Practice1
RL_JOL D,90,1,3,BlockProc1,Snow - Ice,,3,,,,,,,,,,,,StudyProc1
RL_JOL D,90,1,3,BlockProc1,Shrimp - Fish,,4,,,,,,,,,,,,StudyProc1
RL_JOL D,90,1,3,BlockProc1,Curtain - Drapes,,2,,,,,,,,,,,,StudyProc1
RL_JOL D,90,1,3,BlockProc1,Member - Group,,5,,,,,,,,,,,,StudyProc1
RL_JOL D,90,1,3,BlockProc1,Haircut-Scissors,,1,,,,,,,,,,,,StudyProc1
RL_JOL D,90,1,3,BlockProc1,Love - Affection,B,20,98,14089,,,,,,,,,,StudyProc3
RL_JOL D,90,1,3,BlockProc1,Tie - Shoelace,B,4,90,24567,,,,,,,,,,StudyProc3
RL_JOL D,90,1,3,BlockProc1,Favorite - Best,F,30,85,17585,,,,,,,,,,StudyProc3
RL_JOL D,90,1,3,BlockProc1,Trash - Litter,B,8,98,18311,,,,,,,,,,StudyProc3
RL_JOL D,90,1,3,BlockProc1,Revenge - Even,F,27,100,9864,,,,,,,,,,StudyProc3
RL_JOL D,90,1,3,BlockProc1,Thimble - Thread,F,26,30,22451,,,,,,,,,,StudyProc3
RL_JOL D,90,1,3,BlockProc1,Paper - Document,B,14,45,27794,,,,,,,,,,StudyProc3
RL_JOL D,90,1,3,BlockProc1,Coffin - Dead,F,33,100,11127,,,,,,,,,,StudyProc3
RL_JOL D,90,1,3,BlockProc1,Donkey - Mule,B,13,65,16975,,,,,,,,,,StudyProc3
RL_JOL D,90,1,3,BlockProc1,Game - Clue,B,2,25,19598,,,,,,,,,,StudyProc3
RL_JOL D,90,1,3,BlockProc1,Dog - Furry,B,7,35,13147,,,,,,,,,,StudyProc3
RL_JOL D,90,1,3,BlockProc1,Aircraft - Plane,F,34,90,17199,,,,,,,,,,StudyProc3
RL_JOL D,90,1,3,BlockProc1,Fight - Feud,B,18,97,21726,,,,,,,,,,StudyProc3
RL_JOL D,90,1,3,BlockProc1,Red - Cherry,B,9,20,22019,,,,,,,,,,StudyProc3
RL_JOL D,90,1,3,BlockProc1,Panther - Cat,F,31,40,23668,,,,,,,,,,StudyProc3
RL_JOL D,90,1,3,BlockProc1,Brawl - Fight,F,40,98,31666,,,,,,,,,,StudyProc3
RL_JOL D,90,1,3,BlockProc1,Breakable - Glass,F,32,25,30232,,,,,,,,,,StudyProc3
RL_JOL D,90,1,3,BlockProc1,Balloon - Pop,F,28,98,17376,,,,,,,,,,StudyProc3
RL_JOL D,90,1,3,BlockProc1,End - Adjourn,B,6,90,44167,,,,,,,,,,StudyProc3
RL_JOL D,90,1,3,BlockProc1,Flip - Turn,F,21,34,38541,,,,,,,,,,StudyProc3
RL_JOL D,90,1,3,BlockProc1,Nap - Sleep,F,39,84,21041,,,,,,,,,,StudyProc3
RL_JOL D,90,1,3,BlockProc1,Sardine - Fish,F,35,25,20730,,,,,,,,,,StudyProc3
RL_JOL D,90,1,3,BlockProc1,Villain - Bad,F,23,100,11208,,,,,,,,,,StudyProc3
RL_JOL D,90,1,3,BlockProc1,Head - Scalp,B,10,99,20213,,,,,,,,,,StudyProc3
RL_JOL D,90,1,3,BlockProc1,Windshield - Car,F,22,100,18376,,,,,,,,,,StudyProc3
RL_JOL D,90,1,3,BlockProc1,Long - Extension,B,1,100,20398,,,,,,,,,,StudyProc3
RL_JOL D,90,1,3,BlockProc1,Car - Driver,B,11,90,17178,,,,,,,,,,StudyProc3
RL_JOL D,90,1,3,BlockProc1,Eat - Dine,B,16,23,26345,,,,,,,,,,StudyProc3
RL_JOL D,90,1,3,BlockProc1,Mystery - Detective,B,5,99,33545,,,,,,,,,,StudyProc3
RL_JOL D,90,1,3,BlockProc1,Smell - Incense,B,15,10,19210,,,,,,,,,,StudyProc3
RL_JOL D,90,1,3,BlockProc1,Strawberry - Fruit,F,29,10,20270,,,,,,,,,,StudyProc3
RL_JOL D,90,1,3,BlockProc1,Cold - Chill,B,19,34,35743,,,,,,,,,,StudyProc3
RL_JOL D,90,1,3,BlockProc1,Penguin - Bird,F,24,10,41102,,,,,,,,,,StudyProc3
RL_JOL D,90,1,3,BlockProc1,Truthful - Honest,F,38,95,22098,,,,,,,,,,StudyProc3
RL_JOL D,90,1,3,BlockProc1,Banker - Money,F,37,30,37191,,,,,,,,,,StudyProc3
RL_JOL D,90,1,3,BlockProc1,Plant - Cactus,B,3,95,23194,,,,,,,,,,StudyProc3
RL_JOL D,90,1,3,BlockProc1,Actress - Star,F,25,67,38539,,,,,,,,,,StudyProc3
RL_JOL D,90,1,3,BlockProc1,League - Baseball,F,36,11,21671,,,,,,,,,,StudyProc3
RL_JOL D,90,1,3,BlockProc1,Scissors - Shears,B,17,50,18543,,,,,,,,,,StudyProc3
RL_JOL D,90,1,3,BlockProc1,Cut - Chop,B,12,5,28734,,,,,,,,,,StudyProc3
RL_JOL D,90,1,3,BlockProc1,Steak - Give,U,63,,,,,,,,0,20098,,,StudyProc7
RL_JOL D,90,1,3,BlockProc1,Lie - Truth,S,53,,,,,,,,80,11042,,,StudyProc7
RL_JOL D,90,1,3,BlockProc1,Drink - Water,S,48,,,,,,,,85,26773,,,StudyProc7
RL_JOL D,90,1,3,BlockProc1,Reel - Rod,S,55,,,,,,,,85,23243,,,StudyProc7
RL_JOL D,90,1,3,BlockProc1,Scar - Main,U,80,,,,,,,,0,9954,,,StudyProc7
RL_JOL D,90,1,3,BlockProc1,Able - Crackle,U,67,,,,,,,,70,47834,,,StudyProc7
RL_JOL D,90,1,3,BlockProc1,Communication - Phone,S,54,,,,,,,,85,10057,,,StudyProc7
RL_JOL D,90,1,3,BlockProc1,Fiction - Listen,U,69,,,,,,,,25,36468,,,StudyProc7
RL_JOL D,90,1,3,BlockProc1,Cloth - Stretch,U,62,,,,,,,,85,15374,,,StudyProc7
RL_JOL D,90,1,3,BlockProc1,Noise - Loud,S,57,,,,,,,,95,10775,,,StudyProc7
RL_JOL D,90,1,3,BlockProc1,Seatbelt - Safety,S,52,,,,,,,,98,14405,,,StudyProc7
RL_JOL D,90,1,3,BlockProc1,Children - Mirror,U,79,,,,,,,,0,18174,,,StudyProc7
RL_JOL D,90,1,3,BlockProc1,Carbon - Element,S,46,,,,,,,,85,27797,,,StudyProc7
RL_JOL D,90,1,3,BlockProc1,Ground - Earth,S,49,,,,,,,,25,36113,,,StudyProc7
RL_JOL D,90,1,3,BlockProc1,Clothes - Cake,U,71,,,,,,,,9,23625,,,StudyProc7
RL_JOL D,90,1,3,BlockProc1,Toil - Lease,U,75,,,,,,,,2,17000,,,StudyProc7
RL_JOL D,90,1,3,BlockProc1,Equal - Rights,S,42,,,,,,,,99,30167,,,StudyProc7
RL_JOL D,90,1,3,BlockProc1,Tick - Flea,S,56,,,,,,,,85,24938,,,StudyProc7
RL_JOL D,90,1,3,BlockProc1,Tan - Sun,S,60,,,,,,,,100,14772,,,StudyProc7
RL_JOL D,90,1,3,BlockProc1,Obtain - Meat,U,66,,,,,,,,0,35526,,,StudyProc7
RL_JOL D,90,1,3,BlockProc1,Wet - Dry,S,51,,,,,,,,95,17110,,,StudyProc7
RL_JOL D,90,1,3,BlockProc1,Wax - Candle,S,44,,,,,,,,99,13184,,,StudyProc7
RL_JOL D,90,1,3,BlockProc1,Clear - Moat,U,74,,,,,,,,35,23251,,,StudyProc7
RL_JOL D,90,1,3,BlockProc1,Ounce - Both,U,77,,,,,,,,0,15753,,,StudyProc7
RL_JOL D,90,1,3,BlockProc1,Lonely - Alone,S,50,,,,,,,,85,21331,,,StudyProc7
RL_JOL D,90,1,3,BlockProc1,Bracelet - Wrist,S,45,,,,,,,,85,11192,,,StudyProc7
RL_JOL D,90,1,3,BlockProc1,Temper - Tantrum,S,59,,,,,,,,94,7917,,,StudyProc7
RL_JOL D,90,1,3,BlockProc1,Shake - Shell,U,68,,,,,,,,20,39376,,,StudyProc7
RL_JOL D,90,1,3,BlockProc1,Shave - Razor,S,41,,,,,,,,87,18130,,,StudyProc7
RL_JOL D,90,1,3,BlockProc1,Bang - Fuzzy,U,73,,,,,,,,0,14402,,,StudyProc7
RL_JOL D,90,1,3,BlockProc1,Hate - Name,U,72,,,,,,,,25,34042,,,StudyProc7
RL_JOL D,90,1,3,BlockProc1,Sign - Loan,U,76,,,,,,,,75,13168,,,StudyProc7
RL_JOL D,90,1,3,BlockProc1,Maroon - Justice,U,61,,,,,,,,0,15924,,,StudyProc7
RL_JOL D,90,1,3,BlockProc1,Election - Maze,U,64,,,,,,,,75,29414,,,StudyProc7
RL_JOL D,90,1,3,BlockProc1,Charm - Vehicle,U,65,,,,,,,,0,37335,,,StudyProc7
RL_JOL D,90,1,3,BlockProc1,Away - Gone,S,47,,,,,,,,76,10781,,,StudyProc7
RL_JOL D,90,1,3,BlockProc1,Have - Own,S,58,,,,,,,,87,20523,,,StudyProc7
RL_JOL D,90,1,3,BlockProc1,Jar - Mason,S,43,,,,,,,,80,22433,,,StudyProc7
RL_JOL D,90,1,3,BlockProc1,Morning - Temperature,U,78,,,,,,,,65,23321,,,StudyProc7
RL_JOL D,90,1,3,BlockProc1,Joke - Keys,U,70,,,,,,,,0,24637,,,StudyProc7
RL_JOL D,90,1,3,BlockProc1,Grab - Take,,2,,,,,,,,,,,,StudyProc2
RL_JOL D,90,1,3,BlockProc1,Trees - Green,,5,,,,,,,,,,,,StudyProc2
RL_JOL D,90,1,3,BlockProc1,Geese - Goose,,1,,,,,,,,,,,,StudyProc2
RL_JOL D,90,1,3,BlockProc1,Friendliness - Nice,,3,,,,,,,,,,,,StudyProc2
RL_JOL D,90,1,3,BlockProc1,Catcher - Baseball,,4,,,,,,,,,,,,StudyProc2
RL_JOL D,90,1,3,BlockProc1,Clothes - ?,,71,,,,,stretch,9144,,,,,,recallproc1
RL_JOL D,90,1,3,BlockProc1,Bang - ?,,73,,,,,fuzzy,15696,,,,,,recallproc1
RL_JOL D,90,1,3,BlockProc1,Red - ?,,9,,,,,cherry,5061,,,,,,recallproc1
RL_JOL D,90,1,3,BlockProc1,End - ?,,6,,,,,adjourn,4396,,,,,,recallproc1
RL_JOL D,90,1,3,BlockProc1,Smell - ?,,15,,,,,sense,14519,,,,,,recallproc1
RL_JOL D,90,1,3,BlockProc1,Tan - ?,,60,,,,,sun,1771,,,,,,recallproc1
RL_JOL D,90,1,3,BlockProc1,Aircraft - ?,,34,,,,,plane,2633,,,,,,recallproc1
RL_JOL D,90,1,3,BlockProc1,Windshield - ?,,22,,,,,car,1629,,,,,,recallproc1
RL_JOL D,90,1,3,BlockProc1,Able - ?,,67,,,,,body,6217,,,,,,recallproc1
RL_JOL D,90,1,3,BlockProc1,Seatbelt - ?,,52,,,,,safety,4370,,,,,,recallproc1
RL_JOL D,90,1,3,BlockProc1,Obtain - ?,,66,,,,,meat,8438,,,,,,recallproc1
RL_JOL D,90,1,3,BlockProc1,Tick - ?,,56,,,,,flea,1819,,,,,,recallproc1
RL_JOL D,90,1,3,BlockProc1,Scar - ?,,80,,,,,face,5616,,,,,,recallproc1
RL_JOL D,90,1,3,BlockProc1,Truthful - ?,,38,,,,,hones,2201,,,,,,recallproc1
RL_JOL D,90,1,3,BlockProc1,Sign - ?,,76,,,,,up,8622,,,,,,recallproc1
RL_JOL D,90,1,3,BlockProc1,Scissors - ?,,17,,,,,shears,2636,,,,,,recallproc1
RL_JOL D,90,1,3,BlockProc1,Temper - ?,,59,,,,,tantrum,3199,,,,,,recallproc1
RL_JOL D,90,1,3,BlockProc1,Charm - ?,,65,,,,,lucky,9835,,,,,,recallproc1
RL_JOL D,90,1,3,BlockProc1,Clear - ?,,74,,,,,moat,9631,,,,,,recallproc1
RL_JOL D,90,1,3,BlockProc1,Reel - ?,,55,,,,,rod,1468,,,,,,recallproc1
RL_JOL D,90,1,3,BlockProc1,Hate - ?,,72,,,,,name,4335,,,,,,recallproc1
RL_JOL D,90,1,3,BlockProc1,Ounce - ?,,77,,,,,bite,6821,,,,,,recallproc1
RL_JOL D,90,1,3,BlockProc1,Drink - ?,,48,,,,,water,2412,,,,,,recallproc1
RL_JOL D,90,1,3,BlockProc1,Mystery - ?,,5,,,,,detective3,2809,,,,,,recallproc1
RL_JOL D,90,1,3,BlockProc1,Away - ?,,47,,,,,gone,2300,,,,,,recallproc1
RL_JOL D,90,1,3,BlockProc1,Maroon - ?,,61,,,,,five,5477,,,,,,recallproc1
RL_JOL D,90,1,3,BlockProc1,Carbon - ?,,46,,,,,element,2180,,,,,,recallproc1
RL_JOL D,90,1,3,BlockProc1,Cold - ?,,19,,,,,chill,1874,,,,,,recallproc1
RL_JOL D,90,1,3,BlockProc1,Ground - ?,,49,,,,,earth,2020,,,,,,recallproc1
RL_JOL D,90,1,3,BlockProc1,Joke - ?,,70,,,,,keys,2248,,,,,,recallproc1
RL_JOL D,90,1,3,BlockProc1,Jar - ?,,43,,,,,mason,2027,,,,,,recallproc1
RL_JOL D,90,1,3,BlockProc1,Steak - ?,,63,,,,,give,9055,,,,,,recallproc1
RL_JOL D,90,1,3,BlockProc1,Brawl - ?,,40,,,,,fight,2267,,,,,,recallproc1
RL_JOL D,90,1,3,BlockProc1,Flip - ?,,21,,,,,turn,3294,,,,,,recallproc1
RL_JOL D,90,1,3,BlockProc1,Equal - ?,,42,,,,,rights,6150,,,,,,recallproc1
RL_JOL D,90,1,3,BlockProc1,Cut - ?,,12,,,,,chop,3337,,,,,,recallproc1
RL_JOL D,90,1,3,BlockProc1,Eat - ?,,16,,,,,dine,3047,,,,,,recallproc1
RL_JOL D,90,1,3,BlockProc1,League - ?,,36,,,,,baseball,3178,,,,,,recallproc1
RL_JOL D,90,1,3,BlockProc1,Wet - ?,,51,,,,,dry,2254,,,,,,recallproc1
RL_JOL D,90,1,3,BlockProc1,Actress - ?,,25,,,,,star,1857,,,,,,recallproc1
RL_JOL D,90,1,3,BlockProc1,Balloon - ?,,28,,,,,pop,1692,,,,,,recallproc1
RL_JOL D,90,1,3,BlockProc1,Noise - ?,,57,,,,,loud,2285,,,,,,recallproc1
RL_JOL D,90,1,3,BlockProc1,Long - ?,,1,,,,,extenstion,7671,,,,,,recallproc1
RL_JOL D,90,1,3,BlockProc1,Shake - ?,,68,,,,,hold,5276,,,,,,recallproc1
RL_JOL D,90,1,3,BlockProc1,Dog - ?,,7,,,,,furry,2595,,,,,,recallproc1
RL_JOL D,90,1,3,BlockProc1,Cloth - ?,,62,,,,,stretch,3279,,,,,,recallproc1
RL_JOL D,90,1,3,BlockProc1,Sardine - ?,,35,,,,,fish,1472,,,,,,recallproc1
RL_JOL D,90,1,3,BlockProc1,Breakable - ?,,32,,,,,glass,2803,,,,,,recallproc1
RL_JOL D,90,1,3,BlockProc1,Fiction - ?,,69,,,,,listen,4951,,,,,,recallproc1
RL_JOL D,90,1,3,BlockProc1,Panther - ?,,31,,,,,cat,1459,,,,,,recallproc1
RL_JOL D,90,1,3,BlockProc1,Children - ?,,79,,,,,mirror,3167,,,,,,recallproc1
RL_JOL D,90,1,3,BlockProc1,Head - ?,,10,,,,,scalp,2836,,,,,,recallproc1
RL_JOL D,90,1,3,BlockProc1,Bracelet - ?,,45,,,,,wrist,4063,,,,,,recallproc1
RL_JOL D,90,1,3,BlockProc1,Trash - ?,,8,,,,,litter,1880,,,,,,recallproc1
RL_JOL D,90,1,3,BlockProc1,Shave - ?,,41,,,,,hai,5394,,,,,,recallproc1
RL_JOL D,90,1,3,BlockProc1,Communication - ?,,54,,,,,phone,3676,,,,,,recallproc1
RL_JOL D,90,1,3,BlockProc1,Favorite - ?,,30,,,,,best,1740,,,,,,recallproc1
RL_JOL D,90,1,3,BlockProc1,Lonely - ?,,50,,,,,alone,2212,,,,,,recallproc1
RL_JOL D,90,1,3,BlockProc1,Villain - ?,,23,,,,,bad,1608,,,,,,recallproc1
RL_JOL D,90,1,3,BlockProc1,Strawberry - ?,,29,,,,,fruit,2237,,,,,,recallproc1
RL_JOL D,90,1,3,BlockProc1,Plant - ?,,3,,,,,tree,4992,,,,,,recallproc1
RL_JOL D,90,1,3,BlockProc1,Penguin - ?,,24,,,,,bird,2299,,,,,,recallproc1
RL_JOL D,90,1,3,BlockProc1,Wax - ?,,44,,,,,candle,2396,,,,,,recallproc1
RL_JOL D,90,1,3,BlockProc1,Fight - ?,,18,,,,,brawl,2760,,,,,,recallproc1
RL_JOL D,90,1,3,BlockProc1,Car - ?,,11,,,,,windsheild,7006,,,,,,recallproc1
RL_JOL D,90,1,3,BlockProc1,Coffin - ?,,33,,,,,dead,1823,,,,,,recallproc1
RL_JOL D,90,1,3,BlockProc1,Paper - ?,,14,,,,,document,5539,,,,,,recallproc1
RL_JOL D,90,1,3,BlockProc1,Donkey - ?,,13,,,,,mule,2326,,,,,,recallproc1
RL_JOL D,90,1,3,BlockProc1,Revenge - ?,,27,,,,,even,2887,,,,,,recallproc1
RL_JOL D,90,1,3,BlockProc1,Morning - ?,,78,,,,,temperature,3446,,,,,,recallproc1
RL_JOL D,90,1,3,BlockProc1,Tie - ?,,4,,,,,shoelace,3073,,,,,,recallproc1
RL_JOL D,90,1,3,BlockProc1,Have - ?,,58,,,,,meat,4650,,,,,,recallproc1
RL_JOL D,90,1,3,BlockProc1,Thimble - ?,,26,,,,,thread,3538,,,,,,recallproc1
RL_JOL D,90,1,3,BlockProc1,Love - ?,,20,,,,,most,4936,,,,,,recallproc1
RL_JOL D,90,1,3,BlockProc1,Toil - ?,,75,,,,,lost,9085,,,,,,recallproc1
RL_JOL D,90,1,3,BlockProc1,Game - ?,,2,,,,,clue,2720,,,,,,recallproc1
RL_JOL D,90,1,3,BlockProc1,Election - ?,,64,,,,,maze,2423,,,,,,recallproc1
RL_JOL D,90,1,3,BlockProc1,Lie - ?,,53,,,,,truthfull,4970,,,,,,recallproc1
RL_JOL D,90,1,3,BlockProc1,Banker - ?,,37,,,,,money,2550,,,,,,recallproc1
RL_JOL D,90,1,3,BlockProc1,Nap - ?,,39,,,,,sleep,1893,,,,,,recallproc1
RL_JOL D,90,2,3,BlockProc2,Malt - Chocolate,,5,,,,,,,,,,,,StudyProc4
RL_JOL D,90,2,3,BlockProc2,Essay - Write,,4,,,,,,,,,,,,StudyProc4
RL_JOL D,90,2,3,BlockProc2,Disintegrate - Disappear,,3,,,,,,,,,,,,StudyProc4
RL_JOL D,90,2,3,BlockProc2,Hide - Scare,,2,,,,,,,,,,,,StudyProc4
RL_JOL D,90,2,3,BlockProc2,Sheriff - Police,,1,,,,,,,,,,,,StudyProc4
RL_JOL D,90,2,3,BlockProc2,Seize - Take,F,24,,,80,10785,,,,,,,,StudyProc5
RL_JOL D,90,2,3,BlockProc2,Talk - Discussion,B,16,,,97,15598,,,,,,,,StudyProc5
RL_JOL D,90,2,3,BlockProc2,Drowsy - Sleep,F,36,,,80,11422,,,,,,,,StudyProc5
RL_JOL D,90,2,3,BlockProc2,Hammer - Chisel,B,4,,,75,23970,,,,,,,,StudyProc5
RL_JOL D,90,2,3,BlockProc2,Attorney - Law,F,29,,,86,16763,,,,,,,,StudyProc5
RL_JOL D,90,2,3,BlockProc2,News - Editor,B,5,,,74,17459,,,,,,,,StudyProc5
RL_JOL D,90,2,3,BlockProc2,Money - Wage,B,3,,,87,13279,,,,,,,,StudyProc5
RL_JOL D,90,2,3,BlockProc2,Card - Credit,B,18,,,97,14295,,,,,,,,StudyProc5
RL_JOL D,90,2,3,BlockProc2,War - Revolution,B,15,,,90,10309,,,,,,,,StudyProc5
RL_JOL D,90,2,3,BlockProc2,Sting - Hornet,B,6,,,76,11726,,,,,,,,StudyProc5
RL_JOL D,90,2,3,BlockProc2,Sip - Drink,F,22,,,55,17196,,,,,,,,StudyProc5
RL_JOL D,90,2,3,BlockProc2,Attire - Clothes,F,38,,,70,13387,,,,,,,,StudyProc5
RL_JOL D,90,2,3,BlockProc2,Stench - Smell,F,37,,,65,12622,,,,,,,,StudyProc5
RL_JOL D,90,2,3,BlockProc2,Wasp - Bug,F,27,,,56,11304,,,,,,,,StudyProc5
RL_JOL D,90,2,3,BlockProc2,Chore - Work,F,34,,,65,16944,,,,,,,,StudyProc5
RL_JOL D,90,2,3,BlockProc2,Racket - Ball,F,33,,,55,18185,,,,,,,,StudyProc5
RL_JOL D,90,2,3,BlockProc2,Latch - Key,F,31,,,50,12456,,,,,,,,StudyProc5
RL_JOL D,90,2,3,BlockProc2,Blaze - Fire,F,40,,,45,8904,,,,,,,,StudyProc5
RL_JOL D,90,2,3,BlockProc2,Flower - Orchid,B,19,,,35,23555,,,,,,,,StudyProc5
RL_JOL D,90,2,3,BlockProc2,Fantastic - Great,F,30,,,80,11317,,,,,,,,StudyProc5
RL_JOL D,90,2,3,BlockProc2,Word - Sentence,F,26,,,70,15141,,,,,,,,StudyProc5
RL_JOL D,90,2,3,BlockProc2,Rock - Geology,B,14,,,34,9392,,,,,,,,StudyProc5
RL_JOL D,90,2,3,BlockProc2,Famine - Hunger,F,35,,,60,20726,,,,,,,,StudyProc5
RL_JOL D,90,2,3,BlockProc2,Growth - Height,F,25,,,83,17812,,,,,,,,StudyProc5
RL_JOL D,90,2,3,BlockProc2,Plant - Root,B,8,,,60,10778,,,,,,,,StudyProc5
RL_JOL D,90,2,3,BlockProc2,Cold - Bitter,B,7,,,35,6232,,,,,,,,StudyProc5
RL_JOL D,90,2,3,BlockProc2,Dog - Paw,B,10,,,56,9207,,,,,,,,StudyProc5
RL_JOL D,90,2,3,BlockProc2,Pilot - Plane,F,39,,,86,10133,,,,,,,,StudyProc5
RL_JOL D,90,2,3,BlockProc2,Fish - Tuna,B,20,,,57,13269,,,,,,,,StudyProc5
RL_JOL D,90,2,3,BlockProc2,Out - Way,B,11,,,67,12701,,,,,,,,StudyProc5
RL_JOL D,90,2,3,BlockProc2,Stomach - Digestion,B,2,,,78,13427,,,,,,,,StudyProc5
RL_JOL D,90,2,3,BlockProc2,Bad - Delinquent,B,1,,,73,17053,,,,,,,,StudyProc5
RL_JOL D,90,2,3,BlockProc2,Division - Math,F,28,,,66,13705,,,,,,,,StudyProc5
RL_JOL D,90,2,3,BlockProc2,Chili - Hot,F,32,,,83,15295,,,,,,,,StudyProc5
RL_JOL D,90,2,3,BlockProc2,Clean - Hygiene,B,12,,,56,10867,,,,,,,,StudyProc5
RL_JOL D,90,2,3,BlockProc2,Enough - Full,F,21,,,78,10453,,,,,,,,StudyProc5
RL_JOL D,90,2,3,BlockProc2,Bird - Swan,B,9,,,45,17080,,,,,,,,StudyProc5
RL_JOL D,90,2,3,BlockProc2,Cave - Dark,F,23,,,67,16188,,,,,,,,StudyProc5
RL_JOL D,90,2,3,BlockProc2,Water - Bridge,B,13,,,87,13987,,,,,,,,StudyProc5
RL_JOL D,90,2,3,BlockProc2,Cow - Herd,B,17,,,32,16149,,,,,,,,StudyProc5
RL_JOL D,90,2,3,BlockProc2,Belt - Soon,U,65,,,,,,,,,,0,11793,StudyProc8
RL_JOL D,90,2,3,BlockProc2,Business - Death,U,67,,,,,,,,,,87,14885,StudyProc8
RL_JOL D,90,2,3,BlockProc2,Position - Machine,U,71,,,,,,,,,,75,12578,StudyProc8
RL_JOL D,90,2,3,BlockProc2,Round - Circle,S,60,,,,,,,,,,76,10046,StudyProc8
RL_JOL D,90,2,3,BlockProc2,Foot - Shoe,S,55,,,,,,,,,,77,10033,StudyProc8
RL_JOL D,90,2,3,BlockProc2,End - Begin,S,49,,,,,,,,,,78,12133,StudyProc8
RL_JOL D,90,2,3,BlockProc2,Jury - Trial,S,45,,,,,,,,,,66,11147,StudyProc8
RL_JOL D,90,2,3,BlockProc2,Tuck - Allow,U,73,,,,,,,,,,5,20096,StudyProc8
RL_JOL D,90,2,3,BlockProc2,Would - Cash,U,78,,,,,,,,,,0,11576,StudyProc8
RL_JOL D,90,2,3,BlockProc2,Assignment - Due,S,41,,,,,,,,,,95,16253,StudyProc8
RL_JOL D,90,2,3,BlockProc2,Add - Valley,U,77,,,,,,,,,,76,13794,StudyProc8
RL_JOL D,90,2,3,BlockProc2,Lion - Art,U,74,,,,,,,,,,39,14485,StudyProc8
RL_JOL D,90,2,3,BlockProc2,Site - Location,S,43,,,,,,,,,,87,10803,StudyProc8
RL_JOL D,90,2,3,BlockProc2,Floor - Discover,U,66,,,,,,,,,,0,10655,StudyProc8
RL_JOL D,90,2,3,BlockProc2,Salad - Lettuce,S,54,,,,,,,,,,100,11049,StudyProc8
RL_JOL D,90,2,3,BlockProc2,Wind - Blow,S,50,,,,,,,,,,89,9645,StudyProc8
RL_JOL D,90,2,3,BlockProc2,Bar - Grill,S,47,,,,,,,,,,10,25983,StudyProc8
RL_JOL D,90,2,3,BlockProc2,Future - Past,S,56,,,,,,,,,,85,24326,StudyProc8
RL_JOL D,90,2,3,BlockProc2,Car - Happy,U,72,,,,,,,,,,54,12416,StudyProc8
RL_JOL D,90,2,3,BlockProc2,Riddle - Sugar,U,76,,,,,,,,,,0,23003,StudyProc8
RL_JOL D,90,2,3,BlockProc2,Amount - Number,S,42,,,,,,,,,,20,23340,StudyProc8
RL_JOL D,90,2,3,BlockProc2,Sight - Debate,U,68,,,,,,,,,,15,17943,StudyProc8
RL_JOL D,90,2,3,BlockProc2,Hungry - Park,U,63,,,,,,,,,,66,18543,StudyProc8
RL_JOL D,90,2,3,BlockProc2,Bronze - Artery,U,69,,,,,,,,,,0,17911,StudyProc8
RL_JOL D,90,2,3,BlockProc2,Woman - Lift,U,64,,,,,,,,,,35,18792,StudyProc8
RL_JOL D,90,2,3,BlockProc2,Bee - Honey,S,58,,,,,,,,,,89,6445,StudyProc8
RL_JOL D,90,2,3,BlockProc2,Sacking -Dietary,U,62,,,,,,,,,,0,20036,StudyProc8
RL_JOL D,90,2,3,BlockProc2,Cheese - Wine,S,52,,,,,,,,,,99,13295,StudyProc8
RL_JOL D,90,2,3,BlockProc2,Vase - King,U,80,,,,,,,,,,0,9414,StudyProc8
RL_JOL D,90,2,3,BlockProc2,Toilet - Bathroom,S,53,,,,,,,,,,99,13675,StudyProc8
RL_JOL D,90,2,3,BlockProc2,Decision - Choise,S,57,,,,,,,,,,99,13554,StudyProc8
RL_JOL D,90,2,3,BlockProc2,Sick - Hide,U,79,,,,,,,,,,9,13998,StudyProc8
RL_JOL D,90,2,3,BlockProc2,Child - Baby,S,59,,,,,,,,,,43,11423,StudyProc8
RL_JOL D,90,2,3,BlockProc2,Accident - Strong,U,75,,,,,,,,,,0,14738,StudyProc8
RL_JOL D,90,2,3,BlockProc2,Clutter - Pusher,U,61,,,,,,,,,,6,12797,StudyProc8
RL_JOL D,90,2,3,BlockProc2,Soda - Pop,S,51,,,,,,,,,,100,9216,StudyProc8
RL_JOL D,90,2,3,BlockProc2,Liver - Kidney,S,48,,,,,,,,,,70,9909,StudyProc8
RL_JOL D,90,2,3,BlockProc2,Waste - Dump,S,44,,,,,,,,,,75,12087,StudyProc8
RL_JOL D,90,2,3,BlockProc2,Design - Architecture,S,46,,,,,,,,,,96,16551,StudyProc8
RL_JOL D,90,2,3,BlockProc2,Hand - Fix,U,70,,,,,,,,,,56,16951,StudyProc8
RL_JOL D,90,2,3,BlockProc2,Deaf - Hear,,3,,,,,,,,,,,,StudyProc6
RL_JOL D,90,2,3,BlockProc2,Magician - Magic,,4,,,,,,,,,,,,StudyProc6
RL_JOL D,90,2,3,BlockProc2,Deciet - Cheat,,1,,,,,,,,,,,,StudyProc6
RL_JOL D,90,2,3,BlockProc2,Contest - Competition,,5,,,,,,,,,,,,StudyProc6
RL_JOL D,90,2,3,BlockProc2,Mind - Matter,,2,,,,,,,,,,,,StudyProc6
RL_JOL D,90,2,3,BlockProc2,Card - ?,,18,,,,,,,shark,,,,,recallproc2
RL_JOL D,90,2,3,BlockProc2,Plant - ?,,8,,,,,,,root,,,,,recallproc2
RL_JOL D,90,2,3,BlockProc2,News - ?,,5,,,,,,,anchor,,,,,recallproc2
RL_JOL D,90,2,3,BlockProc2,Would - ?,,78,,,,,,,cant,,,,,recallproc2
RL_JOL D,90,2,3,BlockProc2,Clean - ?,,12,,,,,,,hygiene,,,,,recallproc2
RL_JOL D,90,2,3,BlockProc2,Sip - ?,,22,,,,,,,drink,,,,,recallproc2
RL_JOL D,90,2,3,BlockProc2,End - ?,,49,,,,,,,begin,,,,,recallproc2
RL_JOL D,90,2,3,BlockProc2,Attorney - ?,,29,,,,,,,law,,,,,recallproc2
RL_JOL D,90,2,3,BlockProc2,Business - ?,,67,,,,,,,death,,,,,recallproc2
RL_JOL D,90,2,3,BlockProc2,Amount - ?,,42,,,,,,,money,,,,,recallproc2
RL_JOL D,90,2,3,BlockProc2,Hungry - ?,,63,,,,,,,famine,,,,,recallproc2
RL_JOL D,90,2,3,BlockProc2,Design - ?,,46,,,,,,,architecture,,,,,recallproc2
RL_JOL D,90,2,3,BlockProc2,Riddle - ?,,76,,,,,,,keys,,,,,recallproc2
RL_JOL D,90,2,3,BlockProc2,Money - ?,,3,,,,,,,banker,,,,,recallproc2
RL_JOL D,90,2,3,BlockProc2,Round - ?,,60,,,,,,,circle,,,,,recallproc2
RL_JOL D,90,2,3,BlockProc2,Sick - ?,,79,,,,,,,hide,,,,,recallproc2
RL_JOL D,90,2,3,BlockProc2,Lion - ?,,74,,,,,,,cat,,,,,recallproc2
RL_JOL D,90,2,3,BlockProc2,Chore - ?,,34,,,,,,,work,,,,,recallproc2
RL_JOL D,90,2,3,BlockProc2,Cold - ?,,7,,,,,,,wind,,,,,recallproc2
RL_JOL D,90,2,3,BlockProc2,Bar - ?,,47,,,,,,,grill,,,,,recallproc2
RL_JOL D,90,2,3,BlockProc2,Bronze - ?,,69,,,,,,,look,,,,,recallproc2
RL_JOL D,90,2,3,BlockProc2,Car - ?,,72,,,,,,,windsheild,,,,,recallproc2
RL_JOL D,90,2,3,BlockProc2,Bird - ?,,9,,,,,,,swan,,,,,recallproc2
RL_JOL D,90,2,3,BlockProc2,Decision - ?,,57,,,,,,,decide,,,,,recallproc2
RL_JOL D,90,2,3,BlockProc2,Stench - ?,,37,,,,,,,smell,,,,,recallproc2
RL_JOL D,90,2,3,BlockProc2,Future - ?,,56,,,,,,,past,,,,,recallproc2
RL_JOL D,90,2,3,BlockProc2,Flower - ?,,19,,,,,,,root,,,,,recallproc2
RL_JOL D,90,2,3,BlockProc2,Wasp - ?,,27,,,,,,,bug,,,,,recallproc2
RL_JOL D,90,2,3,BlockProc2,Stomach - ?,,2,,,,,,,digestion,,,,,recallproc2
RL_JOL D,90,2,3,BlockProc2,Enough - ?,,21,,,,,,,full,,,,,recallproc2
RL_JOL D,90,2,3,BlockProc2,Drowsy - ?,,36,,,,,,,sleep,,,,,recallproc2
RL_JOL D,90,2,3,BlockProc2,Cave - ?,,23,,,,,,,dark,,,,,recallproc2
RL_JOL D,90,2,3,BlockProc2,Sting - ?,,6,,,,,,,wasp,,,,,recallproc2
RL_JOL D,90,2,3,BlockProc2,Sight - ?,,68,,,,,,,debate,,,,,recallproc2
RL_JOL D,90,2,3,BlockProc2,Rock - ?,,14,,,,,,,star,,,,,recallproc2
RL_JOL D,90,2,3,BlockProc2,Soda - ?,,51,,,,,,,pop,,,,,recallproc2
RL_JOL D,90,2,3,BlockProc2,Division - ?,,28,,,,,,,math,,,,,recallproc2
RL_JOL D,90,2,3,BlockProc2,Belt - ?,,65,,,,,,,now,,,,,recallproc2
RL_JOL D,90,2,3,BlockProc2,War - ?,,15,,,,,,,revolution,,,,,recallproc2
RL_JOL D,90,2,3,BlockProc2,Tuck - ?,,73,,,,,,,loose,,,,,recallproc2
RL_JOL D,90,2,3,BlockProc2,Seize - ?,,24,,,,,,,take,,,,,recallproc2
RL_JOL D,90,2,3,BlockProc2,Child - ?,,59,,,,,,,babyi,,,,,recallproc2
RL_JOL D,90,2,3,BlockProc2,Attire - ?,,38,,,,,,,clothes,,,,,recallproc2
RL_JOL D,90,2,3,BlockProc2,Assignment - ?,,41,,,,,,,due,,,,,recallproc2
RL_JOL D,90,2,3,BlockProc2,Pilot - ?,,39,,,,,,,airplane,,,,,recallproc2
RL_JOL D,90,2,3,BlockProc2,Latch - ?,,31,,,,,,,lock,,,,,recallproc2
RL_JOL D,90,2,3,BlockProc2,Racket - ?,,33,,,,,,,ball,,,,,recallproc2
RL_JOL D,90,2,3,BlockProc2,Cow - ?,,17,,,,,,,herd,,,,,recallproc2
RL_JOL D,90,2,3,BlockProc2,Vase - ?,,80,,,,,,,king,,,,,recallproc2
RL_JOL D,90,2,3,BlockProc2,Salad - ?,,54,,,,,,,lettuce,,,,,recallproc2
RL_JOL D,90,2,3,BlockProc2,Jury - ?,,45,,,,,,,trials,,,,,recallproc2
RL_JOL D,90,2,3,BlockProc2,Woman - ?,,64,,,,,,,lift,,,,,recallproc2
RL_JOL D,90,2,3,BlockProc2,Hammer - ?,,4,,,,,,,chisel,,,,,recallproc2
RL_JOL D,90,2,3,BlockProc2,Site - ?,,43,,,,,,,location,,,,,recallproc2
RL_JOL D,90,2,3,BlockProc2,Fantastic - ?,,30,,,,,,,great,,,,,recallproc2
RL_JOL D,90,2,3,BlockProc2,Blaze - ?,,40,,,,,,,fire,,,,,recallproc2
RL_JOL D,90,2,3,BlockProc2,Clutter - ?,,61,,,,,,,mask,,,,,recallproc2
RL_JOL D,90,2,3,BlockProc2,Add - ?,,77,,,,,,,subtract,,,,,recallproc2
RL_JOL D,90,2,3,BlockProc2,Cheese - ?,,52,,,,,,,win3e,,,,,recallproc2
RL_JOL D,90,2,3,BlockProc2,Floor - ?,,66,,,,,,,declutter,,,,,recallproc2
RL_JOL D,90,2,3,BlockProc2,Wind - ?,,50,,,,,,,blow,,,,,recallproc2
RL_JOL D,90,2,3,BlockProc2,Water - ?,,13,,,,,,,sip,,,,,recallproc2
RL_JOL D,90,2,3,BlockProc2,Hand - ?,,70,,,,,,,fix,,,,,recallproc2
RL_JOL D,90,2,3,BlockProc2,Talk - ?,,16,,,,,,,debate,,,,,recallproc2
RL_JOL D,90,2,3,BlockProc2,Liver - ?,,48,,,,,,,kidney,,,,,recallproc2
RL_JOL D,90,2,3,BlockProc2,Growth - ?,,25,,,,,,,height,,,,,recallproc2
RL_JOL D,90,2,3,BlockProc2,Chili - ?,,32,,,,,,,hot,,,,,recallproc2
RL_JOL D,90,2,3,BlockProc2,Toilet - ?,,53,,,,,,,bathroom,,,,,recallproc2
RL_JOL D,90,2,3,BlockProc2,Foot - ?,,55,,,,,,,shoe,,,,,recallproc2
RL_JOL D,90,2,3,BlockProc2,Out - ?,,11,,,,,,,in,,,,,recallproc2
RL_JOL D,90,2,3,BlockProc2,Waste - ?,,44,,,,,,,poop,,,,,recallproc2
RL_JOL D,90,2,3,BlockProc2,Accident - ?,,75,,,,,,,strong,,,,,recallproc2
RL_JOL D,90,2,3,BlockProc2,Bad - ?,,1,,,,,,,delinquent,,,,,recallproc2
RL_JOL D,90,2,3,BlockProc2,Famine - ?,,35,,,,,,,hunger,,,,,recallproc2
RL_JOL D,90,2,3,BlockProc2,Fish - ?,,20,,,,,,,tuna,,,,,recallproc2
RL_JOL D,90,2,3,BlockProc2,Sacking - ?,,62,,,,,,,lost,,,,,recallproc2
RL_JOL D,90,2,3,BlockProc2,Dog - ?,,10,,,,,,,paw,,,,,recallproc2
RL_JOL D,90,2,3,BlockProc2,Word - ?,,26,,,,,,,essay,,,,,recallproc2
RL_JOL D,90,2,3,BlockProc2,Bee - ?,,58,,,,,,,honey,,,,,recallproc2
RL_JOL D,90,2,3,BlockProc2,Position - ?,,71,,,,,,,gain,,,,,recallproc2
RL_JOL D,91,1,,BlockProc1,Chime-Music,,8,,,,,,,,,,,,Practice1
RL_JOL D,91,1,,BlockProc1,Chocolate-Bar,,7,,,,,,,,,,,,Practice1
RL_JOL D,91,1,,BlockProc1,Ham-Bone,,3,,,,,,,,,,,,Practice1
RL_JOL D,91,1,,BlockProc1,Disbelieve-Skeptic,,6,,,,,,,,,,,,Practice1
RL_JOL D,91,1,,BlockProc1,Fashion-Model,,10,,,,,,,,,,,,Practice1
RL_JOL D,91,1,,BlockProc1,Behavior-Social,,9,,,,,,,,,,,,Practice1
RL_JOL D,91,1,,BlockProc1,Deaf-Mute,,2,,,,,,,,,,,,Practice1
RL_JOL D,91,1,,BlockProc1,Aardvark-Zoo,,1,,,,,,,,,,,,Practice1
RL_JOL D,91,1,,BlockProc1,Hinge-Swing,,5,,,,,,,,,,,,Practice1
RL_JOL D,91,1,,BlockProc1,Paddle-Row,,4,,,,,,,,,,,,Practice1
RL_JOL D,91,1,3,BlockProc1,Member - Group,,5,,,,,,,,,,,,StudyProc1
RL_JOL D,91,1,3,BlockProc1,Snow - Ice,,3,,,,,,,,,,,,StudyProc1
RL_JOL D,91,1,3,BlockProc1,Haircut-Scissors,,1,,,,,,,,,,,,StudyProc1
RL_JOL D,91,1,3,BlockProc1,Shrimp - Fish,,4,,,,,,,,,,,,StudyProc1
RL_JOL D,91,1,3,BlockProc1,Curtain - Drapes,,2,,,,,,,,,,,,StudyProc1
RL_JOL D,91,1,3,BlockProc1,Eat - Dine,B,16,95,9382,,,,,,,,,,StudyProc3
RL_JOL D,91,1,3,BlockProc1,Car - Driver,B,11,100,8709,,,,,,,,,,StudyProc3
RL_JOL D,91,1,3,BlockProc1,Strawberry - Fruit,F,29,100,3271,,,,,,,,,,StudyProc3
RL_JOL D,91,1,3,BlockProc1,Smell - Incense,B,15,98,5464,,,,,,,,,,StudyProc3
RL_JOL D,91,1,3,BlockProc1,Truthful - Honest,F,38,98,8039,,,,,,,,,,StudyProc3
RL_JOL D,91,1,3,BlockProc1,Villain - Bad,F,23,98,8957,,,,,,,,,,StudyProc3
RL_JOL D,91,1,3,BlockProc1,Penguin - Bird,F,24,100,7014,,,,,,,,,,StudyProc3
RL_JOL D,91,1,3,BlockProc1,Revenge - Even,F,27,100,5613,,,,,,,,,,StudyProc3
RL_JOL D,91,1,3,BlockProc1,Red - Cherry,B,9,100,2614,,,,,,,,,,StudyProc3
RL_JOL D,91,1,3,BlockProc1,Dog - Furry,B,7,100,2514,,,,,,,,,,StudyProc3
RL_JOL D,91,1,3,BlockProc1,Aircraft - Plane,F,34,98,6043,,,,,,,,,,StudyProc3
RL_JOL D,91,1,3,BlockProc1,Scissors - Shears,B,17,97,6130,,,,,,,,,,StudyProc3
RL_JOL D,91,1,3,BlockProc1,Breakable - Glass,F,32,99,3766,,,,,,,,,,StudyProc3
RL_JOL D,91,1,3,BlockProc1,Game - Clue,B,2,95,10611,,,,,,,,,,StudyProc3
RL_JOL D,91,1,3,BlockProc1,Actress - Star,F,25,98,9679,,,,,,,,,,StudyProc3
RL_JOL D,91,1,3,BlockProc1,Brawl - Fight,F,40,95,6650,,,,,,,,,,StudyProc3
RL_JOL D,91,1,3,BlockProc1,Donkey - Mule,B,13,95,5616,,,,,,,,,,StudyProc3
RL_JOL D,91,1,3,BlockProc1,Tie - Shoelace,B,4,100,5857,,,,,,,,,,StudyProc3
RL_JOL D,91,1,3,BlockProc1,Trash - Litter,B,8,95,8776,,,,,,,,,,StudyProc3
RL_JOL D,91,1,3,BlockProc1,Head - Scalp,B,10,100,7056,,,,,,,,,,StudyProc3
RL_JOL D,91,1,3,BlockProc1,Paper - Document,B,14,95,7446,,,,,,,,,,StudyProc3
RL_JOL D,91,1,3,BlockProc1,Mystery - Detective,B,5,100,5124,,,,,,,,,,StudyProc3
RL_JOL D,91,1,3,BlockProc1,Flip - Turn,F,21,98,7233,,,,,,,,,,StudyProc3
RL_JOL D,91,1,3,BlockProc1,League - Baseball,F,36,96,18616,,,,,,,,,,StudyProc3
RL_JOL D,91,1,3,BlockProc1,Cut - Chop,B,12,97,9485,,,,,,,,,,StudyProc3
RL_JOL D,91,1,3,BlockProc1,Plant - Cactus,B,3,100,4534,,,,,,,,,,StudyProc3
RL_JOL D,91,1,3,BlockProc1,Thimble - Thread,F,26,50,16555,,,,,,,,,,StudyProc3
RL_JOL D,91,1,3,BlockProc1,Long - Extension,B,1,90,12877,,,,,,,,,,StudyProc3
RL_JOL D,91,1,3,BlockProc1,Fight - Feud,B,18,90,11068,,,,,,,,,,StudyProc3
RL_JOL D,91,1,3,BlockProc1,Windshield - Car,F,22,90,4295,,,,,,,,,,StudyProc3
RL_JOL D,91,1,3,BlockProc1,Favorite - Best,F,30,80,14965,,,,,,,,,,StudyProc3
RL_JOL D,91,1,3,BlockProc1,Love - Affection,B,20,100,13191,,,,,,,,,,StudyProc3
RL_JOL D,91,1,3,BlockProc1,End - Adjourn,B,6,92,6090,,,,,,,,,,StudyProc3
RL_JOL D,91,1,3,BlockProc1,Coffin - Dead,F,33,100,4399,,,,,,,,,,StudyProc3
RL_JOL D,91,1,3,BlockProc1,Sardine - Fish,F,35,96,5162,,,,,,,,,,StudyProc3
RL_JOL D,91,1,3,BlockProc1,Cold - Chill,B,19,97,10646,,,,,,,,,,StudyProc3
RL_JOL D,91,1,3,BlockProc1,Panther - Cat,F,31,100,2896,,,,,,,,,,StudyProc3
RL_JOL D,91,1,3,BlockProc1,Banker - Money,F,37,78,8745,,,,,,,,,,StudyProc3
RL_JOL D,91,1,3,BlockProc1,Balloon - Pop,F,28,100,3833,,,,,,,,,,StudyProc3
RL_JOL D,91,1,3,BlockProc1,Nap - Sleep,F,39,99,9283,,,,,,,,,,StudyProc3
RL_JOL D,91,1,3,BlockProc1,Shake - Shell,U,68,,,,,,,,48,11867,,,StudyProc7
RL_JOL D,91,1,3,BlockProc1,Reel - Rod,S,55,,,,,,,,94,10732,,,StudyProc7
RL_JOL D,91,1,3,BlockProc1,Scar - Main,U,80,,,,,,,,1,10995,,,StudyProc7
RL_JOL D,91,1,3,BlockProc1,Wax - Candle,S,44,,,,,,,,100,4295,,,StudyProc7
RL_JOL D,91,1,3,BlockProc1,Communication - Phone,S,54,,,,,,,,93,14198,,,StudyProc7
RL_JOL D,91,1,3,BlockProc1,Lonely - Alone,S,50,,,,,,,,90,5799,,,StudyProc7
RL_JOL D,91,1,3,BlockProc1,Bracelet - Wrist,S,45,,,,,,,,90,5617,,,StudyProc7
RL_JOL D,91,1,3,BlockProc1,Away - Gone,S,47,,,,,,,,80,10914,,,StudyProc7
RL_JOL D,91,1,3,BlockProc1,Clothes - Cake,U,71,,,,,,,,58,19122,,,StudyProc7
RL_JOL D,91,1,3,BlockProc1,Wet - Dry,S,51,,,,,,,,100,4337,,,StudyProc7
RL_JOL D,91,1,3,BlockProc1,Drink - Water,S,48,,,,,,,,100,5407,,,StudyProc7
RL_JOL D,91,1,3,BlockProc1,Maroon - Justice,U,61,,,,,,,,76,17024,,,StudyProc7
RL_JOL D,91,1,3,BlockProc1,Bang - Fuzzy,U,73,,,,,,,,2,8830,,,StudyProc7
RL_JOL D,91,1,3,BlockProc1,Equal - Rights,S,42,,,,,,,,87,10931,,,StudyProc7
RL_JOL D,91,1,3,BlockProc1,Temper - Tantrum,S,59,,,,,,,,88,12130,,,StudyProc7
RL_JOL D,91,1,3,BlockProc1,Ground - Earth,S,49,,,,,,,,75,16128,,,StudyProc7
RL_JOL D,91,1,3,BlockProc1,Ounce - Both,U,77,,,,,,,,1,14154,,,StudyProc7
RL_JOL D,91,1,3,BlockProc1,Clear - Moat,U,74,,,,,,,,1,5054,,,StudyProc7
RL_JOL D,91,1,3,BlockProc1,Obtain - Meat,U,66,,,,,,,,56,6774,,,StudyProc7
RL_JOL D,91,1,3,BlockProc1,Children - Mirror,U,79,,,,,,,,30,15263,,,StudyProc7
RL_JOL D,91,1,3,BlockProc1,Lie - Truth,S,53,,,,,,,,90,5165,,,StudyProc7
RL_JOL D,91,1,3,BlockProc1,Tick - Flea,S,56,,,,,,,,88,10113,,,StudyProc7
RL_JOL D,91,1,3,BlockProc1,Charm - Vehicle,U,65,,,,,,,,40,10289,,,StudyProc7
RL_JOL D,91,1,3,BlockProc1,Able - Crackle,U,67,,,,,,,,1,6131,,,StudyProc7
RL_JOL D,91,1,3,BlockProc1,Hate - Name,U,72,,,,,,,,1,11695,,,StudyProc7
RL_JOL D,91,1,3,BlockProc1,Sign - Loan,U,76,,,,,,,,3,24871,,,StudyProc7
RL_JOL D,91,1,3,BlockProc1,Carbon - Element,S,46,,,,,,,,90,3996,,,StudyProc7
RL_JOL D,91,1,3,BlockProc1,Have - Own,S,58,,,,,,,,90,4991,,,StudyProc7
RL_JOL D,91,1,3,BlockProc1,Steak - Give,U,63,,,,,,,,67,8345,,,StudyProc7
RL_JOL D,91,1,3,BlockProc1,Jar - Mason,S,43,,,,,,,,70,7978,,,StudyProc7
RL_JOL D,91,1,3,BlockProc1,Toil - Lease,U,75,,,,,,,,1,7722,,,StudyProc7
RL_JOL D,91,1,3,BlockProc1,Cloth - Stretch,U,62,,,,,,,,3,25725,,,StudyProc7
RL_JOL D,91,1,3,BlockProc1,Shave - Razor,S,41,,,,,,,,90,5455,,,StudyProc7
RL_JOL D,91,1,3,BlockProc1,Fiction - Listen,U,69,,,,,,,,3,7351,,,StudyProc7
RL_JOL D,91,1,3,BlockProc1,Election - Maze,U,64,,,,,,,,46,12337,,,StudyProc7
RL_JOL D,91,1,3,BlockProc1,Seatbelt - Safety,S,52,,,,,,,,97,10814,,,StudyProc7
RL_JOL D,91,1,3,BlockProc1,Noise - Loud,S,57,,,,,,,,70,9010,,,StudyProc7
RL_JOL D,91,1,3,BlockProc1,Tan - Sun,S,60,,,,,,,,90,5384,,,StudyProc7
RL_JOL D,91,1,3,BlockProc1,Morning - Temperature,U,78,,,,,,,,90,5122,,,StudyProc7
RL_JOL D,91,1,3,BlockProc1,Joke - Keys,U,70,,,,,,,,2,14623,,,StudyProc7
RL_JOL D,91,1,3,BlockProc1,Friendliness - Nice,,3,,,,,,,,,,,,StudyProc2
RL_JOL D,91,1,3,BlockProc1,Catcher - Baseball,,4,,,,,,,,,,,,StudyProc2
RL_JOL D,91,1,3,BlockProc1,Trees - Green,,5,,,,,,,,,,,,StudyProc2
RL_JOL D,91,1,3,BlockProc1,Geese - Goose,,1,,,,,,,,,,,,StudyProc2
RL_JOL D,91,1,3,BlockProc1,Grab - Take,,2,,,,,,,,,,,,StudyProc2
RL_JOL D,91,1,3,BlockProc1,Actress - ?,,25,,,,,Star,2909,,,,,,recallproc1
RL_JOL D,91,1,3,BlockProc1,Obtain - ?,,66,,,,,Meat,5293,,,,,,recallproc1
RL_JOL D,91,1,3,BlockProc1,Love - ?,,20,,,,,Affectio,4259,,,,,,recallproc1
RL_JOL D,91,1,3,BlockProc1,Thimble - ?,,26,,,,,Thread,2411,,,,,,recallproc1
RL_JOL D,91,1,3,BlockProc1,Sardine - ?,,35,,,,,Fish,2279,,,,,,recallproc1
RL_JOL D,91,1,3,BlockProc1,Breakable - ?,,32,,,,,Glass,2745,,,,,,recallproc1
RL_JOL D,91,1,3,BlockProc1,Hate - ?,,72,,,,,Name,3272,,,,,,recallproc1
RL_JOL D,91,1,3,BlockProc1,Tie - ?,,4,,,,,Shoelace,4136,,,,,,recallproc1
RL_JOL D,91,1,3,BlockProc1,Coffin - ?,,33,,,,,Dead,1702,,,,,,recallproc1
RL_JOL D,91,1,3,BlockProc1,Clothes - ?,,71,,,,,Cake,2232,,,,,,recallproc1
RL_JOL D,91,1,3,BlockProc1,Banker - ?,,37,,,,,Money,2356,,,,,,recallproc1
RL_JOL D,91,1,3,BlockProc1,Donkey - ?,,13,,,,,Mule,1762,,,,,,recallproc1
RL_JOL D,91,1,3,BlockProc1,Bracelet - ?,,45,,,,,Wrist,2137,,,,,,recallproc1
RL_JOL D,91,1,3,BlockProc1,Aircraft - ?,,34,,,,,Plane,1960,,,,,,recallproc1
RL_JOL D,91,1,3,BlockProc1,League - ?,,36,,,,,Baseball,2559,,,,,,recallproc1
RL_JOL D,91,1,3,BlockProc1,Away - ?,,47,,,,,Gone,1949,,,,,,recallproc1
RL_JOL D,91,1,3,BlockProc1,Scar - ?,,80,,,,,Main,1604,,,,,,recallproc1
RL_JOL D,91,1,3,BlockProc1,Paper - ?,,14,,,,,Document,3600,,,,,,recallproc1
RL_JOL D,91,1,3,BlockProc1,Lie - ?,,53,,,,,Truth,2245,,,,,,recallproc1
RL_JOL D,91,1,3,BlockProc1,Cold - ?,,19,,,,,Chill,3632,,,,,,recallproc1
RL_JOL D,91,1,3,BlockProc1,Scissors - ?,,17,,,,,Shears,2858,,,,,,recallproc1
RL_JOL D,91,1,3,BlockProc1,Ounce - ?,,77,,,,,Both,3124,,,,,,recallproc1
RL_JOL D,91,1,3,BlockProc1,Tick - ?,,56,,,,,Flea,1987,,,,,,recallproc1
RL_JOL D,91,1,3,BlockProc1,Jar - ?,,43,,,,,Mason,1992,,,,,,recallproc1
RL_JOL D,91,1,3,BlockProc1,Morning - ?,,78,,,,,Temperature,3142,,,,,,recallproc1
RL_JOL D,91,1,3,BlockProc1,Children - ?,,79,,,,,Mirror,2548,,,,,,recallproc1
RL_JOL D,91,1,3,BlockProc1,Cloth - ?,,62,,,,,Stretch,9219,,,,,,recallproc1
RL_JOL D,91,1,3,BlockProc1,Panther - ?,,31,,,,,Cat,1719,,,,,,recallproc1
RL_JOL D,91,1,3,BlockProc1,Eat - ?,,16,,,,,Dine,3543,,,,,,recallproc1
RL_JOL D,91,1,3,BlockProc1,Game - ?,,2,,,,,Clue,2949,,,,,,recallproc1
RL_JOL D,91,1,3,BlockProc1,Truthful - ?,,38,,,,,Honest,3380,,,,,,recallproc1
RL_JOL D,91,1,3,BlockProc1,Smell - ?,,15,,,,,Strong,30216,,,,,,recallproc1
RL_JOL D,91,1,3,BlockProc1,Nap - ?,,39,,,,,Sleep,2313,,,,,,recallproc1
RL_JOL D,91,1,3,BlockProc1,Penguin - ?,,24,,,,,Bird,2466,,,,,,recallproc1
RL_JOL D,91,1,3,BlockProc1,Toil - ?,,75,,,,,Lease,6220,,,,,,recallproc1
RL_JOL D,91,1,3,BlockProc1,Favorite - ?,,30,,,,,Best,2740,,,,,,recallproc1
RL_JOL D,91,1,3,BlockProc1,Charm - ?,,65,,,,,Vehicle,3883,,,,,,recallproc1
RL_JOL D,91,1,3,BlockProc1,Steak - ?,,63,,,,,Give,4651,,,,,,recallproc1
RL_JOL D,91,1,3,BlockProc1,Wet - ?,,51,,,,,Dry,1979,,,,,,recallproc1
RL_JOL D,91,1,3,BlockProc1,Bang - ?,,73,,,,,Furry,7650,,,,,,recallproc1
RL_JOL D,91,1,3,BlockProc1,Mystery - ?,,5,,,,,Detective,3279,,,,,,recallproc1
RL_JOL D,91,1,3,BlockProc1,Carbon - ?,,46,,,,,Element,3193,,,,,,recallproc1
RL_JOL D,91,1,3,BlockProc1,Election - ?,,64,,,,,Maze,2229,,,,,,recallproc1
RL_JOL D,91,1,3,BlockProc1,Strawberry - ?,,29,,,,,Fruit,2184,,,,,,recallproc1
RL_JOL D,91,1,3,BlockProc1,Have - ?,,58,,,,,Own,21422,,,,,,recallproc1
RL_JOL D,91,1,3,BlockProc1,Ground - ?,,49,,,,,Earth,2743,,,,,,recallproc1
RL_JOL D,91,1,3,BlockProc1,Trash - ?,,8,,,,,Litter,3805,,,,,,recallproc1
RL_JOL D,91,1,3,BlockProc1,Lonely - ?,,50,,,,,Alone,2104,,,,,,recallproc1
RL_JOL D,91,1,3,BlockProc1,Noise - ?,,57,,,,,Loud,3033,,,,,,recallproc1
RL_JOL D,91,1,3,BlockProc1,Tan - ?,,60,,,,,Sun,1916,,,,,,recallproc1
RL_JOL D,91,1,3,BlockProc1,Dog - ?,,7,,,,,Furry,5868,,,,,,recallproc1
RL_JOL D,91,1,3,BlockProc1,Able - ?,,67,,,,,Tickle,7827,,,,,,recallproc1
RL_JOL D,91,1,3,BlockProc1,Flip - ?,,21,,,,,Turn,2977,,,,,,recallproc1
RL_JOL D,91,1,3,BlockProc1,Brawl - ?,,40,,,,,Fight,2246,,,,,,recallproc1
RL_JOL D,91,1,3,BlockProc1,Drink - ?,,48,,,,,Water,2849,,,,,,recallproc1
RL_JOL D,91,1,3,BlockProc1,Windshield - ?,,22,,,,,Car,1708,,,,,,recallproc1
RL_JOL D,91,1,3,BlockProc1,Villain - ?,,23,,,,,Bad,3285,,,,,,recallproc1
RL_JOL D,91,1,3,BlockProc1,Reel - ?,,55,,,,,Rod,2726,,,,,,recallproc1
RL_JOL D,91,1,3,BlockProc1,Head - ?,,10,,,,,Scalp,3029,,,,,,recallproc1
RL_JOL D,91,1,3,BlockProc1,Revenge - ?,,27,,,,,Even,2792,,,,,,recallproc1
RL_JOL D,91,1,3,BlockProc1,Seatbelt - ?,,52,,,,,Safety,2612,,,,,,recallproc1
RL_JOL D,91,1,3,BlockProc1,Cut - ?,,12,,,,,Chop,2728,,,,,,recallproc1
RL_JOL D,91,1,3,BlockProc1,Temper - ?,,59,,,,,Tantrum,4120,,,,,,recallproc1
RL_JOL D,91,1,3,BlockProc1,Long - ?,,1,,,,,Extension,3678,,,,,,recallproc1
RL_JOL D,91,1,3,BlockProc1,Red - ?,,9,,,,,Cherry,3006,,,,,,recallproc1
RL_JOL D,91,1,3,BlockProc1,Balloon - ?,,28,,,,,Pop,2426,,,,,,recallproc1
RL_JOL D,91,1,3,BlockProc1,Sign - ?,,76,,,,,Loan,3846,,,,,,recallproc1
RL_JOL D,91,1,3,BlockProc1,Fight - ?,,18,,,,,Feud,2007,,,,,,recallproc1
RL_JOL D,91,1,3,BlockProc1,Communication - ?,,54,,,,,Phone,2100,,,,,,recallproc1
RL_JOL D,91,1,3,BlockProc1,Shake - ?,,68,,,,,Shell,2997,,,,,,recallproc1
RL_JOL D,91,1,3,BlockProc1,Joke - ?,,70,,,,,Keys,3857,,,,,,recallproc1
RL_JOL D,91,1,3,BlockProc1,Shave - ?,,41,,,,,RaZOR,7202,,,,,,recallproc1
RL_JOL D,91,1,3,BlockProc1,Clear - ?,,74,,,,,Window,32466,,,,,,recallproc1
RL_JOL D,91,1,3,BlockProc1,Fiction - ?,,69,,,,,Listen,11511,,,,,,recallproc1
RL_JOL D,91,1,3,BlockProc1,Equal - ?,,42,,,,,Rights,2719,,,,,,recallproc1
RL_JOL D,91,1,3,BlockProc1,Plant - ?,,3,,,,,Cactus,2583,,,,,,recallproc1
RL_JOL D,91,1,3,BlockProc1,Maroon - ?,,61,,,,,Justice,3380,,,,,,recallproc1
RL_JOL D,91,1,3,BlockProc1,Car - ?,,11,,,,,Driver,9721,,,,,,recallproc1
RL_JOL D,91,1,3,BlockProc1,Wax - ?,,44,,,,,Cande,3162,,,,,,recallproc1
RL_JOL D,91,1,3,BlockProc1,End - ?,,6,,,,,Adjourn,4879,,,,,,recallproc1
RL_JOL D,91,2,3,BlockProc2,Disintegrate - Disappear,,3,,,,,,,,,,,,StudyProc4
RL_JOL D,91,2,3,BlockProc2,Essay - Write,,4,,,,,,,,,,,,StudyProc4
RL_JOL D,91,2,3,BlockProc2,Hide - Scare,,2,,,,,,,,,,,,StudyProc4
RL_JOL D,91,2,3,BlockProc2,Malt - Chocolate,,5,,,,,,,,,,,,StudyProc4
RL_JOL D,91,2,3,BlockProc2,Sheriff - Police,,1,,,,,,,,,,,,StudyProc4
RL_JOL D,91,2,3,BlockProc2,Pilot - Plane,F,39,,,90,3183,,,,,,,,StudyProc5
RL_JOL D,91,2,3,BlockProc2,Growth - Height,F,25,,,98,9476,,,,,,,,StudyProc5
RL_JOL D,91,2,3,BlockProc2,Attorney - Law,F,29,,,98,9631,,,,,,,,StudyProc5
RL_JOL D,91,2,3,BlockProc2,Racket - Ball,F,33,,,100,4876,,,,,,,,StudyProc5
RL_JOL D,91,2,3,BlockProc2,Cave - Dark,F,23,,,90,5019,,,,,,,,StudyProc5
RL_JOL D,91,2,3,BlockProc2,Chore - Work,F,34,,,100,7220,,,,,,,,StudyProc5
RL_JOL D,91,2,3,BlockProc2,Clean - Hygiene,B,12,,,100,8572,,,,,,,,StudyProc5
RL_JOL D,91,2,3,BlockProc2,Bad - Delinquent,B,1,,,96,8132,,,,,,,,StudyProc5
RL_JOL D,91,2,3,BlockProc2,Flower - Orchid,B,19,,,95,5470,,,,,,,,StudyProc5
RL_JOL D,91,2,3,BlockProc2,Money - Wage,B,3,,,95,9341,,,,,,,,StudyProc5
RL_JOL D,91,2,3,BlockProc2,Cow - Herd,B,17,,,90,6462,,,,,,,,StudyProc5
RL_JOL D,91,2,3,BlockProc2,Wasp - Bug,F,27,,,100,4756,,,,,,,,StudyProc5
RL_JOL D,91,2,3,BlockProc2,Attire - Clothes,F,38,,,97,8728,,,,,,,,StudyProc5
RL_JOL D,91,2,3,BlockProc2,Water - Bridge,B,13,,,100,3625,,,,,,,,StudyProc5
RL_JOL D,91,2,3,BlockProc2,Chili - Hot,F,32,,,90,6955,,,,,,,,StudyProc5
RL_JOL D,91,2,3,BlockProc2,Blaze - Fire,F,40,,,98,14566,,,,,,,,StudyProc5
RL_JOL D,91,2,3,BlockProc2,Cold - Bitter,B,7,,,80,12136,,,,,,,,StudyProc5
RL_JOL D,91,2,3,BlockProc2,Fantastic - Great,F,30,,,70,5686,,,,,,,,StudyProc5
RL_JOL D,91,2,3,BlockProc2,Word - Sentence,F,26,,,90,6644,,,,,,,,StudyProc5
RL_JOL D,91,2,3,BlockProc2,Dog - Paw,B,10,,,100,7531,,,,,,,,StudyProc5
RL_JOL D,91,2,3,BlockProc2,Fish - Tuna,B,20,,,100,5005,,,,,,,,StudyProc5
RL_JOL D,91,2,3,BlockProc2,Division - Math,F,28,,,100,15447,,,,,,,,StudyProc5
RL_JOL D,91,2,3,BlockProc2,Rock - Geology,B,14,,,100,5678,,,,,,,,StudyProc5
RL_JOL D,91,2,3,BlockProc2,Sting - Hornet,B,6,,,100,6100,,,,,,,,StudyProc5
RL_JOL D,91,2,3,BlockProc2,Hammer - Chisel,B,4,,,90,6097,,,,,,,,StudyProc5
RL_JOL D,91,2,3,BlockProc2,Stench - Smell,F,37,,,100,10647,,,,,,,,StudyProc5
RL_JOL D,91,2,3,BlockProc2,Latch - Key,F,31,,,5,7337,,,,,,,,StudyProc5
RL_JOL D,91,2,3,BlockProc2,Drowsy - Sleep,F,36,,,100,6492,,,,,,,,StudyProc5
RL_JOL D,91,2,3,BlockProc2,Out - Way,B,11,,,10,4897,,,,,,,,StudyProc5
RL_JOL D,91,2,3,BlockProc2,Card - Credit,B,18,,,100,3591,,,,,,,,StudyProc5
RL_JOL D,91,2,3,BlockProc2,War - Revolution,B,15,,,100,5067,,,,,,,,StudyProc5
RL_JOL D,91,2,3,BlockProc2,Seize - Take,F,24,,,100,4603,,,,,,,,StudyProc5
RL_JOL D,91,2,3,BlockProc2,Bird - Swan,B,9,,,90,5869,,,,,,,,StudyProc5
RL_JOL D,91,2,3,BlockProc2,Plant - Root,B,8,,,100,6308,,,,,,,,StudyProc5
RL_JOL D,91,2,3,BlockProc2,News - Editor,B,5,,,90,8664,,,,,,,,StudyProc5
RL_JOL D,91,2,3,BlockProc2,Enough - Full,F,21,,,100,5948,,,,,,,,StudyProc5
RL_JOL D,91,2,3,BlockProc2,Famine - Hunger,F,35,,,100,19080,,,,,,,,StudyProc5
RL_JOL D,91,2,3,BlockProc2,Talk - Discussion,B,16,,,100,4793,,,,,,,,StudyProc5
RL_JOL D,91,2,3,BlockProc2,Sip - Drink,F,22,,,100,4540,,,,,,,,StudyProc5
RL_JOL D,91,2,3,BlockProc2,Stomach - Digestion,B,2,,,100,3785,,,,,,,,StudyProc5
RL_JOL D,91,2,3,BlockProc2,Amount - Number,S,42,,,,,,,,,,100,5083,StudyProc8
RL_JOL D,91,2,3,BlockProc2,Lion - Art,U,74,,,,,,,,,,100,6290,StudyProc8
RL_JOL D,91,2,3,BlockProc2,Clutter - Pusher,U,61,,,,,,,,,,100,8215,StudyProc8
RL_JOL D,91,2,3,BlockProc2,Round - Circle,S,60,,,,,,,,,,100,4966,StudyProc8
RL_JOL D,91,2,3,BlockProc2,Hungry - Park,U,63,,,,,,,,,,100,5497,StudyProc8
RL_JOL D,91,2,3,BlockProc2,Soda - Pop,S,51,,,,,,,,,,100,3943,StudyProc8
RL_JOL D,91,2,3,BlockProc2,Bee - Honey,S,58,,,,,,,,,,100,3821,StudyProc8
RL_JOL D,91,2,3,BlockProc2,Foot - Shoe,S,55,,,,,,,,,,100,2775,StudyProc8
RL_JOL D,91,2,3,BlockProc2,Position - Machine,U,71,,,,,,,,,,100,6349,StudyProc8
RL_JOL D,91,2,3,BlockProc2,Sacking -Dietary,U,62,,,,,,,,,,90,18536,StudyProc8
RL_JOL D,91,2,3,BlockProc2,Woman - Lift,U,64,,,,,,,,,,100,5119,StudyProc8
RL_JOL D,91,2,3,BlockProc2,Riddle - Sugar,U,76,,,,,,,,,,100,8341,StudyProc8
RL_JOL D,91,2,3,BlockProc2,Sight - Debate,U,68,,,,,,,,,,90,7422,StudyProc8
RL_JOL D,91,2,3,BlockProc2,Cheese - Wine,S,52,,,,,,,,,,100,12550,StudyProc8
RL_JOL D,91,2,3,BlockProc2,Vase - King,U,80,,,,,,,,,,90,5658,StudyProc8
RL_JOL D,91,2,3,BlockProc2,End - Begin,S,49,,,,,,,,,,100,3193,StudyProc8
RL_JOL D,91,2,3,BlockProc2,Floor - Discover,U,66,,,,,,,,,,90,10437,StudyProc8
RL_JOL D,91,2,3,BlockProc2,Jury - Trial,S,45,,,,,,,,,,90,6121,StudyProc8
RL_JOL D,91,2,3,BlockProc2,Car - Happy,U,72,,,,,,,,,,100,3302,StudyProc8
RL_JOL D,91,2,3,BlockProc2,Wind - Blow,S,50,,,,,,,,,,100,7622,StudyProc8
RL_JOL D,91,2,3,BlockProc2,Belt - Soon,U,65,,,,,,,,,,0,19773,StudyProc8
RL_JOL D,91,2,3,BlockProc2,Hand - Fix,U,70,,,,,,,,,,90,5673,StudyProc8
RL_JOL D,91,2,3,BlockProc2,Sick - Hide,U,79,,,,,,,,,,90,7472,StudyProc8
RL_JOL D,91,2,3,BlockProc2,Toilet - Bathroom,S,53,,,,,,,,,,100,3589,StudyProc8
RL_JOL D,91,2,3,BlockProc2,Design - Architecture,S,46,,,,,,,,,,100,9793,StudyProc8
RL_JOL D,91,2,3,BlockProc2,Would - Cash,U,78,,,,,,,,,,90,11551,StudyProc8
RL_JOL D,91,2,3,BlockProc2,Bar - Grill,S,47,,,,,,,,,,90,10932,StudyProc8
RL_JOL D,91,2,3,BlockProc2,Add - Valley,U,77,,,,,,,,,,75,12099,StudyProc8
RL_JOL D,91,2,3,BlockProc2,Assignment - Due,S,41,,,,,,,,,,100,4810,StudyProc8
RL_JOL D,91,2,3,BlockProc2,Business - Death,U,67,,,,,,,,,,72,17516,StudyProc8
RL_JOL D,91,2,3,BlockProc2,Salad - Lettuce,S,54,,,,,,,,,,100,5047,StudyProc8
RL_JOL D,91,2,3,BlockProc2,Tuck - Allow,U,73,,,,,,,,,,68,12679,StudyProc8
RL_JOL D,91,2,3,BlockProc2,Child - Baby,S,59,,,,,,,,,,58,13286,StudyProc8
RL_JOL D,91,2,3,BlockProc2,Site - Location,S,43,,,,,,,,,,100,10005,StudyProc8
RL_JOL D,91,2,3,BlockProc2,Accident - Strong,U,75,,,,,,,,,,90,20258,StudyProc8
RL_JOL D,91,2,3,BlockProc2,Waste - Dump,S,44,,,,,,,,,,100,5804,StudyProc8
RL_JOL D,91,2,3,BlockProc2,Liver - Kidney,S,48,,,,,,,,,,100,4085,StudyProc8
RL_JOL D,91,2,3,BlockProc2,Decision - Choise,S,57,,,,,,,,,,100,12182,StudyProc8
RL_JOL D,91,2,3,BlockProc2,Bronze - Artery,U,69,,,,,,,,,,5,12672,StudyProc8
RL_JOL D,91,2,3,BlockProc2,Future - Past,S,56,,,,,,,,,,100,4760,StudyProc8
RL_JOL D,91,2,3,BlockProc2,Contest - Competition,,5,,,,,,,,,,,,StudyProc6
RL_JOL D,91,2,3,BlockProc2,Magician - Magic,,4,,,,,,,,,,,,StudyProc6
RL_JOL D,91,2,3,BlockProc2,Deciet - Cheat,,1,,,,,,,,,,,,StudyProc6
RL_JOL D,91,2,3,BlockProc2,Deaf - Hear,,3,,,,,,,,,,,,StudyProc6
RL_JOL D,91,2,3,BlockProc2,Mind - Matter,,2,,,,,,,,,,,,StudyProc6
RL_JOL D,91,2,3,BlockProc2,Hand - ?,,70,,,,,,,Fix,,,,,recallproc2
RL_JOL D,91,2,3,BlockProc2,Floor - ?,,66,,,,,,,Discover,,,,,recallproc2
RL_JOL D,91,2,3,BlockProc2,Bee - ?,,58,,,,,,,Honey,,,,,recallproc2
RL_JOL D,91,2,3,BlockProc2,Latch - ?,,31,,,,,,,Key,,,,,recallproc2
RL_JOL D,91,2,3,BlockProc2,Cow - ?,,17,,,,,,,Herd,,,,,recallproc2
RL_JOL D,91,2,3,BlockProc2,Water - ?,,13,,,,,,,Drink,,,,,recallproc2
RL_JOL D,91,2,3,BlockProc2,Foot - ?,,55,,,,,,,Shoe,,,,,recallproc2
RL_JOL D,91,2,3,BlockProc2,Hungry - ?,,63,,,,,,,Eat,,,,,recallproc2
RL_JOL D,91,2,3,BlockProc2,Amount - ?,,42,,,,,,,Number,,,,,recallproc2
RL_JOL D,91,2,3,BlockProc2,Toilet - ?,,53,,,,,,,Bathroom,,,,,recallproc2
RL_JOL D,91,2,3,BlockProc2,Growth - ?,,25,,,,,,,Height,,,,,recallproc2
RL_JOL D,91,2,3,BlockProc2,Blaze - ?,,40,,,,,,,Fire,,,,,recallproc2
RL_JOL D,91,2,3,BlockProc2,Would - ?,,78,,,,,,,Cash,,,,,recallproc2
RL_JOL D,91,2,3,BlockProc2,Cheese - ?,,52,,,,,,,Wine,,,,,recallproc2
RL_JOL D,91,2,3,BlockProc2,Attire - ?,,38,,,,,,,Clothes,,,,,recallproc2
RL_JOL D,91,2,3,BlockProc2,Sting - ?,,6,,,,,,,Horne,,,,,recallproc2
RL_JOL D,91,2,3,BlockProc2,Stomach - ?,,2,,,,,,,Digestion,,,,,recallproc2
RL_JOL D,91,2,3,BlockProc2,Wasp - ?,,27,,,,,,,Bug,,,,,recallproc2
RL_JOL D,91,2,3,BlockProc2,Wind - ?,,50,,,,,,,Blow,,,,,recallproc2
RL_JOL D,91,2,3,BlockProc2,Sacking - ?,,62,,,,,,,Dietary,,,,,recallproc2
RL_JOL D,91,2,3,BlockProc2,Assignment - ?,,41,,,,,,,Due,,,,,recallproc2
RL_JOL D,91,2,3,BlockProc2,Money - ?,,3,,,,,,,Wage,,,,,recallproc2
RL_JOL D,91,2,3,BlockProc2,War - ?,,15,,,,,,,Revolution,,,,,recallproc2
RL_JOL D,91,2,3,BlockProc2,Stench - ?,,37,,,,,,,Smell,,,,,recallproc2
RL_JOL D,91,2,3,BlockProc2,Decision - ?,,57,,,,,,,Choise,,,,,recallproc2
RL_JOL D,91,2,3,BlockProc2,Clutter - ?,,61,,,,,,,Pusher,,,,,recallproc2
RL_JOL D,91,2,3,BlockProc2,Division - ?,,28,,,,,,,Math,,,,,recallproc2
RL_JOL D,91,2,3,BlockProc2,Business - ?,,67,,,,,,,Death,,,,,recallproc2
RL_JOL D,91,2,3,BlockProc2,Plant - ?,,8,,,,,,,Orchid,,,,,recallproc2
RL_JOL D,91,2,3,BlockProc2,Lion - ?,,74,,,,,,,Art,,,,,recallproc2
RL_JOL D,91,2,3,BlockProc2,Bad - ?,,1,,,,,,,Deviant,,,,,recallproc2
RL_JOL D,91,2,3,BlockProc2,Drowsy - ?,,36,,,,,,,Sleep,,,,,recallproc2
RL_JOL D,91,2,3,BlockProc2,Enough - ?,,21,,,,,,,Full,,,,,recallproc2
RL_JOL D,91,2,3,BlockProc2,Waste - ?,,44,,,,,,,Dump,,,,,recallproc2
RL_JOL D,91,2,3,BlockProc2,Out - ?,,11,,,,,,,Way,,,,,recallproc2
RL_JOL D,91,2,3,BlockProc2,Car - ?,,72,,,,,,,Drive,,,,,recallproc2
RL_JOL D,91,2,3,BlockProc2,Cold - ?,,7,,,,,,,Chill,,,,,recallproc2
RL_JOL D,91,2,3,BlockProc2,Dog - ?,,10,,,,,,,Furry,,,,,recallproc2
RL_JOL D,91,2,3,BlockProc2,Sip - ?,,22,,,,,,,Drink,,,,,recallproc2
RL_JOL D,91,2,3,BlockProc2,Design - ?,,46,,,,,,,Architecture,,,,,recallproc2
RL_JOL D,91,2,3,BlockProc2,Cave - ?,,23,,,,,,,Dark,,,,,recallproc2
RL_JOL D,91,2,3,BlockProc2,Future - ?,,56,,,,,,,Past,,,,,recallproc2
RL_JOL D,91,2,3,BlockProc2,Racket - ?,,33,,,,,,,Ball,,,,,recallproc2
RL_JOL D,91,2,3,BlockProc2,Fish - ?,,20,,,,,,,Tuna,,,,,recallproc2
RL_JOL D,91,2,3,BlockProc2,Talk - ?,,16,,,,,,,Discussion,,,,,recallproc2
RL_JOL D,91,2,3,BlockProc2,Riddle - ?,,76,,,,,,,Sugar,,,,,recallproc2
RL_JOL D,91,2,3,BlockProc2,Woman - ?,,64,,,,,,,Lift,,,,,recallproc2
RL_JOL D,91,2,3,BlockProc2,Famine - ?,,35,,,,,,,Hunger,,,,,recallproc2
RL_JOL D,91,2,3,BlockProc2,News - ?,,5,,,,,,,Editor,,,,,recallproc2
RL_JOL D,91,2,3,BlockProc2,Chore - ?,,34,,,,,,,Work,,,,,recallproc2
RL_JOL D,91,2,3,BlockProc2,End - ?,,49,,,,,,,Begin,,,,,recallproc2
RL_JOL D,91,2,3,BlockProc2,Seize - ?,,24,,,,,,,Take,,,,,recallproc2
RL_JOL D,91,2,3,BlockProc2,Soda - ?,,51,,,,,,,Pop,,,,,recallproc2
RL_JOL D,91,2,3,BlockProc2,Chili - ?,,32,,,,,,,Hot,,,,,recallproc2
RL_JOL D,91,2,3,BlockProc2,Attorney - ?,,29,,,,,,,Law,,,,,recallproc2
RL_JOL D,91,2,3,BlockProc2,Bronze - ?,,69,,,,,,,Artery,,,,,recallproc2
RL_JOL D,91,2,3,BlockProc2,Clean - ?,,12,,,,,,,Hygiene,,,,,recallproc2
RL_JOL D,91,2,3,BlockProc2,Tuck - ?,,73,,,,,,,Allow,,,,,recallproc2
RL_JOL D,91,2,3,BlockProc2,Hammer - ?,,4,,,,,,,Chisel,,,,,recallproc2
RL_JOL D,91,2,3,BlockProc2,Flower - ?,,19,,,,,,,Orchid,,,,,recallproc2
RL_JOL D,91,2,3,BlockProc2,Site - ?,,43,,,,,,,Location,,,,,recallproc2
RL_JOL D,91,2,3,BlockProc2,Card - ?,,18,,,,,,,Credit,,,,,recallproc2
RL_JOL D,91,2,3,BlockProc2,Child - ?,,59,,,,,,,Baby,,,,,recallproc2
RL_JOL D,91,2,3,BlockProc2,Position - ?,,71,,,,,,,Machin,,,,,recallproc2
RL_JOL D,91,2,3,BlockProc2,Sick - ?,,79,,,,,,,Hide,,,,,recallproc2
RL_JOL D,91,2,3,BlockProc2,Rock - ?,,14,,,,,,,Geology,,,,,recallproc2
RL_JOL D,91,2,3,BlockProc2,Word - ?,,26,,,,,,,Sentence,,,,,recallproc2
RL_JOL D,91,2,3,BlockProc2,Accident - ?,,75,,,,,,,Strong,,,,,recallproc2
RL_JOL D,91,2,3,BlockProc2,Belt - ?,,65,,,,,,,Soon,,,,,recallproc2
RL_JOL D,91,2,3,BlockProc2,Add - ?,,77,,,,,,,Valley,,,,,recallproc2
RL_JOL D,91,2,3,BlockProc2,Pilot - ?,,39,,,,,,,Plane,,,,,recallproc2
RL_JOL D,91,2,3,BlockProc2,Vase - ?,,80,,,,,,,King,,,,,recallproc2
RL_JOL D,91,2,3,BlockProc2,Sight - ?,,68,,,,,,,Debate,,,,,recallproc2
RL_JOL D,91,2,3,BlockProc2,Salad - ?,,54,,,,,,,Lettuce,,,,,recallproc2
RL_JOL D,91,2,3,BlockProc2,Round - ?,,60,,,,,,,Circle,,,,,recallproc2
RL_JOL D,91,2,3,BlockProc2,Bar - ?,,47,,,,,,,Grill,,,,,recallproc2
RL_JOL D,91,2,3,BlockProc2,Bird - ?,,9,,,,,,,Swan,,,,,recallproc2
RL_JOL D,91,2,3,BlockProc2,Liver - ?,,48,,,,,,,Kidney,,,,,recallproc2
RL_JOL D,91,2,3,BlockProc2,Jury - ?,,45,,,,,,,Trial,,,,,recallproc2
RL_JOL D,91,2,3,BlockProc2,Fantastic - ?,,30,,,,,,,Great,,,,,recallproc2
RL_JOL D,92,1,,BlockProc1,Behavior-Social,,9,,,,,,,,,,,,Practice1
RL_JOL D,92,1,,BlockProc1,Chocolate-Bar,,7,,,,,,,,,,,,Practice1
RL_JOL D,92,1,,BlockProc1,Aardvark-Zoo,,1,,,,,,,,,,,,Practice1
RL_JOL D,92,1,,BlockProc1,Disbelieve-Skeptic,,6,,,,,,,,,,,,Practice1
RL_JOL D,92,1,,BlockProc1,Paddle-Row,,4,,,,,,,,,,,,Practice1
RL_JOL D,92,1,,BlockProc1,Chime-Music,,8,,,,,,,,,,,,Practice1
RL_JOL D,92,1,,BlockProc1,Hinge-Swing,,5,,,,,,,,,,,,Practice1
RL_JOL D,92,1,,BlockProc1,Deaf-Mute,,2,,,,,,,,,,,,Practice1
RL_JOL D,92,1,,BlockProc1,Ham-Bone,,3,,,,,,,,,,,,Practice1
RL_JOL D,92,1,,BlockProc1,Fashion-Model,,10,,,,,,,,,,,,Practice1
RL_JOL D,92,1,3,BlockProc1,Snow - Ice,,3,,,,,,,,,,,,StudyProc1
RL_JOL D,92,1,3,BlockProc1,Member - Group,,5,,,,,,,,,,,,StudyProc1
RL_JOL D,92,1,3,BlockProc1,Haircut-Scissors,,1,,,,,,,,,,,,StudyProc1
RL_JOL D,92,1,3,BlockProc1,Shrimp - Fish,,4,,,,,,,,,,,,StudyProc1
RL_JOL D,92,1,3,BlockProc1,Curtain - Drapes,,2,,,,,,,,,,,,StudyProc1
RL_JOL D,92,1,3,BlockProc1,Fight - Feud,B,18,90,2659,,,,,,,,,,StudyProc3
RL_JOL D,92,1,3,BlockProc1,League - Baseball,F,36,100,2773,,,,,,,,,,StudyProc3
RL_JOL D,92,1,3,BlockProc1,Head - Scalp,B,10,100,2546,,,,,,,,,,StudyProc3
RL_JOL D,92,1,3,BlockProc1,Thimble - Thread,F,26,100,4065,,,,,,,,,,StudyProc3
RL_JOL D,92,1,3,BlockProc1,Long - Extension,B,1,80,2938,,,,,,,,,,StudyProc3
RL_JOL D,92,1,3,BlockProc1,Nap - Sleep,F,39,0,3488,,,,,,,,,,StudyProc3
RL_JOL D,92,1,3,BlockProc1,Panther - Cat,F,31,100,2472,,,,,,,,,,StudyProc3
RL_JOL D,92,1,3,BlockProc1,Sardine - Fish,F,35,100,2561,,,,,,,,,,StudyProc3
RL_JOL D,92,1,3,BlockProc1,Aircraft - Plane,F,34,100,2815,,,,,,,,,,StudyProc3
RL_JOL D,92,1,3,BlockProc1,Game - Clue,B,2,90,3811,,,,,,,,,,StudyProc3
RL_JOL D,92,1,3,BlockProc1,Banker - Money,F,37,100,2062,,,,,,,,,,StudyProc3
RL_JOL D,92,1,3,BlockProc1,Trash - Litter,B,8,90,2377,,,,,,,,,,StudyProc3
RL_JOL D,92,1,3,BlockProc1,Flip - Turn,F,21,100,2966,,,,,,,,,,StudyProc3
RL_JOL D,92,1,3,BlockProc1,Car - Driver,B,11,90,2156,,,,,,,,,,StudyProc3
RL_JOL D,92,1,3,BlockProc1,Dog - Furry,B,7,100,3106,,,,,,,,,,StudyProc3
RL_JOL D,92,1,3,BlockProc1,Cold - Chill,B,19,100,3338,,,,,,,,,,StudyProc3
RL_JOL D,92,1,3,BlockProc1,Revenge - Even,F,27,80,4944,,,,,,,,,,StudyProc3
RL_JOL D,92,1,3,BlockProc1,Plant - Cactus,B,3,70,2892,,,,,,,,,,StudyProc3
RL_JOL D,92,1,3,BlockProc1,Eat - Dine,B,16,100,2165,,,,,,,,,,StudyProc3
RL_JOL D,92,1,3,BlockProc1,Brawl - Fight,F,40,80,2323,,,,,,,,,,StudyProc3
RL_JOL D,92,1,3,BlockProc1,Villain - Bad,F,23,90,6107,,,,,,,,,,StudyProc3
RL_JOL D,92,1,3,BlockProc1,Smell - Incense,B,15,100,3199,,,,,,,,,,StudyProc3
RL_JOL D,92,1,3,BlockProc1,Favorite - Best,F,30,80,3516,,,,,,,,,,StudyProc3
RL_JOL D,92,1,3,BlockProc1,Penguin - Bird,F,24,100,3011,,,,,,,,,,StudyProc3
RL_JOL D,92,1,3,BlockProc1,Cut - Chop,B,12,90,4838,,,,,,,,,,StudyProc3
RL_JOL D,92,1,3,BlockProc1,Actress - Star,F,25,70,2871,,,,,,,,,,StudyProc3
RL_JOL D,92,1,3,BlockProc1,Breakable - Glass,F,32,100,3537,,,,,,,,,,StudyProc3
RL_JOL D,92,1,3,BlockProc1,Love - Affection,B,20,100,3023,,,,,,,,,,StudyProc3
RL_JOL D,92,1,3,BlockProc1,Red - Cherry,B,9,90,2258,,,,,,,,,,StudyProc3
RL_JOL D,92,1,3,BlockProc1,Coffin - Dead,F,33,100,6188,,,,,,,,,,StudyProc3
RL_JOL D,92,1,3,BlockProc1,Windshield - Car,F,22,90,2694,,,,,,,,,,StudyProc3
RL_JOL D,92,1,3,BlockProc1,Strawberry - Fruit,F,29,100,3159,,,,,,,,,,StudyProc3
RL_JOL D,92,1,3,BlockProc1,Scissors - Shears,B,17,60,3836,,,,,,,,,,StudyProc3
RL_JOL D,92,1,3,BlockProc1,Balloon - Pop,F,28,70,3990,,,,,,,,,,StudyProc3
RL_JOL D,92,1,3,BlockProc1,Truthful - Honest,F,38,100,2658,,,,,,,,,,StudyProc3
RL_JOL D,92,1,3,BlockProc1,Mystery - Detective,B,5,100,3228,,,,,,,,,,StudyProc3
RL_JOL D,92,1,3,BlockProc1,Donkey - Mule,B,13,70,3199,,,,,,,,,,StudyProc3
RL_JOL D,92,1,3,BlockProc1,End - Adjourn,B,6,100,3875,,,,,,,,,,StudyProc3
RL_JOL D,92,1,3,BlockProc1,Paper - Document,B,14,100,4171,,,,,,,,,,StudyProc3
RL_JOL D,92,1,3,BlockProc1,Tie - Shoelace,B,4,70,4239,,,,,,,,,,StudyProc3
RL_JOL D,92,1,3,BlockProc1,Clothes - Cake,U,71,,,,,,,,50,4458,,,StudyProc7
RL_JOL D,92,1,3,BlockProc1,Shake - Shell,U,68,,,,,,,,50,4714,,,StudyProc7
RL_JOL D,92,1,3,BlockProc1,Obtain - Meat,U,66,,,,,,,,50,3624,,,StudyProc7
RL_JOL D,92,1,3,BlockProc1,Tan - Sun,S,60,,,,,,,,100,2906,,,StudyProc7
RL_JOL D,92,1,3,BlockProc1,Election - Maze,U,64,,,,,,,,50,4778,,,StudyProc7
RL_JOL D,92,1,3,BlockProc1,Wax - Candle,S,44,,,,,,,,100,3165,,,StudyProc7
RL_JOL D,92,1,3,BlockProc1,Hate - Name,U,72,,,,,,,,50,3162,,,StudyProc7
RL_JOL D,92,1,3,BlockProc1,Ground - Earth,S,49,,,,,,,,0,5144,,,StudyProc7
RL_JOL D,92,1,3,BlockProc1,Drink - Water,S,48,,,,,,,,100,5100,,,StudyProc7
RL_JOL D,92,1,3,BlockProc1,Morning - Temperature,U,78,,,,,,,,80,3218,,,StudyProc7
RL_JOL D,92,1,3,BlockProc1,Toil - Lease,U,75,,,,,,,,50,4374,,,StudyProc7
RL_JOL D,92,1,3,BlockProc1,Shave - Razor,S,41,,,,,,,,90,3465,,,StudyProc7
RL_JOL D,92,1,3,BlockProc1,Temper - Tantrum,S,59,,,,,,,,90,2739,,,StudyProc7
RL_JOL D,92,1,3,BlockProc1,Steak - Give,U,63,,,,,,,,40,3305,,,StudyProc7
RL_JOL D,92,1,3,BlockProc1,Lie - Truth,S,53,,,,,,,,90,3280,,,StudyProc7
RL_JOL D,92,1,3,BlockProc1,Fiction - Listen,U,69,,,,,,,,70,3257,,,StudyProc7
RL_JOL D,92,1,3,BlockProc1,Ounce - Both,U,77,,,,,,,,40,3459,,,StudyProc7
RL_JOL D,92,1,3,BlockProc1,Bracelet - Wrist,S,45,,,,,,,,100,2820,,,StudyProc7
RL_JOL D,92,1,3,BlockProc1,Joke - Keys,U,70,,,,,,,,40,3016,,,StudyProc7
RL_JOL D,92,1,3,BlockProc1,Equal - Rights,S,42,,,,,,,,80,5051,,,StudyProc7
RL_JOL D,92,1,3,BlockProc1,Reel - Rod,S,55,,,,,,,,60,3315,,,StudyProc7
RL_JOL D,92,1,3,BlockProc1,Away - Gone,S,47,,,,,,,,100,2443,,,StudyProc7
RL_JOL D,92,1,3,BlockProc1,Seatbelt - Safety,S,52,,,,,,,,100,2534,,,StudyProc7
RL_JOL D,92,1,3,BlockProc1,Communication - Phone,S,54,,,,,,,,100,2853,,,StudyProc7
RL_JOL D,92,1,3,BlockProc1,Scar - Main,U,80,,,,,,,,70,2751,,,StudyProc7
RL_JOL D,92,1,3,BlockProc1,Cloth - Stretch,U,62,,,,,,,,30,4797,,,StudyProc7
RL_JOL D,92,1,3,BlockProc1,Bang - Fuzzy,U,73,,,,,,,,30,3488,,,StudyProc7
RL_JOL D,92,1,3,BlockProc1,Have - Own,S,58,,,,,,,,100,2488,,,StudyProc7
RL_JOL D,92,1,3,BlockProc1,Charm - Vehicle,U,65,,,,,,,,40,3193,,,StudyProc7
RL_JOL D,92,1,3,BlockProc1,Children - Mirror,U,79,,,,,,,,40,2653,,,StudyProc7
RL_JOL D,92,1,3,BlockProc1,Clear - Moat,U,74,,,,,,,,40,2471,,,StudyProc7
RL_JOL D,92,1,3,BlockProc1,Wet - Dry,S,51,,,,,,,,100,2481,,,StudyProc7
RL_JOL D,92,1,3,BlockProc1,Able - Crackle,U,67,,,,,,,,30,3642,,,StudyProc7
RL_JOL D,92,1,3,BlockProc1,Noise - Loud,S,57,,,,,,,,100,2124,,,StudyProc7
RL_JOL D,92,1,3,BlockProc1,Tick - Flea,S,56,,,,,,,,100,2260,,,StudyProc7
RL_JOL D,92,1,3,BlockProc1,Lonely - Alone,S,50,,,,,,,,100,3446,,,StudyProc7
RL_JOL D,92,1,3,BlockProc1,Jar - Mason,S,43,,,,,,,,100,2392,,,StudyProc7
RL_JOL D,92,1,3,BlockProc1,Carbon - Element,S,46,,,,,,,,100,2541,,,StudyProc7
RL_JOL D,92,1,3,BlockProc1,Maroon - Justice,U,61,,,,,,,,50,4228,,,StudyProc7
RL_JOL D,92,1,3,BlockProc1,Sign - Loan,U,76,,,,,,,,50,3238,,,StudyProc7
RL_JOL D,92,1,3,BlockProc1,Friendliness - Nice,,3,,,,,,,,,,,,StudyProc2
RL_JOL D,92,1,3,BlockProc1,Grab - Take,,2,,,,,,,,,,,,StudyProc2
RL_JOL D,92,1,3,BlockProc1,Catcher - Baseball,,4,,,,,,,,,,,,StudyProc2
RL_JOL D,92,1,3,BlockProc1,Geese - Goose,,1,,,,,,,,,,,,StudyProc2
RL_JOL D,92,1,3,BlockProc1,Trees - Green,,5,,,,,,,,,,,,StudyProc2
RL_JOL D,92,1,3,BlockProc1,Away - ?,,47,,,,,gone,3452,,,,,,recallproc1
RL_JOL D,92,1,3,BlockProc1,Donkey - ?,,13,,,,,mule,5654,,,,,,recallproc1
RL_JOL D,92,1,3,BlockProc1,Have - ?,,58,,,,,own,4765,,,,,,recallproc1
RL_JOL D,92,1,3,BlockProc1,Banker - ?,,37,,,,,money,3177,,,,,,recallproc1
RL_JOL D,92,1,3,BlockProc1,Bang - ?,,73,,,,,gun,4038,,,,,,recallproc1
RL_JOL D,92,1,3,BlockProc1,Fiction - ?,,69,,,,,listen,4008,,,,,,recallproc1
RL_JOL D,92,1,3,BlockProc1,Tan - ?,,60,,,,,sun,2203,,,,,,recallproc1
RL_JOL D,92,1,3,BlockProc1,Villain - ?,,23,,,,,criminal,5472,,,,,,recallproc1
RL_JOL D,92,1,3,BlockProc1,Tick - ?,,56,,,,,flea,3519,,,,,,recallproc1
RL_JOL D,92,1,3,BlockProc1,Cut - ?,,12,,,,,scissors,5398,,,,,,recallproc1
RL_JOL D,92,1,3,BlockProc1,Joke - ?,,70,,,,,funny,3848,,,,,,recallproc1
RL_JOL D,92,1,3,BlockProc1,Aircraft - ?,,34,,,,,plane,5761,,,,,,recallproc1
RL_JOL D,92,1,3,BlockProc1,Head - ?,,10,,,,,scalp,4980,,,,,,recallproc1
RL_JOL D,92,1,3,BlockProc1,Drink - ?,,48,,,,,liquid,4783,,,,,,recallproc1
RL_JOL D,92,1,3,BlockProc1,Nap - ?,,39,,,,,sleep,2595,,,,,,recallproc1
RL_JOL D,92,1,3,BlockProc1,Able - ?,,67,,,,,ALLOWED,19759,,,,,,recallproc1
RL_JOL D,92,1,3,BlockProc1,Carbon - ?,,46,,,,,ELEMENT,3956,,,,,,recallproc1
RL_JOL D,92,1,3,BlockProc1,End - ?,,6,,,,,FINISHED,3593,,,,,,recallproc1
RL_JOL D,92,1,3,BlockProc1,Wet - ?,,51,,,,,DRY,2540,,,,,,recallproc1
RL_JOL D,92,1,3,BlockProc1,Children - ?,,79,,,,,WASTE,13411,,,,,,recallproc1
RL_JOL D,92,1,3,BlockProc1,Favorite - ?,,30,,,,,LIKE,4813,,,,,,recallproc1
RL_JOL D,92,1,3,BlockProc1,Trash - ?,,8,,,,,GARBAGE,4063,,,,,,recallproc1
RL_JOL D,92,1,3,BlockProc1,Communication - ?,,54,,,,,TALK,2703,,,,,,recallproc1
RL_JOL D,92,1,3,BlockProc1,Obtain - ?,,66,,,,,POSSESS,4424,,,,,,recallproc1
RL_JOL D,92,1,3,BlockProc1,Clear - ?,,74,,,,,LOOK,4969,,,,,,recallproc1
RL_JOL D,92,1,3,BlockProc1,Tie - ?,,4,,,,,KNOT,3941,,,,,,recallproc1
RL_JOL D,92,1,3,BlockProc1,Truthful - ?,,38,,,,,HONEST,4467,,,,,,recallproc1
RL_JOL D,92,1,3,BlockProc1,Noise - ?,,57,,,,,QUIET,3890,,,,,,recallproc1
RL_JOL D,92,1,3,BlockProc1,Brawl - ?,,40,,,,,FUED,4658,,,,,,recallproc1
RL_JOL D,92,1,3,BlockProc1,Thimble - ?,,26,,,,,THREAD,2930,,,,,,recallproc1
RL_JOL D,92,1,3,BlockProc1,Morning - ?,,78,,,,,SUN,2626,,,,,,recallproc1
RL_JOL D,92,1,3,BlockProc1,Reel - ?,,55,,,,,ROD,2692,,,,,,recallproc1
RL_JOL D,92,1,3,BlockProc1,Sardine - ?,,35,,,,,FISH,2293,,,,,,recallproc1
RL_JOL D,92,1,3,BlockProc1,Eat - ?,,16,,,,,FOOS,3766,,,,,,recallproc1
RL_JOL D,92,1,3,BlockProc1,Cold - ?,,19,,,,,WET,3938,,,,,,recallproc1
RL_JOL D,92,1,3,BlockProc1,Paper - ?,,14,,,,,PENCIL,2960,,,,,,recallproc1
RL_JOL D,92,1,3,BlockProc1,Scissors - ?,,17,,,,,CUT,2150,,,,,,recallproc1
RL_JOL D,92,1,3,BlockProc1,Revenge - ?,,27,,,,,EVEN,4341,,,,,,recallproc1
RL_JOL D,92,1,3,BlockProc1,Charm - ?,,65,,,,,BRACELET,3906,,,,,,recallproc1
RL_JOL D,92,1,3,BlockProc1,Steak - ?,,63,,,,,FOOD,7960,,,,,,recallproc1
RL_JOL D,92,1,3,BlockProc1,Wax - ?,,44,,,,,PAPER,4441,,,,,,recallproc1
RL_JOL D,92,1,3,BlockProc1,Actress - ?,,25,,,,,STAR,1914,,,,,,recallproc1
RL_JOL D,92,1,3,BlockProc1,Panther - ?,,31,,,,,CAT,2499,,,,,,recallproc1
RL_JOL D,92,1,3,BlockProc1,Fight - ?,,18,,,,,BRAWL,2588,,,,,,recallproc1
RL_JOL D,92,1,3,BlockProc1,Ounce - ?,,77,,,,,POUND,2648,,,,,,recallproc1
RL_JOL D,92,1,3,BlockProc1,League - ?,,36,,,,,BASEBALL,2859,,,,,,recallproc1
RL_JOL D,92,1,3,BlockProc1,Shake - ?,,68,,,,,TRIMBLE,8173,,,,,,recallproc1
RL_JOL D,92,1,3,BlockProc1,Penguin - ?,,24,,,,,FISH,13045,,,,,,recallproc1
RL_JOL D,92,1,3,BlockProc1,Seatbelt - ?,,52,,,,,SAFETY,2806,,,,,,recallproc1
RL_JOL D,92,1,3,BlockProc1,Maroon - ?,,61,,,,,BAND,5170,,,,,,recallproc1
RL_JOL D,92,1,3,BlockProc1,Smell - ?,,15,,,,,STINK,3661,,,,,,recallproc1
RL_JOL D,92,1,3,BlockProc1,Clothes - ?,,71,,,,,WEAR,4606,,,,,,recallproc1
RL_JOL D,92,1,3,BlockProc1,Election - ?,,64,,,,,MAZE,2696,,,,,,recallproc1
RL_JOL D,92,1,3,BlockProc1,Ground - ?,,49,,,,,BEEF,2385,,,,,,recallproc1
RL_JOL D,92,1,3,BlockProc1,Bracelet - ?,,45,,,,,WRIST,2855,,,,,,recallproc1
RL_JOL D,92,1,3,BlockProc1,Cloth - ?,,62,,,,,THREAD,3833,,,,,,recallproc1
RL_JOL D,92,1,3,BlockProc1,Love - ?,,20,,,,,HATE,2275,,,,,,recallproc1
RL_JOL D,92,1,3,BlockProc1,Lie - ?,,53,,,,,TRUTH,2396,,,,,,recallproc1
RL_JOL D,92,1,3,BlockProc1,Sign - ?,,76,,,,,BOARD,4129,,,,,,recallproc1
RL_JOL D,92,1,3,BlockProc1,Lonely - ?,,50,,,,,ALONE,3271,,,,,,recallproc1
RL_JOL D,92,1,3,BlockProc1,Scar - ?,,80,,,,,PERMANENT,3304,,,,,,recallproc1
RL_JOL D,92,1,3,BlockProc1,Dog - ?,,7,,,,,CAT,3383,,,,,,recallproc1
RL_JOL D,92,1,3,BlockProc1,Toil - ?,,75,,,,,TREE,2956,,,,,,recallproc1
RL_JOL D,92,1,3,BlockProc1,Windshield - ?,,22,,,,,VEHICLE,6529,,,,,,recallproc1
RL_JOL D,92,1,3,BlockProc1,Flip - ?,,21,,,,,TURN,2701,,,,,,recallproc1
RL_JOL D,92,1,3,BlockProc1,Long - ?,,1,,,,,SHORT,2614,,,,,,recallproc1
RL_JOL D,92,1,3,BlockProc1,Temper - ?,,59,,,,,TANTRUM,2714,,,,,,recallproc1
RL_JOL D,92,1,3,BlockProc1,Car - ?,,11,,,,,RIDE,5050,,,,,,recallproc1
RL_JOL D,92,1,3,BlockProc1,Jar - ?,,43,,,,,MASON,2306,,,,,,recallproc1
RL_JOL D,92,1,3,BlockProc1,Strawberry - ?,,29,,,,,FRUIT,2946,,,,,,recallproc1
RL_JOL D,92,1,3,BlockProc1,Game - ?,,2,,,,,PLAYER,5256,,,,,,recallproc1
RL_JOL D,92,1,3,BlockProc1,Red - ?,,9,,,,,WHITE,4392,,,,,,recallproc1
RL_JOL D,92,1,3,BlockProc1,Coffin - ?,,33,,,,,DEATH,2475,,,,,,recallproc1
RL_JOL D,92,1,3,BlockProc1,Hate - ?,,72,,,,,LOVE,2044,,,,,,recallproc1
RL_JOL D,92,1,3,BlockProc1,Plant - ?,,3,,,,,NATURE,3600,,,,,,recallproc1
RL_JOL D,92,1,3,BlockProc1,Equal - ?,,42,,,,,RIGHT,4691,,,,,,recallproc1
RL_JOL D,92,1,3,BlockProc1,Shave - ?,,41,,,,,CUT,2322,,,,,,recallproc1
RL_JOL D,92,1,3,BlockProc1,Balloon - ?,,28,,,,,POP,2674,,,,,,recallproc1
RL_JOL D,92,1,3,BlockProc1,Mystery - ?,,5,,,,,DETECTIVE,3595,,,,,,recallproc1
RL_JOL D,92,1,3,BlockProc1,Breakable - ?,,32,,,,,GLASS,2431,,,,,,recallproc1
RL_JOL D,92,2,3,BlockProc2,Hide - Scare,,2,,,,,,,,,,,,StudyProc4
RL_JOL D,92,2,3,BlockProc2,Disintegrate - Disappear,,3,,,,,,,,,,,,StudyProc4
RL_JOL D,92,2,3,BlockProc2,Sheriff - Police,,1,,,,,,,,,,,,StudyProc4
RL_JOL D,92,2,3,BlockProc2,Malt - Chocolate,,5,,,,,,,,,,,,StudyProc4
RL_JOL D,92,2,3,BlockProc2,Essay - Write,,4,,,,,,,,,,,,StudyProc4
RL_JOL D,92,2,3,BlockProc2,Dog - Paw,B,10,,,100,3498,,,,,,,,StudyProc5
RL_JOL D,92,2,3,BlockProc2,Rock - Geology,B,14,,,70,4442,,,,,,,,StudyProc5
RL_JOL D,92,2,3,BlockProc2,Drowsy - Sleep,F,36,,,100,2067,,,,,,,,StudyProc5
RL_JOL D,92,2,3,BlockProc2,Chore - Work,F,34,,,90,2614,,,,,,,,StudyProc5
RL_JOL D,92,2,3,BlockProc2,Talk - Discussion,B,16,,,100,2402,,,,,,,,StudyProc5
RL_JOL D,92,2,3,BlockProc2,Bird - Swan,B,9,,,100,3311,,,,,,,,StudyProc5
RL_JOL D,92,2,3,BlockProc2,News - Editor,B,5,,,100,1942,,,,,,,,StudyProc5
RL_JOL D,92,2,3,BlockProc2,Fantastic - Great,F,30,,,100,3117,,,,,,,,StudyProc5
RL_JOL D,92,2,3,BlockProc2,Money - Wage,B,3,,,100,2525,,,,,,,,StudyProc5
RL_JOL D,92,2,3,BlockProc2,Word - Sentence,F,26,,,90,3252,,,,,,,,StudyProc5
RL_JOL D,92,2,3,BlockProc2,Attire - Clothes,F,38,,,90,4614,,,,,,,,StudyProc5
RL_JOL D,92,2,3,BlockProc2,Out - Way,B,11,,,90,2177,,,,,,,,StudyProc5
RL_JOL D,92,2,3,BlockProc2,Plant - Root,B,8,,,80,2414,,,,,,,,StudyProc5
RL_JOL D,92,2,3,BlockProc2,Cow - Herd,B,17,,,90,3003,,,,,,,,StudyProc5
RL_JOL D,92,2,3,BlockProc2,Latch - Key,F,31,,,70,2831,,,,,,,,StudyProc5
RL_JOL D,92,2,3,BlockProc2,Growth - Height,F,25,,,100,2162,,,,,,,,StudyProc5
RL_JOL D,92,2,3,BlockProc2,Pilot - Plane,F,39,,,100,2249,,,,,,,,StudyProc5
RL_JOL D,92,2,3,BlockProc2,Blaze - Fire,F,40,,,90,2132,,,,,,,,StudyProc5
RL_JOL D,92,2,3,BlockProc2,Attorney - Law,F,29,,,90,2387,,,,,,,,StudyProc5
RL_JOL D,92,2,3,BlockProc2,Wasp - Bug,F,27,,,70,2792,,,,,,,,StudyProc5
RL_JOL D,92,2,3,BlockProc2,Fish - Tuna,B,20,,,80,2253,,,,,,,,StudyProc5
RL_JOL D,92,2,3,BlockProc2,Chili - Hot,F,32,,,70,2391,,,,,,,,StudyProc5
RL_JOL D,92,2,3,BlockProc2,Flower - Orchid,B,19,,,0,3708,,,,,,,,StudyProc5
RL_JOL D,92,2,3,BlockProc2,Famine - Hunger,F,35,,,60,5139,,,,,,,,StudyProc5
RL_JOL D,92,2,3,BlockProc2,Clean - Hygiene,B,12,,,100,3375,,,,,,,,StudyProc5
RL_JOL D,92,2,3,BlockProc2,War - Revolution,B,15,,,0,3308,,,,,,,,StudyProc5
RL_JOL D,92,2,3,BlockProc2,Card - Credit,B,18,,,90,2851,,,,,,,,StudyProc5
RL_JOL D,92,2,3,BlockProc2,Enough - Full,F,21,,,100,1934,,,,,,,,StudyProc5
RL_JOL D,92,2,3,BlockProc2,Water - Bridge,B,13,,,70,8062,,,,,,,,StudyProc5
RL_JOL D,92,2,3,BlockProc2,Cold - Bitter,B,7,,,50,5066,,,,,,,,StudyProc5
RL_JOL D,92,2,3,BlockProc2,Sting - Hornet,B,6,,,0,4610,,,,,,,,StudyProc5
RL_JOL D,92,2,3,BlockProc2,Stench - Smell,F,37,,,70,2596,,,,,,,,StudyProc5
RL_JOL D,92,2,3,BlockProc2,Sip - Drink,F,22,,,80,2569,,,,,,,,StudyProc5
RL_JOL D,92,2,3,BlockProc2,Seize - Take,F,24,,,100,3599,,,,,,,,StudyProc5
RL_JOL D,92,2,3,BlockProc2,Bad - Delinquent,B,1,,,100,2507,,,,,,,,StudyProc5
RL_JOL D,92,2,3,BlockProc2,Cave - Dark,F,23,,,90,2395,,,,,,,,StudyProc5
RL_JOL D,92,2,3,BlockProc2,Division - Math,F,28,,,100,1824,,,,,,,,StudyProc5
RL_JOL D,92,2,3,BlockProc2,Hammer - Chisel,B,4,,,70,3276,,,,,,,,StudyProc5
RL_JOL D,92,2,3,BlockProc2,Racket - Ball,F,33,,,70,2836,,,,,,,,StudyProc5
RL_JOL D,92,2,3,BlockProc2,Stomach - Digestion,B,2,,,0,5216,,,,,,,,StudyProc5
RL_JOL D,92,2,3,BlockProc2,Bee - Honey,S,58,,,,,,,,,,100,2960,StudyProc8
RL_JOL D,92,2,3,BlockProc2,Round - Circle,S,60,,,,,,,,,,100,1966,StudyProc8
RL_JOL D,92,2,3,BlockProc2,Add - Valley,U,77,,,,,,,,,,50,2772,StudyProc8
RL_JOL D,92,2,3,BlockProc2,Assignment - Due,S,41,,,,,,,,,,100,2818,StudyProc8
RL_JOL D,92,2,3,BlockProc2,Site - Location,S,43,,,,,,,,,,100,4421,StudyProc8
RL_JOL D,92,2,3,BlockProc2,Design - Architecture,S,46,,,,,,,,,,90,3527,StudyProc8
RL_JOL D,92,2,3,BlockProc2,Hungry - Park,U,63,,,,,,,,,,50,3261,StudyProc8
RL_JOL D,92,2,3,BlockProc2,Vase - King,U,80,,,,,,,,,,40,2239,StudyProc8
RL_JOL D,92,2,3,BlockProc2,Sacking -Dietary,U,62,,,,,,,,,,40,3330,StudyProc8
RL_JOL D,92,2,3,BlockProc2,Tuck - Allow,U,73,,,,,,,,,,30,2888,StudyProc8
RL_JOL D,92,2,3,BlockProc2,Future - Past,S,56,,,,,,,,,,50,2897,StudyProc8
RL_JOL D,92,2,3,BlockProc2,Hand - Fix,U,70,,,,,,,,,,40,2449,StudyProc8
RL_JOL D,92,2,3,BlockProc2,Accident - Strong,U,75,,,,,,,,,,30,3132,StudyProc8
RL_JOL D,92,2,3,BlockProc2,Cheese - Wine,S,52,,,,,,,,,,30,2251,StudyProc8
RL_JOL D,92,2,3,BlockProc2,Lion - Art,U,74,,,,,,,,,,40,3526,StudyProc8
RL_JOL D,92,2,3,BlockProc2,Liver - Kidney,S,48,,,,,,,,,,70,2925,StudyProc8
RL_JOL D,92,2,3,BlockProc2,Sick - Hide,U,79,,,,,,,,,,40,2404,StudyProc8
RL_JOL D,92,2,3,BlockProc2,Bronze - Artery,U,69,,,,,,,,,,50,3920,StudyProc8
RL_JOL D,92,2,3,BlockProc2,Amount - Number,S,42,,,,,,,,,,80,2639,StudyProc8
RL_JOL D,92,2,3,BlockProc2,Position - Machine,U,71,,,,,,,,,,30,2817,StudyProc8
RL_JOL D,92,2,3,BlockProc2,Sight - Debate,U,68,,,,,,,,,,30,3381,StudyProc8
RL_JOL D,92,2,3,BlockProc2,Foot - Shoe,S,55,,,,,,,,,,90,4050,StudyProc8
RL_JOL D,92,2,3,BlockProc2,End - Begin,S,49,,,,,,,,,,0,3899,StudyProc8
RL_JOL D,92,2,3,BlockProc2,Salad - Lettuce,S,54,,,,,,,,,,70,2754,StudyProc8
RL_JOL D,92,2,3,BlockProc2,Car - Happy,U,72,,,,,,,,,,30,3520,StudyProc8
RL_JOL D,92,2,3,BlockProc2,Would - Cash,U,78,,,,,,,,,,30,2463,StudyProc8
RL_JOL D,92,2,3,BlockProc2,Wind - Blow,S,50,,,,,,,,,,30,2362,StudyProc8
RL_JOL D,92,2,3,BlockProc2,Floor - Discover,U,66,,,,,,,,,,30,2776,StudyProc8
RL_JOL D,92,2,3,BlockProc2,Belt - Soon,U,65,,,,,,,,,,30,2245,StudyProc8
RL_JOL D,92,2,3,BlockProc2,Woman - Lift,U,64,,,,,,,,,,30,4376,StudyProc8
RL_JOL D,92,2,3,BlockProc2,Riddle - Sugar,U,76,,,,,,,,,,40,3708,StudyProc8
RL_JOL D,92,2,3,BlockProc2,Decision - Choise,S,57,,,,,,,,,,70,3739,StudyProc8
RL_JOL D,92,2,3,BlockProc2,Waste - Dump,S,44,,,,,,,,,,70,2416,StudyProc8
RL_JOL D,92,2,3,BlockProc2,Toilet - Bathroom,S,53,,,,,,,,,,70,2597,StudyProc8
RL_JOL D,92,2,3,BlockProc2,Child - Baby,S,59,,,,,,,,,,80,5249,StudyProc8
RL_JOL D,92,2,3,BlockProc2,Clutter - Pusher,U,61,,,,,,,,,,50,2681,StudyProc8
RL_JOL D,92,2,3,BlockProc2,Soda - Pop,S,51,,,,,,,,,,9,5107,StudyProc8
RL_JOL D,92,2,3,BlockProc2,Jury - Trial,S,45,,,,,,,,,,90,2552,StudyProc8
RL_JOL D,92,2,3,BlockProc2,Bar - Grill,S,47,,,,,,,,,,90,2183,StudyProc8
RL_JOL D,92,2,3,BlockProc2,Business - Death,U,67,,,,,,,,,,40,2901,StudyProc8
RL_JOL D,92,2,3,BlockProc2,Magician - Magic,,4,,,,,,,,,,,,StudyProc6
RL_JOL D,92,2,3,BlockProc2,Deaf - Hear,,3,,,,,,,,,,,,StudyProc6
RL_JOL D,92,2,3,BlockProc2,Deciet - Cheat,,1,,,,,,,,,,,,StudyProc6
RL_JOL D,92,2,3,BlockProc2,Mind - Matter,,2,,,,,,,,,,,,StudyProc6
RL_JOL D,92,2,3,BlockProc2,Contest - Competition,,5,,,,,,,,,,,,StudyProc6
RL_JOL D,92,2,3,BlockProc2,Bird - ?,,9,,,,,,,CAGE,,,,,recallproc2
RL_JOL D,92,2,3,BlockProc2,Fantastic - ?,,30,,,,,,,EXCELLENT,,,,,recallproc2
RL_JOL D,92,2,3,BlockProc2,Growth - ?,,25,,,,,,,HEIGHT,,,,,recallproc2
RL_JOL D,92,2,3,BlockProc2,Talk - ?,,16,,,,,,,LISTEN,,,,,recallproc2
RL_JOL D,92,2,3,BlockProc2,Out - ?,,11,,,,,,,AWAY,,,,,recallproc2
RL_JOL D,92,2,3,BlockProc2,Assignment - ?,,41,,,,,,,DUE,,,,,recallproc2
RL_JOL D,92,2,3,BlockProc2,End - ?,,49,,,,,,,BGIN,,,,,recallproc2
RL_JOL D,92,2,3,BlockProc2,Word - ?,,26,,,,,,,PUZZLE,,,,,recallproc2
RL_JOL D,92,2,3,BlockProc2,Chili - ?,,32,,,,,,,HOTT,,,,,recallproc2
RL_JOL D,92,2,3,BlockProc2,Enough - ?,,21,,,,,,,LESS,,,,,recallproc2
RL_JOL D,92,2,3,BlockProc2,Famine - ?,,35,,,,,,,HUNGER,,,,,recallproc2
RL_JOL D,92,2,3,BlockProc2,Waste - ?,,44,,,,,,,GARBAGE,,,,,recallproc2
RL_JOL D,92,2,3,BlockProc2,Child - ?,,59,,,,,,,WHISPER,,,,,recallproc2
RL_JOL D,92,2,3,BlockProc2,Sight - ?,,68,,,,,,,SEE,,,,,recallproc2
RL_JOL D,92,2,3,BlockProc2,Hammer - ?,,4,,,,,,,COIL,,,,,recallproc2
RL_JOL D,92,2,3,BlockProc2,Sting - ?,,6,,,,,,,HORNET,,,,,recallproc2
RL_JOL D,92,2,3,BlockProc2,Clutter - ?,,61,,,,,,,MESS,,,,,recallproc2
RL_JOL D,92,2,3,BlockProc2,Site - ?,,43,,,,,,,LOCATIO,,,,,recallproc2
RL_JOL D,92,2,3,BlockProc2,Pilot - ?,,39,,,,,,,AIRCRAFT,,,,,recallproc2
RL_JOL D,92,2,3,BlockProc2,Add - ?,,77,,,,,,,SUBTRACT,,,,,recallproc2
RL_JOL D,92,2,3,BlockProc2,Seize - ?,,24,,,,,,,TAKE,,,,,recallproc2
RL_JOL D,92,2,3,BlockProc2,Tuck - ?,,73,,,,,,,GO,,,,,recallproc2
RL_JOL D,92,2,3,BlockProc2,Future - ?,,56,,,,,,,PAST,,,,,recallproc2
RL_JOL D,92,2,3,BlockProc2,War - ?,,15,,,,,,,END,,,,,recallproc2
RL_JOL D,92,2,3,BlockProc2,Hand - ?,,70,,,,,,,FINGER,,,,,recallproc2
RL_JOL D,92,2,3,BlockProc2,Cow - ?,,17,,,,,,,MEAT,,,,,recallproc2
RL_JOL D,92,2,3,BlockProc2,Foot - ?,,55,,,,,,,SHOE,,,,,recallproc2
RL_JOL D,92,2,3,BlockProc2,Money - ?,,3,,,,,,,GREEN,,,,,recallproc2
RL_JOL D,92,2,3,BlockProc2,Blaze - ?,,40,,,,,,,FIRE,,,,,recallproc2
RL_JOL D,92,2,3,BlockProc2,Position - ?,,71,,,,,,,PLACE,,,,,recallproc2
RL_JOL D,92,2,3,BlockProc2,Bee - ?,,58,,,,,,,STING,,,,,recallproc2
RL_JOL D,92,2,3,BlockProc2,Clean - ?,,12,,,,,,,HYGIEN,,,,,recallproc2
RL_JOL D,92,2,3,BlockProc2,Decision - ?,,57,,,,,,,THINKING,,,,,recallproc2
RL_JOL D,92,2,3,BlockProc2,News - ?,,5,,,,,,,REPORTER,,,,,recallproc2
RL_JOL D,92,2,3,BlockProc2,Flower - ?,,19,,,,,,,ORCHID,,,,,recallproc2
RL_JOL D,92,2,3,BlockProc2,Attire - ?,,38,,,,,,,CLOTHES,,,,,recallproc2
RL_JOL D,92,2,3,BlockProc2,Cave - ?,,23,,,,,,,DARK,,,,,recallproc2
RL_JOL D,92,2,3,BlockProc2,Belt - ?,,65,,,,,,,WAIST,,,,,recallproc2
RL_JOL D,92,2,3,BlockProc2,Dog - ?,,10,,,,,,,CAT,,,,,recallproc2
RL_JOL D,92,2,3,BlockProc2,Business - ?,,67,,,,,,,FIRM,,,,,recallproc2
RL_JOL D,92,2,3,BlockProc2,Chore - ?,,34,,,,,,,DISH,,,,,recallproc2
RL_JOL D,92,2,3,BlockProc2,Water - ?,,13,,,,,,,OCEAN,,,,,recallproc2
RL_JOL D,92,2,3,BlockProc2,Division - ?,,28,,,,,,,LINE,,,,,recallproc2
RL_JOL D,92,2,3,BlockProc2,Amount - ?,,42,,,,,,,PRICE,,,,,recallproc2
RL_JOL D,92,2,3,BlockProc2,Accident - ?,,75,,,,,,,CAR,,,,,recallproc2
RL_JOL D,92,2,3,BlockProc2,Design - ?,,46,,,,,,,ARCITECTURE,,,,,recallproc2
RL_JOL D,92,2,3,BlockProc2,Riddle - ?,,76,,,,,,,RADDLE,,,,,recallproc2
RL_JOL D,92,2,3,BlockProc2,Sip - ?,,22,,,,,,,DRINK,,,,,recallproc2
RL_JOL D,92,2,3,BlockProc2,Bar - ?,,47,,,,,,,CHOCOLATE,,,,,recallproc2
RL_JOL D,92,2,3,BlockProc2,Liver - ?,,48,,,,,,,KIDNEY,,,,,recallproc2
