ExperimentName,Subject,Block,list,Procedure[Block],cue_target,Direction,ListNum,pword3.RESP,pword3.RT,pword5.RESP,pword5.RT,Rword1.RESP,Rword1.RT,Rword2.RESP,pword8.RESP,pword8.RT,pword9.RESP,pword9.RT,pword10.RESP,pword10.RT,Procedure[Trial]
IS_JOL A,41,1,,BlockProc1,Fashion-Model,,10,,,,,,,,,,,,,,Practice1
IS_JOL A,41,1,,BlockProc1,Chime-Music,,8,,,,,,,,,,,,,,Practice1
IS_JOL A,41,1,,BlockProc1,Ham-Bone,,3,,,,,,,,,,,,,,Practice1
IS_JOL A,41,1,,BlockProc1,Chocolate-Bar,,7,,,,,,,,,,,,,,Practice1
IS_JOL A,41,1,,BlockProc1,Deaf-Mute,,2,,,,,,,,,,,,,,Practice1
IS_JOL A,41,1,,BlockProc1,Disbelieve-Skeptic,,6,,,,,,,,,,,,,,Practice1
IS_JOL A,41,1,,BlockProc1,Hinge-Swing,,5,,,,,,,,,,,,,,Practice1
IS_JOL A,41,1,,BlockProc1,Paddle-Row,,4,,,,,,,,,,,,,,Practice1
IS_JOL A,41,1,,BlockProc1,Behavior-Social,,9,,,,,,,,,,,,,,Practice1
IS_JOL A,41,1,,BlockProc1,Aardvark-Zoo,,1,,,,,,,,,,,,,,Practice1
IS_JOL A,41,1,3,BlockProc1,Snow - Ice,,3,,,,,,,,,,,,,,StudyProc1
IS_JOL A,41,1,3,BlockProc1,Curtain - Drapes,,2,,,,,,,,,,,,,,StudyProc1
IS_JOL A,41,1,3,BlockProc1,Shrimp - Fish,,4,,,,,,,,,,,,,,StudyProc1
IS_JOL A,41,1,3,BlockProc1,Haircut-Scissors,,1,,,,,,,,,,,,,,StudyProc1
IS_JOL A,41,1,3,BlockProc1,Member - Group,,5,,,,,,,,,,,,,,StudyProc1
IS_JOL A,41,1,3,BlockProc1,Sugar - Riddle,U,76,20,14423,,,,,,,,,,,,StudyProc3
IS_JOL A,41,1,3,BlockProc1,Hide - Sick,U,79,70,21975,,,,,,,,,,,,StudyProc3
IS_JOL A,41,1,3,BlockProc1,Debate - Sight,U,68,15,21122,,,,,,,,,,,,StudyProc3
IS_JOL A,41,1,3,BlockProc1,Strong - Accident,U,75,65,28847,,,,,,,,,,,,StudyProc3
IS_JOL A,41,1,3,BlockProc1,Valley - Add,U,77,10,23664,,,,,,,,,,,,StudyProc3
IS_JOL A,41,1,3,BlockProc1,Machine - Position,U,71,50,24974,,,,,,,,,,,,StudyProc3
IS_JOL A,41,1,3,BlockProc1,Soon - Belt,U,65,10,25678,,,,,,,,,,,,StudyProc3
IS_JOL A,41,1,3,BlockProc1,Discover - Floor,U,66,20,30161,,,,,,,,,,,,StudyProc3
IS_JOL A,41,1,3,BlockProc1,Death - Business,U,67,70,23973,,,,,,,,,,,,StudyProc3
IS_JOL A,41,1,3,BlockProc1,Begin - End,S,49,80,14615,,,,,,,,,,,,StudyProc3
IS_JOL A,41,1,3,BlockProc1,Art - Lion,U,74,10,22447,,,,,,,,,,,,StudyProc3
IS_JOL A,41,1,3,BlockProc1,Dump - Waste,S,44,70,23263,,,,,,,,,,,,StudyProc3
IS_JOL A,41,1,3,BlockProc1,Choice - Decision,S,57,75,25421,,,,,,,,,,,,StudyProc3
IS_JOL A,41,1,3,BlockProc1,Grill - Bar,S,47,80,23643,,,,,,,,,,,,StudyProc3
IS_JOL A,41,1,3,BlockProc1,Past - Future,S,56,90,17105,,,,,,,,,,,,StudyProc3
IS_JOL A,41,1,3,BlockProc1,Fix - Hand,U,70,20,18532,,,,,,,,,,,,StudyProc3
IS_JOL A,41,1,3,BlockProc1,Number - Amount,S,42,40,22220,,,,,,,,,,,,StudyProc3
IS_JOL A,41,1,3,BlockProc1,King - Vase,U,80,10,16813,,,,,,,,,,,,StudyProc3
IS_JOL A,41,1,3,BlockProc1,Shoe - Foot,S,55,80,34243,,,,,,,,,,,,StudyProc3
IS_JOL A,41,1,3,BlockProc1,Dietary - Slacking,U,62,8,19568,,,,,,,,,,,,StudyProc3
IS_JOL A,41,1,3,BlockProc1,Kidney - Liver,S,48,60,27461,,,,,,,,,,,,StudyProc3
IS_JOL A,41,1,3,BlockProc1,Pop - Soda,S,51,75,29439,,,,,,,,,,,,StudyProc3
IS_JOL A,41,1,3,BlockProc1,Cash - Would,U,78,15,17833,,,,,,,,,,,,StudyProc3
IS_JOL A,41,1,3,BlockProc1,Honey - Bee,S,58,90,25141,,,,,,,,,,,,StudyProc3
IS_JOL A,41,1,3,BlockProc1,Park - Hungry,U,63,30,22783,,,,,,,,,,,,StudyProc3
IS_JOL A,41,1,3,BlockProc1,Due - Assignment,S,41,70,22713,,,,,,,,,,,,StudyProc3
IS_JOL A,41,1,3,BlockProc1,Location - Site,S,43,60,20141,,,,,,,,,,,,StudyProc3
IS_JOL A,41,1,3,BlockProc1,Happy - Car,U,72,25,14347,,,,,,,,,,,,StudyProc3
IS_JOL A,41,1,3,BlockProc1,Circle - Round,S,60,80,24999,,,,,,,,,,,,StudyProc3
IS_JOL A,41,1,3,BlockProc1,Bathroom - Toilet,S,53,70,22566,,,,,,,,,,,,StudyProc3
IS_JOL A,41,1,3,BlockProc1,Artery - Bronze,U,69,15,20601,,,,,,,,,,,,StudyProc3
IS_JOL A,41,1,3,BlockProc1,Trial - Jury,S,45,80,20644,,,,,,,,,,,,StudyProc3
IS_JOL A,41,1,3,BlockProc1,Architecture - Design,S,46,80,21885,,,,,,,,,,,,StudyProc3
IS_JOL A,41,1,3,BlockProc1,Lettuce - Salad,S,54,75,23796,,,,,,,,,,,,StudyProc3
IS_JOL A,41,1,3,BlockProc1,Allow - Tuck,U,73,8,25068,,,,,,,,,,,,StudyProc3
IS_JOL A,41,1,3,BlockProc1,Baby - Child,S,59,85,21737,,,,,,,,,,,,StudyProc3
IS_JOL A,41,1,3,BlockProc1,Pusher - Clutter,U,61,4,19838,,,,,,,,,,,,StudyProc3
IS_JOL A,41,1,3,BlockProc1,Wine - Cheese,S,52,85,25672,,,,,,,,,,,,StudyProc3
IS_JOL A,41,1,3,BlockProc1,Lift - Woman,U,64,20,15724,,,,,,,,,,,,StudyProc3
IS_JOL A,41,1,3,BlockProc1,Blow - Wind,S,50,60,26870,,,,,,,,,,,,StudyProc3
IS_JOL A,41,1,3,BlockProc1,Fire - Blaze,B,40,,,,,,,,,,30,24882,,,StudyProc7
IS_JOL A,41,1,3,BlockProc1,Digestion - Stomach,F,2,,,,,,,,,,60,19894,,,StudyProc7
IS_JOL A,41,1,3,BlockProc1,Clothes - Attire,B,38,,,,,,,,,,50,23670,,,StudyProc7
IS_JOL A,41,1,3,BlockProc1,Math - Division,B,28,,,,,,,,,,80,21900,,,StudyProc7
IS_JOL A,41,1,3,BlockProc1,Take - Seize,B,24,,,,,,,,,,30,30362,,,StudyProc7
IS_JOL A,41,1,3,BlockProc1,Ball - Racket,B,33,,,,,,,,,,50,33189,,,StudyProc7
IS_JOL A,41,1,3,BlockProc1,Orchid - Flower,F,19,,,,,,,,,,75,33293,,,StudyProc7
IS_JOL A,41,1,3,BlockProc1,Root - Plant,F,8,,,,,,,,,,60,27728,,,StudyProc7
IS_JOL A,41,1,3,BlockProc1,Drink - Sip,B,22,,,,,,,,,,45,29935,,,StudyProc7
IS_JOL A,41,1,3,BlockProc1,Work - Chore,B,34,,,,,,,,,,40,28260,,,StudyProc7
IS_JOL A,41,1,3,BlockProc1,Plane - Pilot,B,39,,,,,,,,,,70,34206,,,StudyProc7
IS_JOL A,41,1,3,BlockProc1,Bitter - Cold,F,7,,,,,,,,,,80,29780,,,StudyProc7
IS_JOL A,41,1,3,BlockProc1,Herd - Cow,F,17,,,,,,,,,,50,17551,,,StudyProc7
IS_JOL A,41,1,3,BlockProc1,Key - Latch,B,31,,,,,,,,,,60,28703,,,StudyProc7
IS_JOL A,41,1,3,BlockProc1,Wage - Money,F,3,,,,,,,,,,50,25454,,,StudyProc7
IS_JOL A,41,1,3,BlockProc1,Credit - Card,F,18,,,,,,,,,,80,36443,,,StudyProc7
IS_JOL A,41,1,3,BlockProc1,Smell - Stench,B,37,,,,,,,,,,60,29925,,,StudyProc7
IS_JOL A,41,1,3,BlockProc1,Editor - News,F,5,,,,,,,,,,40,30506,,,StudyProc7
IS_JOL A,41,1,3,BlockProc1,Great - Fantastic,B,30,,,,,,,,,,0,16184,,,StudyProc7
IS_JOL A,41,1,3,BlockProc1,Hygiene - Clean,F,12,,,,,,,,,,55,27272,,,StudyProc7
IS_JOL A,41,1,3,BlockProc1,Tuna - Fish,F,20,,,,,,,,,,45,34586,,,StudyProc7
IS_JOL A,41,1,3,BlockProc1,Dark - Cave,B,23,,,,,,,,,,30,35113,,,StudyProc7
IS_JOL A,41,1,3,BlockProc1,Bridge - Water,F,13,,,,,,,,,,50,29689,,,StudyProc7
IS_JOL A,41,1,3,BlockProc1,Revolution - War,F,15,,,,,,,,,,30,31728,,,StudyProc7
IS_JOL A,41,1,3,BlockProc1,Geology - Rock,F,14,,,,,,,,,,60,18651,,,StudyProc7
IS_JOL A,41,1,3,BlockProc1,Hornet - Sting,F,6,,,,,,,,,,45,34055,,,StudyProc7
IS_JOL A,41,1,3,BlockProc1,Chisel - Hammer,F,4,,,,,,,,,,20,20139,,,StudyProc7
IS_JOL A,41,1,3,BlockProc1,Law - Attorney,B,29,,,,,,,,,,50,21200,,,StudyProc7
IS_JOL A,41,1,3,BlockProc1,Sleep - Drowsy,B,36,,,,,,,,,,40,24475,,,StudyProc7
IS_JOL A,41,1,3,BlockProc1,Hot - Chili,B,32,,,,,,,,,,20,20199,,,StudyProc7
IS_JOL A,41,1,3,BlockProc1,Height - Growth,B,25,,,,,,,,,,30,26659,,,StudyProc7
IS_JOL A,41,1,3,BlockProc1,Discussion - Talk,F,16,,,,,,,,,,50,15999,,,StudyProc7
IS_JOL A,41,1,3,BlockProc1,Hunger - Famine,B,35,,,,,,,,,,40,20775,,,StudyProc7
IS_JOL A,41,1,3,BlockProc1,Paw - Dog,F,10,,,,,,,,,,70,12643,,,StudyProc7
IS_JOL A,41,1,3,BlockProc1,Sentence - Word,B,26,,,,,,,,,,55,21092,,,StudyProc7
IS_JOL A,41,1,3,BlockProc1,Way - Out,F,11,,,,,,,,,,30,13715,,,StudyProc7
IS_JOL A,41,1,3,BlockProc1,Delinquent - Bad,F,1,,,,,,,,,,20,34288,,,StudyProc7
IS_JOL A,41,1,3,BlockProc1,Full - Enough,B,21,,,,,,,,,,10,23250,,,StudyProc7
IS_JOL A,41,1,3,BlockProc1,Bug - Wasp,B,27,,,,,,,,,,40,21673,,,StudyProc7
IS_JOL A,41,1,3,BlockProc1,Swan - Bird,F,9,,,,,,,,,,30,16792,,,StudyProc7
IS_JOL A,41,1,3,BlockProc1,Geese - Goose,,1,,,,,,,,,,,,,,StudyProc2
IS_JOL A,41,1,3,BlockProc1,Catcher - Baseball,,4,,,,,,,,,,,,,,StudyProc2
IS_JOL A,41,1,3,BlockProc1,Friendliness - Nice,,3,,,,,,,,,,,,,,StudyProc2
IS_JOL A,41,1,3,BlockProc1,Grab - Take,,2,,,,,,,,,,,,,,StudyProc2
IS_JOL A,41,1,3,BlockProc1,Trees - Green,,5,,,,,,,,,,,,,,StudyProc2
IS_JOL A,41,1,3,BlockProc1,Baby - ?,,59,,,,,child,9164,,,,,,,,recallproc1
IS_JOL A,41,1,3,BlockProc1,Bridge - ?,,13,,,,,water,2324,,,,,,,,recallproc1
IS_JOL A,41,1,3,BlockProc1,Sleep - ?,,36,,,,,tired,19603,,,,,,,,recallproc1
IS_JOL A,41,1,3,BlockProc1,Herd - ?,,17,,,,,cow,2767,,,,,,,,recallproc1
IS_JOL A,41,1,3,BlockProc1,Number - ?,,42,,,,,amount,6541,,,,,,,,recallproc1
IS_JOL A,41,1,3,BlockProc1,Pusher - ?,,61,,,,,leader,34536,,,,,,,,recallproc1
IS_JOL A,41,1,3,BlockProc1,Hygiene - ?,,12,,,,,clean,5432,,,,,,,,recallproc1
IS_JOL A,41,1,3,BlockProc1,Bathroom - ?,,53,,,,,toilet,3160,,,,,,,,recallproc1
IS_JOL A,41,1,3,BlockProc1,Dietary - ?,,62,,,,,meal,11734,,,,,,,,recallproc1
IS_JOL A,41,1,3,BlockProc1,Soon - ?,,65,,,,,latert,14556,,,,,,,,recallproc1
IS_JOL A,41,1,3,BlockProc1,Fix - ?,,70,,,,,hammer,35167,,,,,,,,recallproc1
IS_JOL A,41,1,3,BlockProc1,Drink - ?,,22,,,,,soda,14198,,,,,,,,recallproc1
IS_JOL A,41,1,3,BlockProc1,Hunger - ?,,35,,,,,famine,12440,,,,,,,,recallproc1
IS_JOL A,41,1,3,BlockProc1,Happy - ?,,72,,,,,joyful,21817,,,,,,,,recallproc1
IS_JOL A,41,1,3,BlockProc1,Discussion - ?,,16,,,,,tlk,7515,,,,,,,,recallproc1
IS_JOL A,41,1,3,BlockProc1,Shoe - ?,,55,,,,,foot,2750,,,,,,,,recallproc1
IS_JOL A,41,1,3,BlockProc1,Machine - ?,,71,,,,,assignment,27092,,,,,,,,recallproc1
IS_JOL A,41,1,3,BlockProc1,Digestion - ?,,2,,,,,stomach,3734,,,,,,,,recallproc1
IS_JOL A,41,1,3,BlockProc1,Trial - ?,,45,,,,,jury,4348,,,,,,,,recallproc1
IS_JOL A,41,1,3,BlockProc1,Hot - ?,,32,,,,,chili,3081,,,,,,,,recallproc1
IS_JOL A,41,1,3,BlockProc1,Plane - ?,,39,,,,,pilot,2842,,,,,,,,recallproc1
IS_JOL A,41,1,3,BlockProc1,Cash - ?,,78,,,,,money,2773,,,,,,,,recallproc1
IS_JOL A,41,1,3,BlockProc1,Geology - ?,,14,,,,,rock,2378,,,,,,,,recallproc1
IS_JOL A,41,1,3,BlockProc1,Dump - ?,,44,,,,,waste,3351,,,,,,,,recallproc1
IS_JOL A,41,1,3,BlockProc1,Honey - ?,,58,,,,,bee,1837,,,,,,,,recallproc1
IS_JOL A,41,1,3,BlockProc1,Art - ?,,74,,,,,design,36129,,,,,,,,recallproc1
IS_JOL A,41,1,3,BlockProc1,Valley - ?,,77,,,,,herd,25896,,,,,,,,recallproc1
IS_JOL A,41,1,3,BlockProc1,Hornet - ?,,6,,,,,sting,4386,,,,,,,,recallproc1
IS_JOL A,41,1,3,BlockProc1,Sentence - ?,,26,,,,,word,2710,,,,,,,,recallproc1
IS_JOL A,41,1,3,BlockProc1,Root - ?,,8,,,,,plant,3790,,,,,,,,recallproc1
IS_JOL A,41,1,3,BlockProc1,Full - ?,,21,,,,,enough,4945,,,,,,,,recallproc1
IS_JOL A,41,1,3,BlockProc1,Tuna - ?,,20,,,,,fish,2142,,,,,,,,recallproc1
IS_JOL A,41,1,3,BlockProc1,Artery - ?,,69,,,,,tree,27213,,,,,,,,recallproc1
IS_JOL A,41,1,3,BlockProc1,Kidney - ?,,48,,,,,liver,3777,,,,,,,,recallproc1
IS_JOL A,41,1,3,BlockProc1,Take - ?,,24,,,,,grab,7181,,,,,,,,recallproc1
IS_JOL A,41,1,3,BlockProc1,Ball - ?,,33,,,,,racket,3726,,,,,,,,recallproc1
IS_JOL A,41,1,3,BlockProc1,Hide - ?,,79,,,,,seize,25684,,,,,,,,recallproc1
IS_JOL A,41,1,3,BlockProc1,Math - ?,,28,,,,,division,5679,,,,,,,,recallproc1
IS_JOL A,41,1,3,BlockProc1,Great - ?,,30,,,,,amazing,13637,,,,,,,,recallproc1
IS_JOL A,41,1,3,BlockProc1,Way - ?,,11,,,,,out,8766,,,,,,,,recallproc1
IS_JOL A,41,1,3,BlockProc1,Pop - ?,,51,,,,,soda,2206,,,,,,,,recallproc1
IS_JOL A,41,1,3,BlockProc1,Sugar - ?,,76,,,,,pill,9290,,,,,,,,recallproc1
IS_JOL A,41,1,3,BlockProc1,Dark - ?,,23,,,,,cave,2797,,,,,,,,recallproc1
IS_JOL A,41,1,3,BlockProc1,Credit - ?,,18,,,,,card,2017,,,,,,,,recallproc1
IS_JOL A,41,1,3,BlockProc1,Blow - ?,,50,,,,,wind,2438,,,,,,,,recallproc1
IS_JOL A,41,1,3,BlockProc1,Fire - ?,,40,,,,,blaze,3289,,,,,,,,recallproc1
IS_JOL A,41,1,3,BlockProc1,Death - ?,,67,,,,,finish,27065,,,,,,,,recallproc1
IS_JOL A,41,1,3,BlockProc1,Revolution - ?,,15,,,,,war,1963,,,,,,,,recallproc1
IS_JOL A,41,1,3,BlockProc1,Work - ?,,34,,,,,chore,4242,,,,,,,,recallproc1
IS_JOL A,41,1,3,BlockProc1,Bitter - ?,,7,,,,,cold,1819,,,,,,,,recallproc1
IS_JOL A,41,1,3,BlockProc1,Past - ?,,56,,,,,future,2896,,,,,,,,recallproc1
IS_JOL A,41,1,3,BlockProc1,Paw - ?,,10,,,,,dog,3264,,,,,,,,recallproc1
IS_JOL A,41,1,3,BlockProc1,Debate - ?,,68,,,,,discussion,12401,,,,,,,,recallproc1
IS_JOL A,41,1,3,BlockProc1,Due - ?,,41,,,,,assignment,3436,,,,,,,,recallproc1
IS_JOL A,41,1,3,BlockProc1,Lettuce - ?,,54,,,,,salad,2383,,,,,,,,recallproc1
IS_JOL A,41,1,3,BlockProc1,Editor - ?,,5,,,,,news,2508,,,,,,,,recallproc1
IS_JOL A,41,1,3,BlockProc1,Park - ?,,63,,,,,hungry,15133,,,,,,,,recallproc1
IS_JOL A,41,1,3,BlockProc1,Circle - ?,,60,,,,,round,5047,,,,,,,,recallproc1
IS_JOL A,41,1,3,BlockProc1,Wine - ?,,52,,,,,cheese,2112,,,,,,,,recallproc1
IS_JOL A,41,1,3,BlockProc1,Bug - ?,,27,,,,,wasp,4160,,,,,,,,recallproc1
IS_JOL A,41,1,3,BlockProc1,King - ?,,80,,,,,green,6125,,,,,,,,recallproc1
IS_JOL A,41,1,3,BlockProc1,Grill - ?,,47,,,,,bar,2145,,,,,,,,recallproc1
IS_JOL A,41,1,3,BlockProc1,Clothes - ?,,38,,,,,attire,2880,,,,,,,,recallproc1
IS_JOL A,41,1,3,BlockProc1,Choice - ?,,57,,,,,decision,5345,,,,,,,,recallproc1
IS_JOL A,41,1,3,BlockProc1,Swan - ?,,9,,,,,bird,2205,,,,,,,,recallproc1
IS_JOL A,41,1,3,BlockProc1,Law - ?,,29,,,,,attorney,10417,,,,,,,,recallproc1
IS_JOL A,41,1,3,BlockProc1,Strong - ?,,75,,,,,weak,8013,,,,,,,,recallproc1
IS_JOL A,41,1,3,BlockProc1,Delinquent - ?,,1,,,,,bad,3620,,,,,,,,recallproc1
IS_JOL A,41,1,3,BlockProc1,Discover - ?,,66,,,,,find,3671,,,,,,,,recallproc1
IS_JOL A,41,1,3,BlockProc1,Begin - ?,,49,,,,,end,2023,,,,,,,,recallproc1
IS_JOL A,41,1,3,BlockProc1,Allow - ?,,73,,,,,park,4779,,,,,,,,recallproc1
IS_JOL A,41,1,3,BlockProc1,Orchid - ?,,19,,,,,flower,2407,,,,,,,,recallproc1
IS_JOL A,41,1,3,BlockProc1,Location - ?,,43,,,,,site,2955,,,,,,,,recallproc1
IS_JOL A,41,1,3,BlockProc1,Chisel - ?,,4,,,,,hammer,3881,,,,,,,,recallproc1
IS_JOL A,41,1,3,BlockProc1,Lift - ?,,64,,,,,strong,3753,,,,,,,,recallproc1
IS_JOL A,41,1,3,BlockProc1,Height - ?,,25,,,,,growth,5526,,,,,,,,recallproc1
IS_JOL A,41,1,3,BlockProc1,Wage - ?,,3,,,,,money,2371,,,,,,,,recallproc1
IS_JOL A,41,1,3,BlockProc1,Architecture - ?,,46,,,,,design,4480,,,,,,,,recallproc1
IS_JOL A,41,1,3,BlockProc1,Smell - ?,,37,,,,,stench,2152,,,,,,,,recallproc1
IS_JOL A,41,1,3,BlockProc1,Key - ?,,31,,,,,latch,2895,,,,,,,,recallproc1
IS_JOL A,41,2,3,BlockProc2,Hide - Scare,,2,,,,,,,,,,,,,,StudyProc4
IS_JOL A,41,2,3,BlockProc2,Disintegrate - Disappear,,3,,,,,,,,,,,,,,StudyProc4
IS_JOL A,41,2,3,BlockProc2,Malt - Chocolate,,5,,,,,,,,,,,,,,StudyProc4
IS_JOL A,41,2,3,BlockProc2,Sheriff - Police,,1,,,,,,,,,,,,,,StudyProc4
IS_JOL A,41,2,3,BlockProc2,Essay - Write,,4,,,,,,,,,,,,,,StudyProc4
IS_JOL A,41,2,3,BlockProc2,Maze - Election,U,64,,,,,,,,,,,,20,13272,StudyProc8
IS_JOL A,41,2,3,BlockProc2,Rights - Equal,S,42,,,,,,,,,,,,50,11407,StudyProc8
IS_JOL A,41,2,3,BlockProc2,Listen - Fiction,U,69,,,,,,,,,,,,20,11459,StudyProc8
IS_JOL A,41,2,3,BlockProc2,Name - Hate,U,72,,,,,,,,,,,,10,7365,StudyProc8
IS_JOL A,41,2,3,BlockProc2,Water - Drink,S,48,,,,,,,,,,,,70,6335,StudyProc8
IS_JOL A,41,2,3,BlockProc2,Tantrum - Temper,S,59,,,,,,,,,,,,70,7250,StudyProc8
IS_JOL A,41,2,3,BlockProc2,Mirror - Children,U,79,,,,,,,,,,,,0,7480,StudyProc8
IS_JOL A,41,2,3,BlockProc2,Both - Ounce,U,77,,,,,,,,,,,,10,14869,StudyProc8
IS_JOL A,41,2,3,BlockProc2,Shell - Shake,U,68,,,,,,,,,,,,10,10843,StudyProc8
IS_JOL A,41,2,3,BlockProc2,Loan - Sign,U,76,,,,,,,,,,,,10,4950,StudyProc8
IS_JOL A,41,2,3,BlockProc2,Keys - Joke,U,70,,,,,,,,,,,,20,5394,StudyProc8
IS_JOL A,41,2,3,BlockProc2,Give - Steak,U,63,,,,,,,,,,,,6,7812,StudyProc8
IS_JOL A,41,2,3,BlockProc2,Own - Have,S,58,,,,,,,,,,,,80,8875,StudyProc8
IS_JOL A,41,2,3,BlockProc2,Wrist - Bracelet,S,45,,,,,,,,,,,,90,6295,StudyProc8
IS_JOL A,41,2,3,BlockProc2,Razor - Shave,S,41,,,,,,,,,,,,80,9228,StudyProc8
IS_JOL A,41,2,3,BlockProc2,Temperature - Morning,U,78,,,,,,,,,,,,10,12680,StudyProc8
IS_JOL A,41,2,3,BlockProc2,Candle - Wax,S,44,,,,,,,,,,,,70,9368,StudyProc8
IS_JOL A,41,2,3,BlockProc2,Justice - Maroon,U,61,,,,,,,,,,,,10,21263,StudyProc8
IS_JOL A,41,2,3,BlockProc2,Phone - Communicatio,S,54,,,,,,,,,,,,80,9071,StudyProc8
IS_JOL A,41,2,3,BlockProc2,Fuzzy - Bang,U,73,,,,,,,,,,,,3,6179,StudyProc8
IS_JOL A,41,2,3,BlockProc2,Lease - Toil,U,75,,,,,,,,,,,,2,4580,StudyProc8
IS_JOL A,41,2,3,BlockProc2,Moat - Clear,U,74,,,,,,,,,,,,2,6872,StudyProc8
IS_JOL A,41,2,3,BlockProc2,Element - Carbon,S,46,,,,,,,,,,,,90,8293,StudyProc8
IS_JOL A,41,2,3,BlockProc2,Truth - Lie,S,53,,,,,,,,,,,,90,4240,StudyProc8
IS_JOL A,41,2,3,BlockProc2,Main - Scar,U,80,,,,,,,,,,,,3,4641,StudyProc8
IS_JOL A,41,2,3,BlockProc2,Earth - Ground,S,49,,,,,,,,,,,,50,7146,StudyProc8
IS_JOL A,41,2,3,BlockProc2,Cake - Clothes,U,71,,,,,,,,,,,,60,7140,StudyProc8
IS_JOL A,41,2,3,BlockProc2,Loud - Noise,S,57,,,,,,,,,,,,60,11415,StudyProc8
IS_JOL A,41,2,3,BlockProc2,Sun - Tan,S,60,,,,,,,,,,,,90,8586,StudyProc8
IS_JOL A,41,2,3,BlockProc2,Vehicle - Charm,U,65,,,,,,,,,,,,4,4225,StudyProc8
IS_JOL A,41,2,3,BlockProc2,Mason - Jar,S,43,,,,,,,,,,,,80,6387,StudyProc8
IS_JOL A,41,2,3,BlockProc2,Flea - Tick,S,56,,,,,,,,,,,,50,5221,StudyProc8
IS_JOL A,41,2,3,BlockProc2,Rod - Reel,S,55,,,,,,,,,,,,60,6726,StudyProc8
IS_JOL A,41,2,3,BlockProc2,Stretch - Cloth,U,62,,,,,,,,,,,,2,12881,StudyProc8
IS_JOL A,41,2,3,BlockProc2,Dry - Wet,S,51,,,,,,,,,,,,90,4776,StudyProc8
IS_JOL A,41,2,3,BlockProc2,Gone - Away,S,47,,,,,,,,,,,,80,5668,StudyProc8
IS_JOL A,41,2,3,BlockProc2,Alone - Lonely,S,50,,,,,,,,,,,,80,5371,StudyProc8
IS_JOL A,41,2,3,BlockProc2,Meat - Obtain,U,66,,,,,,,,,,,,2,6590,StudyProc8
IS_JOL A,41,2,3,BlockProc2,Crackle - Able,U,67,,,,,,,,,,,,4,5991,StudyProc8
IS_JOL A,41,2,3,BlockProc2,Safety - Seatbelt,S,52,,,,,,,,,,,,80,5913,StudyProc8
IS_JOL A,41,2,3,BlockProc2,Sleep - Nap,B,39,,,60,8410,,,,,,,,,,StudyProc5
IS_JOL A,41,2,3,BlockProc2,Dine - Eat,F,16,,,80,6736,,,,,,,,,,StudyProc5
IS_JOL A,41,2,3,BlockProc2,Pop - Balloon,B,28,,,80,6444,,,,,,,,,,StudyProc5
IS_JOL A,41,2,3,BlockProc2,Litter - Trash,F,8,,,80,7051,,,,,,,,,,StudyProc5
IS_JOL A,41,2,3,BlockProc2,Money - Banker,B,37,,,60,11553,,,,,,,,,,StudyProc5
IS_JOL A,41,2,3,BlockProc2,Thread - Thimble,B,26,,,40,2719,,,,,,,,,,StudyProc5
IS_JOL A,41,2,3,BlockProc2,Bird - Penguin,B,24,,,70,7302,,,,,,,,,,StudyProc5
IS_JOL A,41,2,3,BlockProc2,Cherry - Red,F,9,,,80,6387,,,,,,,,,,StudyProc5
IS_JOL A,41,2,3,BlockProc2,Adjourn - End,F,6,,,40,6220,,,,,,,,,,StudyProc5
IS_JOL A,41,2,3,BlockProc2,Star - Actress,B,25,,,40,17109,,,,,,,,,,StudyProc5
IS_JOL A,41,2,3,BlockProc2,Chop - Cut,F,12,,,50,9071,,,,,,,,,,StudyProc5
IS_JOL A,41,2,3,BlockProc2,Even - Revenge,B,27,,,30,8506,,,,,,,,,,StudyProc5
IS_JOL A,41,2,3,BlockProc2,Plane - Aircraft,B,34,,,80,4037,,,,,,,,,,StudyProc5
IS_JOL A,41,2,3,BlockProc2,Document - Paper,F,14,,,60,12687,,,,,,,,,,StudyProc5
IS_JOL A,41,2,3,BlockProc2,Fruit - Strawberry,B,29,,,90,4350,,,,,,,,,,StudyProc5
IS_JOL A,41,2,3,BlockProc2,Extension - Long,F,1,,,40,9419,,,,,,,,,,StudyProc5
IS_JOL A,41,2,3,BlockProc2,Chill - Cold,F,19,,,50,9049,,,,,,,,,,StudyProc5
IS_JOL A,41,2,3,BlockProc2,Best - Favorite,B,30,,,60,6669,,,,,,,,,,StudyProc5
IS_JOL A,41,2,3,BlockProc2,Glass - Breakable,B,32,,,40,11875,,,,,,,,,,StudyProc5
IS_JOL A,41,2,3,BlockProc2,Affection - Love,F,20,,,50,3436,,,,,,,,,,StudyProc5
IS_JOL A,41,2,3,BlockProc2,Detective - Mystery,F,5,,,40,17758,,,,,,,,,,StudyProc5
IS_JOL A,41,2,3,BlockProc2,Clue - Game,F,2,,,20,5381,,,,,,,,,,StudyProc5
IS_JOL A,41,2,3,BlockProc2,Turn - Flip,B,21,,,20,5288,,,,,,,,,,StudyProc5
IS_JOL A,41,2,3,BlockProc2,Fish - Sardine,B,35,,,60,3270,,,,,,,,,,StudyProc5
IS_JOL A,41,2,3,BlockProc2,Dead - Coffin,B,33,,,80,3184,,,,,,,,,,StudyProc5
IS_JOL A,41,2,3,BlockProc2,Incense - Smell,F,15,,,30,9885,,,,,,,,,,StudyProc5
IS_JOL A,41,2,3,BlockProc2,Driver - Car,F,11,,,60,4831,,,,,,,,,,StudyProc5
IS_JOL A,41,2,3,BlockProc2,Feud - Fight,F,18,,,30,2952,,,,,,,,,,StudyProc5
IS_JOL A,41,2,3,BlockProc2,Mule - Donkey,F,13,,,80,5022,,,,,,,,,,StudyProc5
IS_JOL A,41,2,3,BlockProc2,Fight - Brawl,B,40,,,30,5775,,,,,,,,,,StudyProc5
IS_JOL A,41,2,3,BlockProc2,Furry - Dog,F,7,,,30,4625,,,,,,,,,,StudyProc5
IS_JOL A,41,2,3,BlockProc2,Bad - Villain,B,23,,,40,4531,,,,,,,,,,StudyProc5
IS_JOL A,41,2,3,BlockProc2,Baseball - League,B,36,,,80,3176,,,,,,,,,,StudyProc5
IS_JOL A,41,2,3,BlockProc2,Car - Windshield,B,22,,,50,2853,,,,,,,,,,StudyProc5
IS_JOL A,41,2,3,BlockProc2,Shoelace - Tie,F,4,,,30,4663,,,,,,,,,,StudyProc5
IS_JOL A,41,2,3,BlockProc2,Scalp - Head,F,10,,,20,3951,,,,,,,,,,StudyProc5
IS_JOL A,41,2,3,BlockProc2,Honest - Truthful,B,38,,,20,3628,,,,,,,,,,StudyProc5
IS_JOL A,41,2,3,BlockProc2,Cactus - Plant,F,3,,,70,3006,,,,,,,,,,StudyProc5
IS_JOL A,41,2,3,BlockProc2,Cat - Panther,B,31,,,30,4194,,,,,,,,,,StudyProc5
IS_JOL A,41,2,3,BlockProc2,Shears - Scissors,F,17,,,20,11461,,,,,,,,,,StudyProc5
IS_JOL A,41,2,3,BlockProc2,Deaf - Hear,,3,,,,,,,,,,,,,,StudyProc6
IS_JOL A,41,2,3,BlockProc2,Contest - Competition,,5,,,,,,,,,,,,,,StudyProc6
IS_JOL A,41,2,3,BlockProc2,Magician - Magic,,4,,,,,,,,,,,,,,StudyProc6
IS_JOL A,41,2,3,BlockProc2,Deciet - Cheat,,1,,,,,,,,,,,,,,StudyProc6
IS_JOL A,41,2,3,BlockProc2,Mind - Matter,,2,,,,,,,,,,,,,,StudyProc6
IS_JOL A,41,2,3,BlockProc2,Fight - ?,,40,,,,,,,brawl,,,,,,,recallproc2
IS_JOL A,41,2,3,BlockProc2,Baseball - ?,,36,,,,,,,league,,,,,,,recallproc2
IS_JOL A,41,2,3,BlockProc2,Lease - ?,,75,,,,,,,home,,,,,,,recallproc2
IS_JOL A,41,2,3,BlockProc2,Best - ?,,30,,,,,,,greatest,,,,,,,recallproc2
IS_JOL A,41,2,3,BlockProc2,Cherry - ?,,9,,,,,,,red,,,,,,,recallproc2
IS_JOL A,41,2,3,BlockProc2,Truth - ?,,53,,,,,,,lie,,,,,,,recallproc2
IS_JOL A,41,2,3,BlockProc2,Extension - ?,,1,,,,,,,expand,,,,,,,recallproc2
IS_JOL A,41,2,3,BlockProc2,Fish - ?,,35,,,,,,,water,,,,,,,recallproc2
IS_JOL A,41,2,3,BlockProc2,Star - ?,,25,,,,,,,actress,,,,,,,recallproc2
IS_JOL A,41,2,3,BlockProc2,Dine - ?,,16,,,,,,,eat,,,,,,,recallproc2
IS_JOL A,41,2,3,BlockProc2,Water - ?,,48,,,,,,,sea,,,,,,,recallproc2
IS_JOL A,41,2,3,BlockProc2,Mirror - ?,,79,,,,,,,children,,,,,,,recallproc2
IS_JOL A,41,2,3,BlockProc2,Alone - ?,,50,,,,,,,lonely,,,,,,,recallproc2
IS_JOL A,41,2,3,BlockProc2,Earth - ?,,49,,,,,,,ground,,,,,,,recallproc2
IS_JOL A,41,2,3,BlockProc2,Mason - ?,,43,,,,,,,jar,,,,,,,recallproc2
IS_JOL A,41,2,3,BlockProc2,Rights - ?,,42,,,,,,,dignity,,,,,,,recallproc2
IS_JOL A,41,2,3,BlockProc2,Feud - ?,,18,,,,,,,fight,,,,,,,recallproc2
IS_JOL A,41,2,3,BlockProc2,Chop - ?,,12,,,,,,,cut,,,,,,,recallproc2
IS_JOL A,41,2,3,BlockProc2,Adjourn - ?,,6,,,,,,,end,,,,,,,recallproc2
IS_JOL A,41,2,3,BlockProc2,Dry - ?,,51,,,,,,,wet,,,,,,,recallproc2
IS_JOL A,41,2,3,BlockProc2,Fruit - ?,,29,,,,,,,strawberry,,,,,,,recallproc2
IS_JOL A,41,2,3,BlockProc2,Litter - ?,,8,,,,,,,trash,,,,,,,recallproc2
IS_JOL A,41,2,3,BlockProc2,Detective - ?,,5,,,,,,,case,,,,,,,recallproc2
IS_JOL A,41,2,3,BlockProc2,Own - ?,,58,,,,,,,have,,,,,,,recallproc2
IS_JOL A,41,2,3,BlockProc2,Cake - ?,,71,,,,,,,cold,,,,,,,recallproc2
IS_JOL A,41,2,3,BlockProc2,Car - ?,,22,,,,,,,drie,,,,,,,recallproc2
IS_JOL A,41,2,3,BlockProc2,Shears - ?,,17,,,,,,,scissors,,,,,,,recallproc2
IS_JOL A,41,2,3,BlockProc2,Phone - ?,,54,,,,,,,talk,,,,,,,recallproc2
IS_JOL A,41,2,3,BlockProc2,Maze - ?,,64,,,,,,,color,,,,,,,recallproc2
IS_JOL A,41,2,3,BlockProc2,Rod - ?,,55,,,,,,,reel,,,,,,,recallproc2
IS_JOL A,41,2,3,BlockProc2,Wrist - ?,,45,,,,,,,bracelet,,,,,,,recallproc2
IS_JOL A,41,2,3,BlockProc2,Stretch - ?,,62,,,,,,,expand,,,,,,,recallproc2
IS_JOL A,41,2,3,BlockProc2,Driver - ?,,11,,,,,,,car,,,,,,,recallproc2
IS_JOL A,41,2,3,BlockProc2,Bird - ?,,24,,,,,,,peguin,,,,,,,recallproc2
IS_JOL A,41,2,3,BlockProc2,Honest - ?,,38,,,,,,,truthfu,,,,,,,recallproc2
IS_JOL A,41,2,3,BlockProc2,Loan - ?,,76,,,,,,,lend,,,,,,,recallproc2
IS_JOL A,41,2,3,BlockProc2,Main - ?,,80,,,,,,,pARK,,,,,,,recallproc2
IS_JOL A,41,2,3,BlockProc2,Shoelace - ?,,4,,,,,,,TIE,,,,,,,recallproc2
IS_JOL A,41,2,3,BlockProc2,Glass - ?,,32,,,,,,,BREAKABLE,,,,,,,recallproc2
IS_JOL A,41,2,3,BlockProc2,Turn - ?,,21,,,,,,,KEY,,,,,,,recallproc2
IS_JOL A,41,2,3,BlockProc2,Shell - ?,,68,,,,,,,SOCK,,,,,,,recallproc2
IS_JOL A,41,2,3,BlockProc2,Plane - ?,,34,,,,,,,AIRCRAFT,,,,,,,recallproc2
IS_JOL A,41,2,3,BlockProc2,Bad - ?,,23,,,,,,,GOOD,,,,,,,recallproc2
IS_JOL A,41,2,3,BlockProc2,Justice - ?,,61,,,,,,,DEFENDANTY,,,,,,,recallproc2
IS_JOL A,41,2,3,BlockProc2,Safety - ?,,52,,,,,,,SEATBET,,,,,,,recallproc2
IS_JOL A,41,2,3,BlockProc2,Fuzzy - ?,,73,,,,,,,FRUIT,,,,,,,recallproc2
IS_JOL A,41,2,3,BlockProc2,Furry - ?,,7,,,,,,,BUNNY,,,,,,,recallproc2
IS_JOL A,41,2,3,BlockProc2,Affection - ?,,20,,,,,,,LOVE,,,,,,,recallproc2
IS_JOL A,41,2,3,BlockProc2,Temperature - ?,,78,,,,,,,HOT,,,,,,,recallproc2
IS_JOL A,41,2,3,BlockProc2,Element - ?,,46,,,,,,,CARBON,,,,,,,recallproc2
IS_JOL A,41,2,3,BlockProc2,Mule - ?,,13,,,,,,,DONKEY,,,,,,,recallproc2
IS_JOL A,41,2,3,BlockProc2,Money - ?,,37,,,,,,,CASH,,,,,,,recallproc2
IS_JOL A,41,2,3,BlockProc2,Loud - ?,,57,,,,,,,HIGH,,,,,,,recallproc2
IS_JOL A,41,2,3,BlockProc2,Vehicle - ?,,65,,,,,,,CAR,,,,,,,recallproc2
IS_JOL A,41,2,3,BlockProc2,Razor - ?,,41,,,,,,,BLADE,,,,,,,recallproc2
IS_JOL A,41,2,3,BlockProc2,Meat - ?,,66,,,,,,,CAR,,,,,,,recallproc2
IS_JOL A,41,2,3,BlockProc2,Document - ?,,14,,,,,,,PAPER,,,,,,,recallproc2
IS_JOL A,41,2,3,BlockProc2,Sleep - ?,,39,,,,,,,DREAM,,,,,,,recallproc2
IS_JOL A,41,2,3,BlockProc2,Cactus - ?,,3,,,,,,,PLANT,,,,,,,recallproc2
IS_JOL A,41,2,3,BlockProc2,Moat - ?,,74,,,,,,,WATER,,,,,,,recallproc2
IS_JOL A,41,2,3,BlockProc2,Both - ?,,77,,,,,,,CAR,,,,,,,recallproc2
IS_JOL A,41,2,3,BlockProc2,Give - ?,,63,,,,,,,TAKE,,,,,,,recallproc2
IS_JOL A,41,2,3,BlockProc2,Keys - ?,,70,,,,,,,DOOR,,,,,,,recallproc2
IS_JOL A,41,2,3,BlockProc2,Chill - ?,,19,,,,,,,COLD,,,,,,,recallproc2
IS_JOL A,41,2,3,BlockProc2,Cat - ?,,31,,,,,,,CAR,,,,,,,recallproc2
IS_JOL A,41,2,3,BlockProc2,Crackle - ?,,67,,,,,,,FIRE,,,,,,,recallproc2
IS_JOL A,41,2,3,BlockProc2,Clue - ?,,2,,,,,,,DETECTIVE,,,,,,,recallproc2
IS_JOL A,41,2,3,BlockProc2,Incense - ?,,15,,,,,,,SMELL,,,,,,,recallproc2
IS_JOL A,41,2,3,BlockProc2,Pop - ?,,28,,,,,,,SODA,,,,,,,recallproc2
IS_JOL A,41,2,3,BlockProc2,Name - ?,,72,,,,,,,STENCH,,,,,,,recallproc2
IS_JOL A,41,2,3,BlockProc2,Thread - ?,,26,,,,,,,NEEDLE,,,,,,,recallproc2
IS_JOL A,41,2,3,BlockProc2,Candle - ?,,44,,,,,,,WAX,,,,,,,recallproc2
IS_JOL A,41,2,3,BlockProc2,Listen - ?,,69,,,,,,,HEAR,,,,,,,recallproc2
IS_JOL A,41,2,3,BlockProc2,Dead - ?,,33,,,,,,,COFFIN,,,,,,,recallproc2
IS_JOL A,41,2,3,BlockProc2,Flea - ?,,56,,,,,,,TICKS,,,,,,,recallproc2
IS_JOL A,41,2,3,BlockProc2,Sun - ?,,60,,,,,,,STAR,,,,,,,recallproc2
IS_JOL A,41,2,3,BlockProc2,Gone - ?,,47,,,,,,,AWAY,,,,,,,recallproc2
IS_JOL A,41,2,3,BlockProc2,Scalp - ?,,10,,,,,,,HEAD,,,,,,,recallproc2
IS_JOL A,41,2,3,BlockProc2,Even - ?,,27,,,,,,,ODD,,,,,,,recallproc2
IS_JOL A,41,2,3,BlockProc2,Tantrum - ?,,59,,,,,,,TEMPER,,,,,,,recallproc2
IS_JOL B,42,1,,BlockProc1,Chime-Music,,8,,,,,,,,,,,,,,Practice1
IS_JOL B,42,1,,BlockProc1,Paddle-Row,,4,,,,,,,,,,,,,,Practice1
IS_JOL B,42,1,,BlockProc1,Chocolate-Bar,,7,,,,,,,,,,,,,,Practice1
IS_JOL B,42,1,,BlockProc1,Disbelieve-Skeptic,,6,,,,,,,,,,,,,,Practice1
IS_JOL B,42,1,,BlockProc1,Behavior-Social,,9,,,,,,,,,,,,,,Practice1
IS_JOL B,42,1,,BlockProc1,Fashion-Model,,10,,,,,,,,,,,,,,Practice1
IS_JOL B,42,1,,BlockProc1,Aardvark-Zoo,,1,,,,,,,,,,,,,,Practice1
IS_JOL B,42,1,,BlockProc1,Deaf-Mute,,2,,,,,,,,,,,,,,Practice1
IS_JOL B,42,1,,BlockProc1,Ham-Bone,,3,,,,,,,,,,,,,,Practice1
IS_JOL B,42,1,,BlockProc1,Hinge-Swing,,5,,,,,,,,,,,,,,Practice1
IS_JOL B,42,1,3,BlockProc1,Haircut-Scissors,,1,,,,,,,,,,,,,,StudyProc1
IS_JOL B,42,1,3,BlockProc1,Curtain - Drapes,,2,,,,,,,,,,,,,,StudyProc1
IS_JOL B,42,1,3,BlockProc1,Member - Group,,5,,,,,,,,,,,,,,StudyProc1
IS_JOL B,42,1,3,BlockProc1,Shrimp - Fish,,4,,,,,,,,,,,,,,StudyProc1
IS_JOL B,42,1,3,BlockProc1,Snow - Ice,,3,,,,,,,,,,,,,,StudyProc1
IS_JOL B,42,1,3,BlockProc1,Bird - Penguin,B,24,65,10760,,,,,,,,,,,,StudyProc3
IS_JOL B,42,1,3,BlockProc1,Fruit - Strawberry,B,29,50,17495,,,,,,,,,,,,StudyProc3
IS_JOL B,42,1,3,BlockProc1,Chill - Cold,F,19,50,11169,,,,,,,,,,,,StudyProc3
IS_JOL B,42,1,3,BlockProc1,Document - Paper,F,14,70,9790,,,,,,,,,,,,StudyProc3
IS_JOL B,42,1,3,BlockProc1,Feud - Fight,F,18,50,10029,,,,,,,,,,,,StudyProc3
IS_JOL B,42,1,3,BlockProc1,Turn - Flip,B,21,60,10801,,,,,,,,,,,,StudyProc3
IS_JOL B,42,1,3,BlockProc1,Baseball - League,B,36,40,15573,,,,,,,,,,,,StudyProc3
IS_JOL B,42,1,3,BlockProc1,Pop - Balloon,B,28,70,11110,,,,,,,,,,,,StudyProc3
IS_JOL B,42,1,3,BlockProc1,Incense - Smell,F,15,30,12966,,,,,,,,,,,,StudyProc3
IS_JOL B,42,1,3,BlockProc1,Scalp - Head,F,10,50,17450,,,,,,,,,,,,StudyProc3
IS_JOL B,42,1,3,BlockProc1,Shoelace - Tie,F,4,70,8183,,,,,,,,,,,,StudyProc3
IS_JOL B,42,1,3,BlockProc1,Detective - Mystery,F,5,65,8895,,,,,,,,,,,,StudyProc3
IS_JOL B,42,1,3,BlockProc1,Dine - Eat,F,16,55,11713,,,,,,,,,,,,StudyProc3
IS_JOL B,42,1,3,BlockProc1,Dead - Coffin,B,33,70,10984,,,,,,,,,,,,StudyProc3
IS_JOL B,42,1,3,BlockProc1,Cactus - Plant,F,3,40,11877,,,,,,,,,,,,StudyProc3
IS_JOL B,42,1,3,BlockProc1,Car - Windshield,B,22,50,12622,,,,,,,,,,,,StudyProc3
IS_JOL B,42,1,3,BlockProc1,Sleep - Nap,B,39,80,12576,,,,,,,,,,,,StudyProc3
IS_JOL B,42,1,3,BlockProc1,Affection - Love,F,20,50,11212,,,,,,,,,,,,StudyProc3
IS_JOL B,42,1,3,BlockProc1,Mule - Donkey,F,13,20,8455,,,,,,,,,,,,StudyProc3
IS_JOL B,42,1,3,BlockProc1,Chop - Cut,F,12,60,9084,,,,,,,,,,,,StudyProc3
IS_JOL B,42,1,3,BlockProc1,Money - Banker,B,37,60,8767,,,,,,,,,,,,StudyProc3
IS_JOL B,42,1,3,BlockProc1,Driver - Car,F,11,50,8911,,,,,,,,,,,,StudyProc3
IS_JOL B,42,1,3,BlockProc1,Litter - Trash,F,8,40,11849,,,,,,,,,,,,StudyProc3
IS_JOL B,42,1,3,BlockProc1,Cherry - Red,F,9,40,13010,,,,,,,,,,,,StudyProc3
IS_JOL B,42,1,3,BlockProc1,Star - Actress,B,25,30,9388,,,,,,,,,,,,StudyProc3
IS_JOL B,42,1,3,BlockProc1,Adjourn - End,F,6,40,9275,,,,,,,,,,,,StudyProc3
IS_JOL B,42,1,3,BlockProc1,Fish - Sardine,B,35,20,12918,,,,,,,,,,,,StudyProc3
IS_JOL B,42,1,3,BlockProc1,Plane - Aircraft,B,34,40,12532,,,,,,,,,,,,StudyProc3
IS_JOL B,42,1,3,BlockProc1,Glass - Breakable,B,32,50,13122,,,,,,,,,,,,StudyProc3
IS_JOL B,42,1,3,BlockProc1,Cat - Panther,B,31,60,11703,,,,,,,,,,,,StudyProc3
IS_JOL B,42,1,3,BlockProc1,Bad - Villain,B,23,70,11607,,,,,,,,,,,,StudyProc3
IS_JOL B,42,1,3,BlockProc1,Even - Revenge,B,27,80,11482,,,,,,,,,,,,StudyProc3
IS_JOL B,42,1,3,BlockProc1,Thread - Thimble,B,26,40,10339,,,,,,,,,,,,StudyProc3
IS_JOL B,42,1,3,BlockProc1,Best - Favorite,B,30,60,8971,,,,,,,,,,,,StudyProc3
IS_JOL B,42,1,3,BlockProc1,Extension - Long,F,1,60,7986,,,,,,,,,,,,StudyProc3
IS_JOL B,42,1,3,BlockProc1,Clue - Game,F,2,50,11258,,,,,,,,,,,,StudyProc3
IS_JOL B,42,1,3,BlockProc1,Fight - Brawl,B,40,50,12932,,,,,,,,,,,,StudyProc3
IS_JOL B,42,1,3,BlockProc1,Shears - Scissors,F,17,40,8857,,,,,,,,,,,,StudyProc3
IS_JOL B,42,1,3,BlockProc1,Honest - Truthful,B,38,40,13270,,,,,,,,,,,,StudyProc3
IS_JOL B,42,1,3,BlockProc1,Furry - Dog,F,7,60,13829,,,,,,,,,,,,StudyProc3
IS_JOL B,42,1,3,BlockProc1,Candle - Wax,S,44,,,,,,,,50,9233,,,,,StudyProc7
IS_JOL B,42,1,3,BlockProc1,Maze - Election,U,64,,,,,,,,50,9206,,,,,StudyProc7
IS_JOL B,42,1,3,BlockProc1,Mason - Jar,S,43,,,,,,,,60,7748,,,,,StudyProc7
IS_JOL B,42,1,3,BlockProc1,Lease - Toil,U,75,,,,,,,,0,7750,,,,,StudyProc7
IS_JOL B,42,1,3,BlockProc1,Phone - Communicatio,S,54,,,,,,,,70,12183,,,,,StudyProc7
IS_JOL B,42,1,3,BlockProc1,Safety - Seatbelt,S,52,,,,,,,,50,9003,,,,,StudyProc7
IS_JOL B,42,1,3,BlockProc1,Gone - Away,S,47,,,,,,,,50,10866,,,,,StudyProc7
IS_JOL B,42,1,3,BlockProc1,Truth - Lie,S,53,,,,,,,,70,6099,,,,,StudyProc7
IS_JOL B,42,1,3,BlockProc1,Keys - Joke,U,70,,,,,,,,70,12833,,,,,StudyProc7
IS_JOL B,42,1,3,BlockProc1,Cake - Clothes,U,71,,,,,,,,60,5386,,,,,StudyProc7
IS_JOL B,42,1,3,BlockProc1,Tantrum - Temper,S,59,,,,,,,,65,14364,,,,,StudyProc7
IS_JOL B,42,1,3,BlockProc1,Dry - Wet,S,51,,,,,,,,70,7647,,,,,StudyProc7
IS_JOL B,42,1,3,BlockProc1,Name - Hate,U,72,,,,,,,,50,10716,,,,,StudyProc7
IS_JOL B,42,1,3,BlockProc1,Listen - Fiction,U,69,,,,,,,,40,11660,,,,,StudyProc7
IS_JOL B,42,1,3,BlockProc1,Mirror - Children,U,79,,,,,,,,60,10709,,,,,StudyProc7
IS_JOL B,42,1,3,BlockProc1,Water - Drink,S,48,,,,,,,,50,9622,,,,,StudyProc7
IS_JOL B,42,1,3,BlockProc1,Rights - Equal,S,42,,,,,,,,70,12227,,,,,StudyProc7
IS_JOL B,42,1,3,BlockProc1,Shell - Shake,U,68,,,,,,,,30,7221,,,,,StudyProc7
IS_JOL B,42,1,3,BlockProc1,Moat - Clear,U,74,,,,,,,,60,10373,,,,,StudyProc7
IS_JOL B,42,1,3,BlockProc1,Flea - Tick,S,56,,,,,,,,70,10387,,,,,StudyProc7
IS_JOL B,42,1,3,BlockProc1,Both - Ounce,U,77,,,,,,,,20,12369,,,,,StudyProc7
IS_JOL B,42,1,3,BlockProc1,Justice - Maroon,U,61,,,,,,,,40,7429,,,,,StudyProc7
IS_JOL B,42,1,3,BlockProc1,Meat - Obtain,U,66,,,,,,,,50,9483,,,,,StudyProc7
IS_JOL B,42,1,3,BlockProc1,Sun - Tan,S,60,,,,,,,,30,7102,,,,,StudyProc7
IS_JOL B,42,1,3,BlockProc1,Loan - Sign,U,76,,,,,,,,30,12514,,,,,StudyProc7
IS_JOL B,42,1,3,BlockProc1,Give - Steak,U,63,,,,,,,,50,10192,,,,,StudyProc7
IS_JOL B,42,1,3,BlockProc1,Wrist - Bracelet,S,45,,,,,,,,70,8262,,,,,StudyProc7
IS_JOL B,42,1,3,BlockProc1,Vehicle - Charm,U,65,,,,,,,,40,8490,,,,,StudyProc7
IS_JOL B,42,1,3,BlockProc1,Element - Carbon,S,46,,,,,,,,60,17302,,,,,StudyProc7
IS_JOL B,42,1,3,BlockProc1,Temperature - Morning,U,78,,,,,,,,60,10728,,,,,StudyProc7
IS_JOL B,42,1,3,BlockProc1,Rod - Reel,S,55,,,,,,,,50,9591,,,,,StudyProc7
IS_JOL B,42,1,3,BlockProc1,Alone - Lonely,S,50,,,,,,,,60,11102,,,,,StudyProc7
IS_JOL B,42,1,3,BlockProc1,Own - Have,S,58,,,,,,,,40,11638,,,,,StudyProc7
IS_JOL B,42,1,3,BlockProc1,Razor - Shave,S,41,,,,,,,,50,8744,,,,,StudyProc7
IS_JOL B,42,1,3,BlockProc1,Stretch - Cloth,U,62,,,,,,,,40,12817,,,,,StudyProc7
IS_JOL B,42,1,3,BlockProc1,Earth - Ground,S,49,,,,,,,,50,12643,,,,,StudyProc7
IS_JOL B,42,1,3,BlockProc1,Crackle - Able,U,67,,,,,,,,30,14404,,,,,StudyProc7
IS_JOL B,42,1,3,BlockProc1,Main - Scar,U,80,,,,,,,,30,11757,,,,,StudyProc7
IS_JOL B,42,1,3,BlockProc1,Fuzzy - Bang,U,73,,,,,,,,50,10434,,,,,StudyProc7
IS_JOL B,42,1,3,BlockProc1,Loud - Noise,S,57,,,,,,,,50,11166,,,,,StudyProc7
IS_JOL B,42,1,3,BlockProc1,Geese - Goose,,1,,,,,,,,,,,,,,StudyProc2
IS_JOL B,42,1,3,BlockProc1,Grab - Take,,2,,,,,,,,,,,,,,StudyProc2
IS_JOL B,42,1,3,BlockProc1,Catcher - Baseball,,4,,,,,,,,,,,,,,StudyProc2
IS_JOL B,42,1,3,BlockProc1,Friendliness - Nice,,3,,,,,,,,,,,,,,StudyProc2
IS_JOL B,42,1,3,BlockProc1,Trees - Green,,5,,,,,,,,,,,,,,StudyProc2
IS_JOL B,42,1,3,BlockProc1,Keys - ?,,70,,,,,joke,4195,,,,,,,,recallproc1
IS_JOL B,42,1,3,BlockProc1,Earth - ?,,49,,,,,ground,6599,,,,,,,,recallproc1
IS_JOL B,42,1,3,BlockProc1,Justice - ?,,61,,,,,rights,8095,,,,,,,,recallproc1
IS_JOL B,42,1,3,BlockProc1,Fruit - ?,,29,,,,,srawberry,8138,,,,,,,,recallproc1
IS_JOL B,42,1,3,BlockProc1,Feud - ?,,18,,,,,fight,4540,,,,,,,,recallproc1
IS_JOL B,42,1,3,BlockProc1,Truth - ?,,53,,,,,lie,3353,,,,,,,,recallproc1
IS_JOL B,42,1,3,BlockProc1,Thread - ?,,26,,,,,needle,7783,,,,,,,,recallproc1
IS_JOL B,42,1,3,BlockProc1,Moat - ?,,74,,,,,clear,3079,,,,,,,,recallproc1
IS_JOL B,42,1,3,BlockProc1,Adjourn - ?,,6,,,,,end,4744,,,,,,,,recallproc1
IS_JOL B,42,1,3,BlockProc1,Maze - ?,,64,,,,,election,14501,,,,,,,,recallproc1
IS_JOL B,42,1,3,BlockProc1,Name - ?,,72,,,,,hate,2266,,,,,,,,recallproc1
IS_JOL B,42,1,3,BlockProc1,Best - ?,,30,,,,,favorite,6188,,,,,,,,recallproc1
IS_JOL B,42,1,3,BlockProc1,Phone - ?,,54,,,,,communication,5222,,,,,,,,recallproc1
IS_JOL B,42,1,3,BlockProc1,Pop - ?,,28,,,,,balloon,13879,,,,,,,,recallproc1
IS_JOL B,42,1,3,BlockProc1,Affection - ?,,20,,,,,lov,4854,,,,,,,,recallproc1
IS_JOL B,42,1,3,BlockProc1,Cherry - ?,,9,,,,,red,4414,,,,,,,,recallproc1
IS_JOL B,42,1,3,BlockProc1,Own - ?,,58,,,,,have,8361,,,,,,,,recallproc1
IS_JOL B,42,1,3,BlockProc1,Driver - ?,,11,,,,,cham,8817,,,,,,,,recallproc1
IS_JOL B,42,1,3,BlockProc1,Money - ?,,37,,,,,banker,3511,,,,,,,,recallproc1
IS_JOL B,42,1,3,BlockProc1,Cake - ?,,71,,,,,clothes,5278,,,,,,,,recallproc1
IS_JOL B,42,1,3,BlockProc1,Alone - ?,,50,,,,,lonely,3005,,,,,,,,recallproc1
IS_JOL B,42,1,3,BlockProc1,Dine - ?,,16,,,,,eat,5264,,,,,,,,recallproc1
IS_JOL B,42,1,3,BlockProc1,Both - ?,,77,,,,,see,17592,,,,,,,,recallproc1
IS_JOL B,42,1,3,BlockProc1,Fish - ?,,35,,,,,shrimp,5886,,,,,,,,recallproc1
IS_JOL B,42,1,3,BlockProc1,Incense - ?,,15,,,,,smell,2980,,,,,,,,recallproc1
IS_JOL B,42,1,3,BlockProc1,Shell - ?,,68,,,,,shake,2609,,,,,,,,recallproc1
IS_JOL B,42,1,3,BlockProc1,Cactus - ?,,3,,,,,plant,2877,,,,,,,,recallproc1
IS_JOL B,42,1,3,BlockProc1,Glass - ?,,32,,,,,breakable,4374,,,,,,,,recallproc1
IS_JOL B,42,1,3,BlockProc1,Furry - ?,,7,,,,,dog,2634,,,,,,,,recallproc1
IS_JOL B,42,1,3,BlockProc1,Shoelace - ?,,4,,,,,tie,2509,,,,,,,,recallproc1
IS_JOL B,42,1,3,BlockProc1,Scalp - ?,,10,,,,,hea,3397,,,,,,,,recallproc1
IS_JOL B,42,1,3,BlockProc1,Shears - ?,,17,,,,,scissors,3225,,,,,,,,recallproc1
IS_JOL B,42,1,3,BlockProc1,Water - ?,,48,,,,,clear,7228,,,,,,,,recallproc1
IS_JOL B,42,1,3,BlockProc1,Extension - ?,,1,,,,,long,4259,,,,,,,,recallproc1
IS_JOL B,42,1,3,BlockProc1,Chop - ?,,12,,,,,cut,4107,,,,,,,,recallproc1
IS_JOL B,42,1,3,BlockProc1,Mule - ?,,13,,,,,donkey,3218,,,,,,,,recallproc1
IS_JOL B,42,1,3,BlockProc1,Gone - ?,,47,,,,,away,2373,,,,,,,,recallproc1
IS_JOL B,42,1,3,BlockProc1,Razor - ?,,41,,,,,shave,3827,,,,,,,,recallproc1
IS_JOL B,42,1,3,BlockProc1,Cat - ?,,31,,,,,scratch,8869,,,,,,,,recallproc1
IS_JOL B,42,1,3,BlockProc1,Flea - ?,,56,,,,,tick,2529,,,,,,,,recallproc1
IS_JOL B,42,1,3,BlockProc1,Element - ?,,46,,,,,carbon,4704,,,,,,,,recallproc1
IS_JOL B,42,1,3,BlockProc1,Loan - ?,,76,,,,,bank,6463,,,,,,,,recallproc1
IS_JOL B,42,1,3,BlockProc1,Dry - ?,,51,,,,,wet,2285,,,,,,,,recallproc1
IS_JOL B,42,1,3,BlockProc1,Fuzzy - ?,,73,,,,,dog,3439,,,,,,,,recallproc1
IS_JOL B,42,1,3,BlockProc1,Document - ?,,14,,,,,paper,4520,,,,,,,,recallproc1
IS_JOL B,42,1,3,BlockProc1,Turn - ?,,21,,,,,flip,3879,,,,,,,,recallproc1
IS_JOL B,42,1,3,BlockProc1,Meat - ?,,66,,,,,steak,12399,,,,,,,,recallproc1
IS_JOL B,42,1,3,BlockProc1,Even - ?,,27,,,,,revenge,3722,,,,,,,,recallproc1
IS_JOL B,42,1,3,BlockProc1,Rod - ?,,55,,,,,reel,2360,,,,,,,,recallproc1
IS_JOL B,42,1,3,BlockProc1,Vehicle - ?,,65,,,,,charm,3550,,,,,,,,recallproc1
IS_JOL B,42,1,3,BlockProc1,Sleep - ?,,39,,,,,nap,2180,,,,,,,,recallproc1
IS_JOL B,42,1,3,BlockProc1,Honest - ?,,38,,,,,truthful,6410,,,,,,,,recallproc1
IS_JOL B,42,1,3,BlockProc1,Sun - ?,,60,,,,,shine,6930,,,,,,,,recallproc1
IS_JOL B,42,1,3,BlockProc1,Litter - ?,,8,,,,,trash,3365,,,,,,,,recallproc1
IS_JOL B,42,1,3,BlockProc1,Give - ?,,63,,,,,take,5978,,,,,,,,recallproc1
IS_JOL B,42,1,3,BlockProc1,Tantrum - ?,,59,,,,,temper,5932,,,,,,,,recallproc1
IS_JOL B,42,1,3,BlockProc1,Stretch - ?,,62,,,,,cloth,8960,,,,,,,,recallproc1
IS_JOL B,42,1,3,BlockProc1,Rights - ?,,42,,,,,equal,3192,,,,,,,,recallproc1
IS_JOL B,42,1,3,BlockProc1,Star - ?,,25,,,,,space,8028,,,,,,,,recallproc1
IS_JOL B,42,1,3,BlockProc1,Crackle - ?,,67,,,,,pop,4058,,,,,,,,recallproc1
IS_JOL B,42,1,3,BlockProc1,Lease - ?,,75,,,,,house,8363,,,,,,,,recallproc1
IS_JOL B,42,1,3,BlockProc1,Car - ?,,22,,,,,cham,3619,,,,,,,,recallproc1
IS_JOL B,42,1,3,BlockProc1,Fight - ?,,40,,,,,brawl,3158,,,,,,,,recallproc1
IS_JOL B,42,1,3,BlockProc1,Bird - ?,,24,,,,,penguin,3963,,,,,,,,recallproc1
IS_JOL B,42,1,3,BlockProc1,Mirror - ?,,79,,,,,children,3152,,,,,,,,recallproc1
IS_JOL B,42,1,3,BlockProc1,Bad - ?,,23,,,,,villian,3766,,,,,,,,recallproc1
IS_JOL B,42,1,3,BlockProc1,Listen - ?,,69,,,,,hear,13419,,,,,,,,recallproc1
IS_JOL B,42,1,3,BlockProc1,Baseball - ?,,36,,,,,league,6004,,,,,,,,recallproc1
IS_JOL B,42,1,3,BlockProc1,Clue - ?,,2,,,,,game,2390,,,,,,,,recallproc1
IS_JOL B,42,1,3,BlockProc1,Detective - ?,,5,,,,,mystery,4611,,,,,,,,recallproc1
IS_JOL B,42,1,3,BlockProc1,Mason - ?,,43,,,,,jar,2285,,,,,,,,recallproc1
IS_JOL B,42,1,3,BlockProc1,Loud - ?,,57,,,,,nois,4182,,,,,,,,recallproc1
IS_JOL B,42,1,3,BlockProc1,Safety - ?,,52,,,,,seatbelt,3234,,,,,,,,recallproc1
IS_JOL B,42,1,3,BlockProc1,Main - ?,,80,,,,,scar,7773,,,,,,,,recallproc1
IS_JOL B,42,1,3,BlockProc1,Plane - ?,,34,,,,,aircraft,3518,,,,,,,,recallproc1
IS_JOL B,42,1,3,BlockProc1,Temperature - ?,,78,,,,,morning,3245,,,,,,,,recallproc1
IS_JOL B,42,1,3,BlockProc1,Wrist - ?,,45,,,,,bracelet,3199,,,,,,,,recallproc1
IS_JOL B,42,1,3,BlockProc1,Chill - ?,,19,,,,,cold,3987,,,,,,,,recallproc1
IS_JOL B,42,1,3,BlockProc1,Dead - ?,,33,,,,,coffin,3255,,,,,,,,recallproc1
IS_JOL B,42,1,3,BlockProc1,Candle - ?,,44,,,,,wax,2672,,,,,,,,recallproc1
IS_JOL B,42,2,3,BlockProc2,Essay - Write,,4,,,,,,,,,,,,,,StudyProc4
IS_JOL B,42,2,3,BlockProc2,Sheriff - Police,,1,,,,,,,,,,,,,,StudyProc4
IS_JOL B,42,2,3,BlockProc2,Disintegrate - Disappear,,3,,,,,,,,,,,,,,StudyProc4
IS_JOL B,42,2,3,BlockProc2,Malt - Chocolate,,5,,,,,,,,,,,,,,StudyProc4
IS_JOL B,42,2,3,BlockProc2,Hide - Scare,,2,,,,,,,,,,,,,,StudyProc4
IS_JOL B,42,2,3,BlockProc2,Math - Division,B,28,,,60,6258,,,,,,,,,,StudyProc5
IS_JOL B,42,2,3,BlockProc2,Bitter - Cold,F,7,,,70,7225,,,,,,,,,,StudyProc5
IS_JOL B,42,2,3,BlockProc2,Hunger - Famine,B,35,,,70,10207,,,,,,,,,,StudyProc5
IS_JOL B,42,2,3,BlockProc2,Delinquent - Bad,F,1,,,60,11708,,,,,,,,,,StudyProc5
IS_JOL B,42,2,3,BlockProc2,Take - Seize,B,24,,,50,7596,,,,,,,,,,StudyProc5
IS_JOL B,42,2,3,BlockProc2,Chisel - Hammer,F,4,,,50,9996,,,,,,,,,,StudyProc5
IS_JOL B,42,2,3,BlockProc2,Key - Latch,B,31,,,60,7705,,,,,,,,,,StudyProc5
IS_JOL B,42,2,3,BlockProc2,Ball - Racket,B,33,,,70,6349,,,,,,,,,,StudyProc5
IS_JOL B,42,2,3,BlockProc2,Bug - Wasp,B,27,,,60,6944,,,,,,,,,,StudyProc5
IS_JOL B,42,2,3,BlockProc2,Clothes - Attire,B,38,,,50,13138,,,,,,,,,,StudyProc5
IS_JOL B,42,2,3,BlockProc2,Root - Plant,F,8,,,20,10607,,,,,,,,,,StudyProc5
IS_JOL B,42,2,3,BlockProc2,Sleep - Drowsy,B,36,,,50,5524,,,,,,,,,,StudyProc5
IS_JOL B,42,2,3,BlockProc2,Hornet - Sting,F,6,,,60,7768,,,,,,,,,,StudyProc5
IS_JOL B,42,2,3,BlockProc2,Editor - News,F,5,,,40,7817,,,,,,,,,,StudyProc5
IS_JOL B,42,2,3,BlockProc2,Paw - Dog,F,10,,,50,6712,,,,,,,,,,StudyProc5
IS_JOL B,42,2,3,BlockProc2,Hot - Chili,B,32,,,30,7988,,,,,,,,,,StudyProc5
IS_JOL B,42,2,3,BlockProc2,Full - Enough,B,21,,,60,7148,,,,,,,,,,StudyProc5
IS_JOL B,42,2,3,BlockProc2,Discussion - Talk,F,16,,,60,7598,,,,,,,,,,StudyProc5
IS_JOL B,42,2,3,BlockProc2,Law - Attorney,B,29,,,50,12782,,,,,,,,,,StudyProc5
IS_JOL B,42,2,3,BlockProc2,Drink - Sip,B,22,,,40,6737,,,,,,,,,,StudyProc5
IS_JOL B,42,2,3,BlockProc2,Sentence - Word,B,26,,,70,7564,,,,,,,,,,StudyProc5
IS_JOL B,42,2,3,BlockProc2,Swan - Bird,F,9,,,70,8453,,,,,,,,,,StudyProc5
IS_JOL B,42,2,3,BlockProc2,Herd - Cow,F,17,,,40,9874,,,,,,,,,,StudyProc5
IS_JOL B,42,2,3,BlockProc2,Hygiene - Clean,F,12,,,50,6317,,,,,,,,,,StudyProc5
IS_JOL B,42,2,3,BlockProc2,Height - Growth,B,25,,,60,10177,,,,,,,,,,StudyProc5
IS_JOL B,42,2,3,BlockProc2,Great - Fantastic,B,30,,,80,8528,,,,,,,,,,StudyProc5
IS_JOL B,42,2,3,BlockProc2,Plane - Pilot,B,39,,,80,11777,,,,,,,,,,StudyProc5
IS_JOL B,42,2,3,BlockProc2,Bridge - Water,F,13,,,50,8526,,,,,,,,,,StudyProc5
IS_JOL B,42,2,3,BlockProc2,Orchid - Flower,F,19,,,30,6535,,,,,,,,,,StudyProc5
IS_JOL B,42,2,3,BlockProc2,Geology - Rock,F,14,,,60,9819,,,,,,,,,,StudyProc5
IS_JOL B,42,2,3,BlockProc2,Revolution - War,F,15,,,50,7184,,,,,,,,,,StudyProc5
IS_JOL B,42,2,3,BlockProc2,Digestion - Stomach,F,2,,,40,5760,,,,,,,,,,StudyProc5
IS_JOL B,42,2,3,BlockProc2,Wage - Money,F,3,,,90,6075,,,,,,,,,,StudyProc5
IS_JOL B,42,2,3,BlockProc2,Work - Chore,B,34,,,60,12521,,,,,,,,,,StudyProc5
IS_JOL B,42,2,3,BlockProc2,Dark - Cave,B,23,,,40,12079,,,,,,,,,,StudyProc5
IS_JOL B,42,2,3,BlockProc2,Smell - Stench,B,37,,,80,7743,,,,,,,,,,StudyProc5
IS_JOL B,42,2,3,BlockProc2,Fire - Blaze,B,40,,,60,11729,,,,,,,,,,StudyProc5
IS_JOL B,42,2,3,BlockProc2,Tuna - Fish,F,20,,,30,6767,,,,,,,,,,StudyProc5
IS_JOL B,42,2,3,BlockProc2,Credit - Card,F,18,,,50,11697,,,,,,,,,,StudyProc5
IS_JOL B,42,2,3,BlockProc2,Way - Out,F,11,,,50,8457,,,,,,,,,,StudyProc5
IS_JOL B,42,2,3,BlockProc2,Debate - Sight,U,68,,,,,,,,,,40,10883,,,StudyProc8
IS_JOL B,42,2,3,BlockProc2,Hide - Sick,U,79,,,,,,,,,,70,10028,,,StudyProc8
IS_JOL B,42,2,3,BlockProc2,Sugar - Riddle,U,76,,,,,,,,,,50,8736,,,StudyProc8
IS_JOL B,42,2,3,BlockProc2,Blow - Wind,S,50,,,,,,,,,,50,5442,,,StudyProc8
IS_JOL B,42,2,3,BlockProc2,Bathroom - Toilet,S,53,,,,,,,,,,50,10641,,,StudyProc8
IS_JOL B,42,2,3,BlockProc2,Begin - End,S,49,,,,,,,,,,70,8213,,,StudyProc8
IS_JOL B,42,2,3,BlockProc2,Shoe - Foot,S,55,,,,,,,,,,80,6683,,,StudyProc8
IS_JOL B,42,2,3,BlockProc2,Artery - Bronze,U,69,,,,,,,,,,0,8281,,,StudyProc8
IS_JOL B,42,2,3,BlockProc2,Dump - Waste,S,44,,,,,,,,,,30,9652,,,StudyProc8
IS_JOL B,42,2,3,BlockProc2,Fix - Hand,U,70,,,,,,,,,,60,10808,,,StudyProc8
IS_JOL B,42,2,3,BlockProc2,Architecture - Design,S,46,,,,,,,,,,0,9740,,,StudyProc8
IS_JOL B,42,2,3,BlockProc2,Valley - Add,U,77,,,,,,,,,,50,13061,,,StudyProc8
IS_JOL B,42,2,3,BlockProc2,Strong - Accident,U,75,,,,,,,,,,60,7829,,,StudyProc8
IS_JOL B,42,2,3,BlockProc2,Death - Business,U,67,,,,,,,,,,60,8683,,,StudyProc8
IS_JOL B,42,2,3,BlockProc2,Lettuce - Salad,S,54,,,,,,,,,,80,4358,,,StudyProc8
IS_JOL B,42,2,3,BlockProc2,Lift - Woman,U,64,,,,,,,,,,70,6043,,,StudyProc8
IS_JOL B,42,2,3,BlockProc2,Past - Future,S,56,,,,,,,,,,70,7034,,,StudyProc8
IS_JOL B,42,2,3,BlockProc2,Allow - Tuck,U,73,,,,,,,,,,20,13745,,,StudyProc8
IS_JOL B,42,2,3,BlockProc2,Park - Hungry,U,63,,,,,,,,,,50,7885,,,StudyProc8
IS_JOL B,42,2,3,BlockProc2,Wine - Cheese,S,52,,,,,,,,,,80,6617,,,StudyProc8
IS_JOL B,42,2,3,BlockProc2,Machine - Position,U,71,,,,,,,,,,75,10817,,,StudyProc8
IS_JOL B,42,2,3,BlockProc2,Number - Amount,S,42,,,,,,,,,,50,10565,,,StudyProc8
IS_JOL B,42,2,3,BlockProc2,Happy - Car,U,72,,,,,,,,,,40,10667,,,StudyProc8
IS_JOL B,42,2,3,BlockProc2,Choice - Decision,S,57,,,,,,,,,,50,10653,,,StudyProc8
IS_JOL B,42,2,3,BlockProc2,Pusher - Clutter,U,61,,,,,,,,,,10,10336,,,StudyProc8
IS_JOL B,42,2,3,BlockProc2,Baby - Child,S,59,,,,,,,,,,60,6128,,,StudyProc8
IS_JOL B,42,2,3,BlockProc2,Grill - Bar,S,47,,,,,,,,,,50,12139,,,StudyProc8
IS_JOL B,42,2,3,BlockProc2,Location - Site,S,43,,,,,,,,,,60,9009,,,StudyProc8
IS_JOL B,42,2,3,BlockProc2,Due - Assignment,S,41,,,,,,,,,,0,7975,,,StudyProc8
IS_JOL B,42,2,3,BlockProc2,Cash - Would,U,78,,,,,,,,,,20,10855,,,StudyProc8
IS_JOL B,42,2,3,BlockProc2,Discover - Floor,U,66,,,,,,,,,,20,8833,,,StudyProc8
IS_JOL B,42,2,3,BlockProc2,Kidney - Liver,S,48,,,,,,,,,,40,6934,,,StudyProc8
IS_JOL B,42,2,3,BlockProc2,Trial - Jury,S,45,,,,,,,,,,60,7530,,,StudyProc8
IS_JOL B,42,2,3,BlockProc2,Soon - Belt,U,65,,,,,,,,,,50,15132,,,StudyProc8
IS_JOL B,42,2,3,BlockProc2,Art - Lion,U,74,,,,,,,,,,50,10799,,,StudyProc8
IS_JOL B,42,2,3,BlockProc2,Dietary - Slacking,U,62,,,,,,,,,,70,8363,,,StudyProc8
IS_JOL B,42,2,3,BlockProc2,King - Vase,U,80,,,,,,,,,,30,9228,,,StudyProc8
IS_JOL B,42,2,3,BlockProc2,Pop - Soda,S,51,,,,,,,,,,60,12192,,,StudyProc8
IS_JOL B,42,2,3,BlockProc2,Honey - Bee,S,58,,,,,,,,,,60,7876,,,StudyProc8
IS_JOL B,42,2,3,BlockProc2,Circle - Round,S,60,,,,,,,,,,60,12104,,,StudyProc8
IS_JOL B,42,2,3,BlockProc2,Mind - Matter,,2,,,,,,,,,,,,,,StudyProc6
IS_JOL B,42,2,3,BlockProc2,Magician - Magic,,4,,,,,,,,,,,,,,StudyProc6
IS_JOL B,42,2,3,BlockProc2,Deaf - Hear,,3,,,,,,,,,,,,,,StudyProc6
IS_JOL B,42,2,3,BlockProc2,Contest - Competition,,5,,,,,,,,,,,,,,StudyProc6
IS_JOL B,42,2,3,BlockProc2,Deciet - Cheat,,1,,,,,,,,,,,,,,StudyProc6
IS_JOL B,42,2,3,BlockProc2,Way - ?,,11,,,,,,,path,,,,,,,recallproc2
IS_JOL B,42,2,3,BlockProc2,Wage - ?,,3,,,,,,,money,,,,,,,recallproc2
IS_JOL B,42,2,3,BlockProc2,Art - ?,,74,,,,,,,lion,,,,,,,recallproc2
IS_JOL B,42,2,3,BlockProc2,Artery - ?,,69,,,,,,,contest,,,,,,,recallproc2
IS_JOL B,42,2,3,BlockProc2,Number - ?,,42,,,,,,,amount,,,,,,,recallproc2
IS_JOL B,42,2,3,BlockProc2,Paw - ?,,10,,,,,,,dog,,,,,,,recallproc2
IS_JOL B,42,2,3,BlockProc2,Wine - ?,,52,,,,,,,cheese,,,,,,,recallproc2
IS_JOL B,42,2,3,BlockProc2,Drink - ?,,22,,,,,,,,,,,,,,recallproc2
IS_JOL B,42,2,3,BlockProc2,Hot - ?,,32,,,,,,,chili,,,,,,,recallproc2
IS_JOL B,42,2,3,BlockProc2,Park - ?,,63,,,,,,,eat,,,,,,,recallproc2
IS_JOL B,42,2,3,BlockProc2,Trial - ?,,45,,,,,,,jury,,,,,,,recallproc2
IS_JOL B,42,2,3,BlockProc2,Sleep - ?,,36,,,,,,,drowsy,,,,,,,recallproc2
IS_JOL B,42,2,3,BlockProc2,Orchid - ?,,19,,,,,,,flower,,,,,,,recallproc2
IS_JOL B,42,2,3,BlockProc2,Digestion - ?,,2,,,,,,,stomach,,,,,,,recallproc2
IS_JOL B,42,2,3,BlockProc2,Begin - ?,,49,,,,,,,end,,,,,,,recallproc2
IS_JOL B,42,2,3,BlockProc2,Soon - ?,,65,,,,,,,away,,,,,,,recallproc2
IS_JOL B,42,2,3,BlockProc2,Dump - ?,,44,,,,,,,trash,,,,,,,recallproc2
IS_JOL B,42,2,3,BlockProc2,Great - ?,,30,,,,,,,fantastic,,,,,,,recallproc2
IS_JOL B,42,2,3,BlockProc2,Bitter - ?,,7,,,,,,,cold,,,,,,,recallproc2
IS_JOL B,42,2,3,BlockProc2,Plane - ?,,39,,,,,,,pilot,,,,,,,recallproc2
IS_JOL B,42,2,3,BlockProc2,Circle - ?,,60,,,,,,,round,,,,,,,recallproc2
IS_JOL B,42,2,3,BlockProc2,Revolution - ?,,15,,,,,,,war,,,,,,,recallproc2
IS_JOL B,42,2,3,BlockProc2,Death - ?,,67,,,,,,,business,,,,,,,recallproc2
IS_JOL B,42,2,3,BlockProc2,Full - ?,,21,,,,,,,enough,,,,,,,recallproc2
IS_JOL B,42,2,3,BlockProc2,Hide - ?,,79,,,,,,,sick,,,,,,,recallproc2
IS_JOL B,42,2,3,BlockProc2,Sugar - ?,,76,,,,,,,key,,,,,,,recallproc2
IS_JOL B,42,2,3,BlockProc2,Ball - ?,,33,,,,,,,game,,,,,,,recallproc2
IS_JOL B,42,2,3,BlockProc2,Work - ?,,34,,,,,,,chore,,,,,,,recallproc2
IS_JOL B,42,2,3,BlockProc2,Take - ?,,24,,,,,,,give,,,,,,,recallproc2
IS_JOL B,42,2,3,BlockProc2,Kidney - ?,,48,,,,,,,liver,,,,,,,recallproc2
IS_JOL B,42,2,3,BlockProc2,Bathroom - ?,,53,,,,,,,toilet,,,,,,,recallproc2
IS_JOL B,42,2,3,BlockProc2,Due - ?,,41,,,,,,,assignment,,,,,,,recallproc2
IS_JOL B,42,2,3,BlockProc2,Swan - ?,,9,,,,,,,bird,,,,,,,recallproc2
IS_JOL B,42,2,3,BlockProc2,Root - ?,,8,,,,,,,plant,,,,,,,recallproc2
IS_JOL B,42,2,3,BlockProc2,Delinquent - ?,,1,,,,,,,bad,,,,,,,recallproc2
IS_JOL B,42,2,3,BlockProc2,Lift - ?,,64,,,,,,,woman,,,,,,,recallproc2
IS_JOL B,42,2,3,BlockProc2,Valley - ?,,77,,,,,,,dark,,,,,,,recallproc2
IS_JOL B,42,2,3,BlockProc2,Dietary - ?,,62,,,,,,,discipline,,,,,,,recallproc2
IS_JOL B,42,2,3,BlockProc2,Cash - ?,,78,,,,,,,money,,,,,,,recallproc2
IS_JOL B,42,2,3,BlockProc2,Key - ?,,31,,,,,,,latch,,,,,,,recallproc2
IS_JOL B,42,2,3,BlockProc2,Location - ?,,43,,,,,,,site,,,,,,,recallproc2
IS_JOL B,42,2,3,BlockProc2,Chisel - ?,,4,,,,,,,hammer,,,,,,,recallproc2
IS_JOL B,42,2,3,BlockProc2,Discussion - ?,,16,,,,,,,talk,,,,,,,recallproc2
IS_JOL B,42,2,3,BlockProc2,Fix - ?,,70,,,,,,,hand,,,,,,,recallproc2
IS_JOL B,42,2,3,BlockProc2,Herd - ?,,17,,,,,,,cow,,,,,,,recallproc2
IS_JOL B,42,2,3,BlockProc2,Hunger - ?,,35,,,,,,,famine,,,,,,,recallproc2
IS_JOL B,42,2,3,BlockProc2,Past - ?,,56,,,,,,,future,,,,,,,recallproc2
IS_JOL B,42,2,3,BlockProc2,Architecture - ?,,46,,,,,,,design,,,,,,,recallproc2
IS_JOL B,42,2,3,BlockProc2,Bridge - ?,,13,,,,,,,water,,,,,,,recallproc2
IS_JOL B,42,2,3,BlockProc2,Honey - ?,,58,,,,,,,bee,,,,,,,recallproc2
IS_JOL B,42,2,3,BlockProc2,Height - ?,,25,,,,,,,growth,,,,,,,recallproc2
IS_JOL B,42,2,3,BlockProc2,Grill - ?,,47,,,,,,,bar,,,,,,,recallproc2
IS_JOL B,42,2,3,BlockProc2,Math - ?,,28,,,,,,,problem,,,,,,,recallproc2
IS_JOL B,42,2,3,BlockProc2,Sentence - ?,,26,,,,,,,word,,,,,,,recallproc2
IS_JOL B,42,2,3,BlockProc2,Tuna - ?,,20,,,,,,,fish,,,,,,,recallproc2
IS_JOL B,42,2,3,BlockProc2,Hornet - ?,,6,,,,,,,sting,,,,,,,recallproc2
IS_JOL B,42,2,3,BlockProc2,Shoe - ?,,55,,,,,,,foot,,,,,,,recallproc2
IS_JOL B,42,2,3,BlockProc2,Blow - ?,,50,,,,,,,wind,,,,,,,recallproc2
IS_JOL B,42,2,3,BlockProc2,Fire - ?,,40,,,,,,,blaze,,,,,,,recallproc2
IS_JOL B,42,2,3,BlockProc2,Debate - ?,,68,,,,,,,discuss,,,,,,,recallproc2
IS_JOL B,42,2,3,BlockProc2,Editor - ?,,5,,,,,,,news,,,,,,,recallproc2
IS_JOL B,42,2,3,BlockProc2,Bug - ?,,27,,,,,,,wasp,,,,,,,recallproc2
IS_JOL B,42,2,3,BlockProc2,King - ?,,80,,,,,,,vase,,,,,,,recallproc2
IS_JOL B,42,2,3,BlockProc2,Machine - ?,,71,,,,,,,error,,,,,,,recallproc2
IS_JOL B,42,2,3,BlockProc2,Discover - ?,,66,,,,,,,game,,,,,,,recallproc2
IS_JOL B,42,2,3,BlockProc2,Happy - ?,,72,,,,,,,car,,,,,,,recallproc2
IS_JOL B,42,2,3,BlockProc2,Hygiene - ?,,12,,,,,,,clean,,,,,,,recallproc2
IS_JOL B,42,2,3,BlockProc2,Lettuce - ?,,54,,,,,,,salad,,,,,,,recallproc2
IS_JOL B,42,2,3,BlockProc2,Smell - ?,,37,,,,,,,stench,,,,,,,recallproc2
IS_JOL B,42,2,3,BlockProc2,Baby - ?,,59,,,,,,,child,,,,,,,recallproc2
IS_JOL B,42,2,3,BlockProc2,Geology - ?,,14,,,,,,,rock,,,,,,,recallproc2
IS_JOL B,42,2,3,BlockProc2,Strong - ?,,75,,,,,,,woman,,,,,,,recallproc2
IS_JOL B,42,2,3,BlockProc2,Pusher - ?,,61,,,,,,,bank,,,,,,,recallproc2
IS_JOL B,42,2,3,BlockProc2,Credit - ?,,18,,,,,,,card,,,,,,,recallproc2
IS_JOL B,42,2,3,BlockProc2,Pop - ?,,51,,,,,,,soda,,,,,,,recallproc2
IS_JOL B,42,2,3,BlockProc2,Law - ?,,29,,,,,,,attorney,,,,,,,recallproc2
IS_JOL B,42,2,3,BlockProc2,Clothes - ?,,38,,,,,,,cake,,,,,,,recallproc2
IS_JOL B,42,2,3,BlockProc2,Choice - ?,,57,,,,,,,desicion,,,,,,,recallproc2
IS_JOL B,42,2,3,BlockProc2,Allow - ?,,73,,,,,,,deny,,,,,,,recallproc2
IS_JOL B,42,2,3,BlockProc2,Dark - ?,,23,,,,,,,cave,,,,,,,recallproc2
IS_JOL C,43,1,,BlockProc1,Paddle-Row,,4,,,,,,,,,,,,,,Practice1
IS_JOL C,43,1,,BlockProc1,Disbelieve-Skeptic,,6,,,,,,,,,,,,,,Practice1
IS_JOL C,43,1,,BlockProc1,Chocolate-Bar,,7,,,,,,,,,,,,,,Practice1
IS_JOL C,43,1,,BlockProc1,Ham-Bone,,3,,,,,,,,,,,,,,Practice1
IS_JOL C,43,1,,BlockProc1,Fashion-Model,,10,,,,,,,,,,,,,,Practice1
IS_JOL C,43,1,,BlockProc1,Deaf-Mute,,2,,,,,,,,,,,,,,Practice1
IS_JOL C,43,1,,BlockProc1,Chime-Music,,8,,,,,,,,,,,,,,Practice1
IS_JOL C,43,1,,BlockProc1,Aardvark-Zoo,,1,,,,,,,,,,,,,,Practice1
IS_JOL C,43,1,,BlockProc1,Hinge-Swing,,5,,,,,,,,,,,,,,Practice1
IS_JOL C,43,1,,BlockProc1,Behavior-Social,,9,,,,,,,,,,,,,,Practice1
IS_JOL C,43,1,3,BlockProc1,Snow - Ice,,3,,,,,,,,,,,,,,StudyProc1
IS_JOL C,43,1,3,BlockProc1,Shrimp - Fish,,4,,,,,,,,,,,,,,StudyProc1
IS_JOL C,43,1,3,BlockProc1,Curtain - Drapes,,2,,,,,,,,,,,,,,StudyProc1
IS_JOL C,43,1,3,BlockProc1,Haircut-Scissors,,1,,,,,,,,,,,,,,StudyProc1
IS_JOL C,43,1,3,BlockProc1,Member - Group,,5,,,,,,,,,,,,,,StudyProc1
IS_JOL C,43,1,3,BlockProc1,Soda - Pop,S,51,72,31058,,,,,,,,,,,,StudyProc3
IS_JOL C,43,1,3,BlockProc1,Wind - Blow,S,50,87,12281,,,,,,,,,,,,StudyProc3
IS_JOL C,43,1,3,BlockProc1,Hand - Fix,U,70,91,14377,,,,,,,,,,,,StudyProc3
IS_JOL C,43,1,3,BlockProc1,Liver - Kidney,S,48,54,23131,,,,,,,,,,,,StudyProc3
IS_JOL C,43,1,3,BlockProc1,Bar - Grill,S,47,62,21031,,,,,,,,,,,,StudyProc3
IS_JOL C,43,1,3,BlockProc1,Decision - Choise,S,57,71,23729,,,,,,,,,,,,StudyProc3
IS_JOL C,43,1,3,BlockProc1,Would - Cash,U,78,42,20580,,,,,,,,,,,,StudyProc3
IS_JOL C,43,1,3,BlockProc1,Sick - Hide,U,79,26,10824,,,,,,,,,,,,StudyProc3
IS_JOL C,43,1,3,BlockProc1,Business - Death,U,67,61,20539,,,,,,,,,,,,StudyProc3
IS_JOL C,43,1,3,BlockProc1,Woman - Lift,U,64,37,13289,,,,,,,,,,,,StudyProc3
IS_JOL C,43,1,3,BlockProc1,Lion - Art,U,74,48,15976,,,,,,,,,,,,StudyProc3
IS_JOL C,43,1,3,BlockProc1,Floor - Discover,U,66,25,12576,,,,,,,,,,,,StudyProc3
IS_JOL C,43,1,3,BlockProc1,Sacking -Dietary,U,62,28,22956,,,,,,,,,,,,StudyProc3
IS_JOL C,43,1,3,BlockProc1,Hungry - Park,U,63,48,15191,,,,,,,,,,,,StudyProc3
IS_JOL C,43,1,3,BlockProc1,Design - Architecture,S,46,48,22192,,,,,,,,,,,,StudyProc3
IS_JOL C,43,1,3,BlockProc1,Salad - Lettuce,S,54,67,25242,,,,,,,,,,,,StudyProc3
IS_JOL C,43,1,3,BlockProc1,Child - Baby,S,59,77,26023,,,,,,,,,,,,StudyProc3
IS_JOL C,43,1,3,BlockProc1,Site - Location,S,43,71,18517,,,,,,,,,,,,StudyProc3
IS_JOL C,43,1,3,BlockProc1,Waste - Dump,S,44,62,16382,,,,,,,,,,,,StudyProc3
IS_JOL C,43,1,3,BlockProc1,Add - Valley,U,77,36,15230,,,,,,,,,,,,StudyProc3
IS_JOL C,43,1,3,BlockProc1,Bee - Honey,S,58,71,16877,,,,,,,,,,,,StudyProc3
IS_JOL C,43,1,3,BlockProc1,Future - Past,S,56,99,11217,,,,,,,,,,,,StudyProc3
IS_JOL C,43,1,3,BlockProc1,End - Begin,S,49,89,13885,,,,,,,,,,,,StudyProc3
IS_JOL C,43,1,3,BlockProc1,Bronze - Artery,U,69,61,20123,,,,,,,,,,,,StudyProc3
IS_JOL C,43,1,3,BlockProc1,Cheese - Wine,S,52,78,11585,,,,,,,,,,,,StudyProc3
IS_JOL C,43,1,3,BlockProc1,Amount - Number,S,42,84,21102,,,,,,,,,,,,StudyProc3
IS_JOL C,43,1,3,BlockProc1,Car - Happy,U,72,78,14076,,,,,,,,,,,,StudyProc3
IS_JOL C,43,1,3,BlockProc1,Clutter - Pusher,U,61,61,20123,,,,,,,,,,,,StudyProc3
IS_JOL C,43,1,3,BlockProc1,Assignment - Due,S,41,21,27850,,,,,,,,,,,,StudyProc3
IS_JOL C,43,1,3,BlockProc1,Foot - Shoe,S,55,89,18268,,,,,,,,,,,,StudyProc3
IS_JOL C,43,1,3,BlockProc1,Position - Machine,U,71,78,18799,,,,,,,,,,,,StudyProc3
IS_JOL C,43,1,3,BlockProc1,Accident - Strong,U,75,21,17388,,,,,,,,,,,,StudyProc3
IS_JOL C,43,1,3,BlockProc1,Vase - King,U,80,37,16731,,,,,,,,,,,,StudyProc3
IS_JOL C,43,1,3,BlockProc1,Tuck - Allow,U,73,21,18821,,,,,,,,,,,,StudyProc3
IS_JOL C,43,1,3,BlockProc1,Toilet - Bathroom,S,53,83,19952,,,,,,,,,,,,StudyProc3
IS_JOL C,43,1,3,BlockProc1,Round - Circle,S,60,99,14246,,,,,,,,,,,,StudyProc3
IS_JOL C,43,1,3,BlockProc1,Riddle - Sugar,U,76,62,15126,,,,,,,,,,,,StudyProc3
IS_JOL C,43,1,3,BlockProc1,Sight - Debate,U,68,51,22202,,,,,,,,,,,,StudyProc3
IS_JOL C,43,1,3,BlockProc1,Jury - Trial,S,45,92,22380,,,,,,,,,,,,StudyProc3
IS_JOL C,43,1,3,BlockProc1,Belt - Soon,U,65,53,15150,,,,,,,,,,,,StudyProc3
IS_JOL C,43,1,3,BlockProc1,Seize - Take,B,24,,,,,,,,89,19620,,,,,StudyProc7
IS_JOL C,43,1,3,BlockProc1,Bird - Swan,F,9,,,,,,,,61,18136,,,,,StudyProc7
IS_JOL C,43,1,3,BlockProc1,Latch - Key,B,31,,,,,,,,96,19728,,,,,StudyProc7
IS_JOL C,43,1,3,BlockProc1,Sting - Hornet,F,6,,,,,,,,79,19335,,,,,StudyProc7
IS_JOL C,43,1,3,BlockProc1,Flower - Orchid,F,19,,,,,,,,97,18990,,,,,StudyProc7
IS_JOL C,43,1,3,BlockProc1,Attorney - Law,B,29,,,,,,,,98,29979,,,,,StudyProc7
IS_JOL C,43,1,3,BlockProc1,Word - Sentence,B,26,,,,,,,,99,13223,,,,,StudyProc7
IS_JOL C,43,1,3,BlockProc1,Fantastic - Great,B,30,,,,,,,,99,21247,,,,,StudyProc7
IS_JOL C,43,1,3,BlockProc1,Plant - Root,F,8,,,,,,,,99,21113,,,,,StudyProc7
IS_JOL C,43,1,3,BlockProc1,Famine - Hunger,B,35,,,,,,,,100,27846,,,,,StudyProc7
IS_JOL C,43,1,3,BlockProc1,Out - Way,F,11,,,,,,,,78,21185,,,,,StudyProc7
IS_JOL C,43,1,3,BlockProc1,Sip - Drink,B,22,,,,,,,,99,25629,,,,,StudyProc7
IS_JOL C,43,1,3,BlockProc1,Chili - Hot,B,32,,,,,,,,98,17698,,,,,StudyProc7
IS_JOL C,43,1,3,BlockProc1,Stomach - Digestion,F,2,,,,,,,,78,14724,,,,,StudyProc7
IS_JOL C,43,1,3,BlockProc1,Fish - Tuna,F,20,,,,,,,,100,19440,,,,,StudyProc7
IS_JOL C,43,1,3,BlockProc1,Division - Math,B,28,,,,,,,,100,19139,,,,,StudyProc7
IS_JOL C,43,1,3,BlockProc1,Wasp - Bug,B,27,,,,,,,,100,19328,,,,,StudyProc7
IS_JOL C,43,1,3,BlockProc1,Blaze - Fire,B,40,,,,,,,,100,19617,,,,,StudyProc7
IS_JOL C,43,1,3,BlockProc1,Cold - Bitter,F,7,,,,,,,,16,22076,,,,,StudyProc7
IS_JOL C,43,1,3,BlockProc1,Cow - Herd,F,17,,,,,,,,99,17523,,,,,StudyProc7
IS_JOL C,43,1,3,BlockProc1,News - Editor,F,5,,,,,,,,83,19068,,,,,StudyProc7
IS_JOL C,43,1,3,BlockProc1,Talk - Discussion,F,16,,,,,,,,97,28621,,,,,StudyProc7
IS_JOL C,43,1,3,BlockProc1,Enough - Full,B,21,,,,,,,,82,21824,,,,,StudyProc7
IS_JOL C,43,1,3,BlockProc1,Drowsy - Sleep,B,36,,,,,,,,17,21441,,,,,StudyProc7
IS_JOL C,43,1,3,BlockProc1,Growth - Height,B,25,,,,,,,,82,21018,,,,,StudyProc7
IS_JOL C,43,1,3,BlockProc1,Dog - Paw,F,10,,,,,,,,92,12677,,,,,StudyProc7
IS_JOL C,43,1,3,BlockProc1,Card - Credit,F,18,,,,,,,,82,25708,,,,,StudyProc7
IS_JOL C,43,1,3,BlockProc1,Money - Wage,F,3,,,,,,,,99,23847,,,,,StudyProc7
IS_JOL C,43,1,3,BlockProc1,Stench - Smell,B,37,,,,,,,,74,26652,,,,,StudyProc7
IS_JOL C,43,1,3,BlockProc1,Chore - Work,B,34,,,,,,,,99,14569,,,,,StudyProc7
IS_JOL C,43,1,3,BlockProc1,Pilot - Plane,B,39,,,,,,,,90,14682,,,,,StudyProc7
IS_JOL C,43,1,3,BlockProc1,Cave - Dark,B,23,,,,,,,,89,21639,,,,,StudyProc7
IS_JOL C,43,1,3,BlockProc1,Racket - Ball,B,33,,,,,,,,91,20671,,,,,StudyProc7
IS_JOL C,43,1,3,BlockProc1,Bad - Delinquent,F,1,,,,,,,,99,24984,,,,,StudyProc7
IS_JOL C,43,1,3,BlockProc1,War - Revolution,F,15,,,,,,,,95,26407,,,,,StudyProc7
IS_JOL C,43,1,3,BlockProc1,Rock - Geology,F,14,,,,,,,,99,20341,,,,,StudyProc7
IS_JOL C,43,1,3,BlockProc1,Water - Bridge,F,13,,,,,,,,89,26779,,,,,StudyProc7
IS_JOL C,43,1,3,BlockProc1,Clean - Hygiene,F,12,,,,,,,,82,17896,,,,,StudyProc7
IS_JOL C,43,1,3,BlockProc1,Attire - Clothes,B,38,,,,,,,,99,19650,,,,,StudyProc7
IS_JOL C,43,1,3,BlockProc1,Hammer - Chisel,F,4,,,,,,,,90,22709,,,,,StudyProc7
IS_JOL C,43,1,3,BlockProc1,Grab - Take,,2,,,,,,,,,,,,,,StudyProc2
IS_JOL C,43,1,3,BlockProc1,Catcher - Baseball,,4,,,,,,,,,,,,,,StudyProc2
IS_JOL C,43,1,3,BlockProc1,Friendliness - Nice,,3,,,,,,,,,,,,,,StudyProc2
IS_JOL C,43,1,3,BlockProc1,Trees - Green,,5,,,,,,,,,,,,,,StudyProc2
IS_JOL C,43,1,3,BlockProc1,Geese - Goose,,1,,,,,,,,,,,,,,StudyProc2
IS_JOL C,43,1,3,BlockProc1,Belt - ?,,65,,,,,soon,6977,,,,,,,,recallproc1
IS_JOL C,43,1,3,BlockProc1,Wind - ?,,50,,,,,blow,3962,,,,,,,,recallproc1
IS_JOL C,43,1,3,BlockProc1,Pilot - ?,,39,,,,,plane,2279,,,,,,,,recallproc1
IS_JOL C,43,1,3,BlockProc1,Bad - ?,,1,,,,,delinquent,5545,,,,,,,,recallproc1
IS_JOL C,43,1,3,BlockProc1,Latch - ?,,31,,,,,key,2324,,,,,,,,recallproc1
IS_JOL C,43,1,3,BlockProc1,Drowsy - ?,,36,,,,,sleep,2228,,,,,,,,recallproc1
IS_JOL C,43,1,3,BlockProc1,Flower - ?,,19,,,,,orchid,2792,,,,,,,,recallproc1
IS_JOL C,43,1,3,BlockProc1,News - ?,,5,,,,,editor,4404,,,,,,,,recallproc1
IS_JOL C,43,1,3,BlockProc1,Chili - ?,,32,,,,,hot,2359,,,,,,,,recallproc1
IS_JOL C,43,1,3,BlockProc1,Bar - ?,,47,,,,,grll,5437,,,,,,,,recallproc1
IS_JOL C,43,1,3,BlockProc1,Toilet - ?,,53,,,,,bathroom,2950,,,,,,,,recallproc1
IS_JOL C,43,1,3,BlockProc1,Jury - ?,,45,,,,,trial,3581,,,,,,,,recallproc1
IS_JOL C,43,1,3,BlockProc1,Bronze - ?,,69,,,,,medal,4281,,,,,,,,recallproc1
IS_JOL C,43,1,3,BlockProc1,Talk - ?,,16,,,,,discussion,4488,,,,,,,,recallproc1
IS_JOL C,43,1,3,BlockProc1,Waste - ?,,44,,,,,dump,7367,,,,,,,,recallproc1
IS_JOL C,43,1,3,BlockProc1,Bird - ?,,9,,,,,swan,2897,,,,,,,,recallproc1
IS_JOL C,43,1,3,BlockProc1,Floor - ?,,66,,,,,ground,6337,,,,,,,,recallproc1
IS_JOL C,43,1,3,BlockProc1,Rock - ?,,14,,,,,geology,3405,,,,,,,,recallproc1
IS_JOL C,43,1,3,BlockProc1,Woman - ?,,64,,,,,girl,4344,,,,,,,,recallproc1
IS_JOL C,43,1,3,BlockProc1,Out - ?,,11,,,,,way,1757,,,,,,,,recallproc1
IS_JOL C,43,1,3,BlockProc1,Would - ?,,78,,,,,should,2900,,,,,,,,recallproc1
IS_JOL C,43,1,3,BlockProc1,Hammer - ?,,4,,,,,chisel,2436,,,,,,,,recallproc1
IS_JOL C,43,1,3,BlockProc1,War - ?,,15,,,,,revolution,3727,,,,,,,,recallproc1
IS_JOL C,43,1,3,BlockProc1,Accident - ?,,75,,,,,car,3453,,,,,,,,recallproc1
IS_JOL C,43,1,3,BlockProc1,Division - ?,,28,,,,,math,2079,,,,,,,,recallproc1
IS_JOL C,43,1,3,BlockProc1,Hand - ?,,70,,,,,rach,2777,,,,,,,,recallproc1
IS_JOL C,43,1,3,BlockProc1,Liver - ?,,48,,,,,stomach,4286,,,,,,,,recallproc1
IS_JOL C,43,1,3,BlockProc1,Hungry - ?,,63,,,,,food,4062,,,,,,,,recallproc1
IS_JOL C,43,1,3,BlockProc1,Stench - ?,,37,,,,,smell,3070,,,,,,,,recallproc1
IS_JOL C,43,1,3,BlockProc1,Bee - ?,,58,,,,,honey,3447,,,,,,,,recallproc1
IS_JOL C,43,1,3,BlockProc1,Foot - ?,,55,,,,,shoe,2505,,,,,,,,recallproc1
IS_JOL C,43,1,3,BlockProc1,Tuck - ?,,73,,,,,jump,2033,,,,,,,,recallproc1
IS_JOL C,43,1,3,BlockProc1,Growth - ?,,25,,,,,root,2909,,,,,,,,recallproc1
IS_JOL C,43,1,3,BlockProc1,Seize - ?,,24,,,,,take,2085,,,,,,,,recallproc1
IS_JOL C,43,1,3,BlockProc1,End - ?,,49,,,,,begin,4207,,,,,,,,recallproc1
IS_JOL C,43,1,3,BlockProc1,Cow - ?,,17,,,,,herd,2306,,,,,,,,recallproc1
IS_JOL C,43,1,3,BlockProc1,Soda - ?,,51,,,,,pp,3034,,,,,,,,recallproc1
IS_JOL C,43,1,3,BlockProc1,Clutter - ?,,61,,,,,mess,2613,,,,,,,,recallproc1
IS_JOL C,43,1,3,BlockProc1,Cheese - ?,,52,,,,,wine,1881,,,,,,,,recallproc1
IS_JOL C,43,1,3,BlockProc1,Attorney - ?,,29,,,,,law,1739,,,,,,,,recallproc1
IS_JOL C,43,1,3,BlockProc1,Stomach - ?,,2,,,,,digestion,3930,,,,,,,,recallproc1
IS_JOL C,43,1,3,BlockProc1,Round - ?,,60,,,,,circle,2840,,,,,,,,recallproc1
IS_JOL C,43,1,3,BlockProc1,Amount - ?,,42,,,,,number,3419,,,,,,,,recallproc1
IS_JOL C,43,1,3,BlockProc1,Money - ?,,3,,,,,cash,3286,,,,,,,,recallproc1
IS_JOL C,43,1,3,BlockProc1,Racket - ?,,33,,,,,ball,1895,,,,,,,,recallproc1
IS_JOL C,43,1,3,BlockProc1,Lion - ?,,74,,,,,prey,2353,,,,,,,,recallproc1
IS_JOL C,43,1,3,BlockProc1,Assignment - ?,,41,,,,,due,2071,,,,,,,,recallproc1
IS_JOL C,43,1,3,BlockProc1,Attire - ?,,38,,,,,clothes,2761,,,,,,,,recallproc1
IS_JOL C,43,1,3,BlockProc1,Wasp - ?,,27,,,,,bee,1800,,,,,,,,recallproc1
IS_JOL C,43,1,3,BlockProc1,Sip - ?,,22,,,,,drink,2237,,,,,,,,recallproc1
IS_JOL C,43,1,3,BlockProc1,Position - ?,,71,,,,,set,3448,,,,,,,,recallproc1
IS_JOL C,43,1,3,BlockProc1,Water - ?,,13,,,,,bridge,2641,,,,,,,,recallproc1
IS_JOL C,43,1,3,BlockProc1,Child - ?,,59,,,,,baby,2084,,,,,,,,recallproc1
IS_JOL C,43,1,3,BlockProc1,Famine - ?,,35,,,,,hunger,4543,,,,,,,,recallproc1
IS_JOL C,43,1,3,BlockProc1,Riddle - ?,,76,,,,,words,2339,,,,,,,,recallproc1
IS_JOL C,43,1,3,BlockProc1,Car - ?,,72,,,,,drive,2210,,,,,,,,recallproc1
IS_JOL C,43,1,3,BlockProc1,Sting - ?,,6,,,,,bee,1902,,,,,,,,recallproc1
IS_JOL C,43,1,3,BlockProc1,Vase - ?,,80,,,,,car,4623,,,,,,,,recallproc1
IS_JOL C,43,1,3,BlockProc1,Dog - ?,,10,,,,,paw,1928,,,,,,,,recallproc1
IS_JOL C,43,1,3,BlockProc1,Chore - ?,,34,,,,,work,1880,,,,,,,,recallproc1
IS_JOL C,43,1,3,BlockProc1,Clean - ?,,12,,,,,chore,5899,,,,,,,,recallproc1
IS_JOL C,43,1,3,BlockProc1,Word - ?,,26,,,,,sentence,2545,,,,,,,,recallproc1
IS_JOL C,43,1,3,BlockProc1,Add - ?,,77,,,,,subtract,3503,,,,,,,,recallproc1
IS_JOL C,43,1,3,BlockProc1,Enough - ?,,21,,,,,full,3126,,,,,,,,recallproc1
IS_JOL C,43,1,3,BlockProc1,Plant - ?,,8,,,,,root,2701,,,,,,,,recallproc1
IS_JOL C,43,1,3,BlockProc1,Design - ?,,46,,,,,architecture,4615,,,,,,,,recallproc1
IS_JOL C,43,1,3,BlockProc1,Salad - ?,,54,,,,,lettuce,2688,,,,,,,,recallproc1
IS_JOL C,43,1,3,BlockProc1,Cave - ?,,23,,,,,dark,3001,,,,,,,,recallproc1
IS_JOL C,43,1,3,BlockProc1,Decision - ?,,57,,,,,choice,2317,,,,,,,,recallproc1
IS_JOL C,43,1,3,BlockProc1,Fish - ?,,20,,,,,tuna,2045,,,,,,,,recallproc1
IS_JOL C,43,1,3,BlockProc1,Business - ?,,67,,,,,car,2168,,,,,,,,recallproc1
IS_JOL C,43,1,3,BlockProc1,Fantastic - ?,,30,,,,,great,2600,,,,,,,,recallproc1
IS_JOL C,43,1,3,BlockProc1,Sight - ?,,68,,,,,see,1724,,,,,,,,recallproc1
IS_JOL C,43,1,3,BlockProc1,Sick - ?,,79,,,,,cold,2316,,,,,,,,recallproc1
IS_JOL C,43,1,3,BlockProc1,Future - ?,,56,,,,,past,2020,,,,,,,,recallproc1
IS_JOL C,43,1,3,BlockProc1,Card - ?,,18,,,,,credit,2176,,,,,,,,recallproc1
IS_JOL C,43,1,3,BlockProc1,Sacking - ?,,62,,,,,ball,3414,,,,,,,,recallproc1
IS_JOL C,43,1,3,BlockProc1,Cold - ?,,7,,,,,hot,4249,,,,,,,,recallproc1
IS_JOL C,43,1,3,BlockProc1,Blaze - ?,,40,,,,,fire,4490,,,,,,,,recallproc1
IS_JOL C,43,1,3,BlockProc1,Site - ?,,43,,,,,location,4009,,,,,,,,recallproc1
IS_JOL C,43,2,3,BlockProc2,Hide - Scare,,2,,,,,,,,,,,,,,StudyProc4
IS_JOL C,43,2,3,BlockProc2,Essay - Write,,4,,,,,,,,,,,,,,StudyProc4
IS_JOL C,43,2,3,BlockProc2,Disintegrate - Disappear,,3,,,,,,,,,,,,,,StudyProc4
IS_JOL C,43,2,3,BlockProc2,Malt - Chocolate,,5,,,,,,,,,,,,,,StudyProc4
IS_JOL C,43,2,3,BlockProc2,Sheriff - Police,,1,,,,,,,,,,,,,,StudyProc4
IS_JOL C,43,2,3,BlockProc2,Joke - Keys,U,70,,,36,18334,,,,,,,,,,StudyProc5
IS_JOL C,43,2,3,BlockProc2,Bracelet - Wrist,S,45,,,100,8406,,,,,,,,,,StudyProc5
IS_JOL C,43,2,3,BlockProc2,Clothes - Cake,U,71,,,62,7077,,,,,,,,,,StudyProc5
IS_JOL C,43,2,3,BlockProc2,Cloth - Stretch,U,62,,,67,10202,,,,,,,,,,StudyProc5
IS_JOL C,43,2,3,BlockProc2,Jar - Mason,S,43,,,100,8567,,,,,,,,,,StudyProc5
IS_JOL C,43,2,3,BlockProc2,Lonely - Alone,S,50,,,100,16423,,,,,,,,,,StudyProc5
IS_JOL C,43,2,3,BlockProc2,Toil - Lease,U,75,,,23,12101,,,,,,,,,,StudyProc5
IS_JOL C,43,2,3,BlockProc2,Sign - Loan,U,76,,,25,14252,,,,,,,,,,StudyProc5
IS_JOL C,43,2,3,BlockProc2,Communication - Phone,S,54,,,100,6756,,,,,,,,,,StudyProc5
IS_JOL C,43,2,3,BlockProc2,Reel - Rod,S,55,,,67,11470,,,,,,,,,,StudyProc5
IS_JOL C,43,2,3,BlockProc2,Drink - Water,S,48,,,100,9047,,,,,,,,,,StudyProc5
IS_JOL C,43,2,3,BlockProc2,Wax - Candle,S,44,,,100,14980,,,,,,,,,,StudyProc5
IS_JOL C,43,2,3,BlockProc2,Seatbelt - Safety,S,52,,,56,11013,,,,,,,,,,StudyProc5
IS_JOL C,43,2,3,BlockProc2,Shake - Shell,U,68,,,97,10929,,,,,,,,,,StudyProc5
IS_JOL C,43,2,3,BlockProc2,Fiction - Listen,U,69,,,65,8936,,,,,,,,,,StudyProc5
IS_JOL C,43,2,3,BlockProc2,Wet - Dry,S,51,,,19,21321,,,,,,,,,,StudyProc5
IS_JOL C,43,2,3,BlockProc2,Charm - Vehicle,U,65,,,37,17823,,,,,,,,,,StudyProc5
IS_JOL C,43,2,3,BlockProc2,Equal - Rights,S,42,,,100,9052,,,,,,,,,,StudyProc5
IS_JOL C,43,2,3,BlockProc2,Tan - Sun,S,60,,,100,9680,,,,,,,,,,StudyProc5
IS_JOL C,43,2,3,BlockProc2,Ounce - Both,U,77,,,62,8898,,,,,,,,,,StudyProc5
IS_JOL C,43,2,3,BlockProc2,Ground - Earth,S,49,,,72,12101,,,,,,,,,,StudyProc5
IS_JOL C,43,2,3,BlockProc2,Scar - Main,U,80,,,23,11236,,,,,,,,,,StudyProc5
IS_JOL C,43,2,3,BlockProc2,Noise - Loud,S,57,,,73,11999,,,,,,,,,,StudyProc5
IS_JOL C,43,2,3,BlockProc2,Tick - Flea,S,56,,,78,11642,,,,,,,,,,StudyProc5
IS_JOL C,43,2,3,BlockProc2,Bang - Fuzzy,U,73,,,82,9548,,,,,,,,,,StudyProc5
IS_JOL C,43,2,3,BlockProc2,Maroon - Justice,U,61,,,26,8868,,,,,,,,,,StudyProc5
IS_JOL C,43,2,3,BlockProc2,Able - Crackle,U,67,,,75,13064,,,,,,,,,,StudyProc5
IS_JOL C,43,2,3,BlockProc2,Have - Own,S,58,,,82,13464,,,,,,,,,,StudyProc5
IS_JOL C,43,2,3,BlockProc2,Clear - Moat,U,74,,,27,8559,,,,,,,,,,StudyProc5
IS_JOL C,43,2,3,BlockProc2,Children - Mirror,U,79,,,26,10744,,,,,,,,,,StudyProc5
IS_JOL C,43,2,3,BlockProc2,Hate - Name,U,72,,,27,7991,,,,,,,,,,StudyProc5
IS_JOL C,43,2,3,BlockProc2,Morning - Temperature,U,78,,,99,9535,,,,,,,,,,StudyProc5
IS_JOL C,43,2,3,BlockProc2,Lie - Truth,S,53,,,99,11591,,,,,,,,,,StudyProc5
IS_JOL C,43,2,3,BlockProc2,Steak - Give,U,63,,,72,5860,,,,,,,,,,StudyProc5
IS_JOL C,43,2,3,BlockProc2,Shave - Razor,S,41,,,100,11146,,,,,,,,,,StudyProc5
IS_JOL C,43,2,3,BlockProc2,Carbon - Element,S,46,,,99,9729,,,,,,,,,,StudyProc5
IS_JOL C,43,2,3,BlockProc2,Temper - Tantrum,S,59,,,92,10057,,,,,,,,,,StudyProc5
IS_JOL C,43,2,3,BlockProc2,Obtain - Meat,U,66,,,82,9252,,,,,,,,,,StudyProc5
IS_JOL C,43,2,3,BlockProc2,Away - Gone,S,47,,,99,16304,,,,,,,,,,StudyProc5
IS_JOL C,43,2,3,BlockProc2,Election - Maze,U,64,,,27,13179,,,,,,,,,,StudyProc5
IS_JOL C,43,2,3,BlockProc2,Trash - Litter,B,8,,,,,,,,,,99,11304,,,StudyProc8
IS_JOL C,43,2,3,BlockProc2,Paper - Document,B,14,,,,,,,,,,92,11736,,,StudyProc8
IS_JOL C,43,2,3,BlockProc2,Thimble - Thread,F,26,,,,,,,,,,89,8894,,,StudyProc8
IS_JOL C,43,2,3,BlockProc2,Smell - Incense,B,15,,,,,,,,,,72,9121,,,StudyProc8
IS_JOL C,43,2,3,BlockProc2,Mystery - Detective,B,5,,,,,,,,,,99,10578,,,StudyProc8
IS_JOL C,43,2,3,BlockProc2,End - Adjourn,B,6,,,,,,,,,,72,12951,,,StudyProc8
IS_JOL C,43,2,3,BlockProc2,Scissors - Shears,B,17,,,,,,,,,,82,15820,,,StudyProc8
IS_JOL C,43,2,3,BlockProc2,Cut - Chop,B,12,,,,,,,,,,77,18523,,,StudyProc8
IS_JOL C,43,2,3,BlockProc2,Tie - Shoelace,B,4,,,,,,,,,,99,4571,,,StudyProc8
IS_JOL C,43,2,3,BlockProc2,Penguin - Bird,F,24,,,,,,,,,,100,6583,,,StudyProc8
IS_JOL C,43,2,3,BlockProc2,Favorite - Best,F,30,,,,,,,,,,99,10864,,,StudyProc8
IS_JOL C,43,2,3,BlockProc2,Brawl - Fight,F,40,,,,,,,,,,99,10882,,,StudyProc8
IS_JOL C,43,2,3,BlockProc2,Panther - Cat,F,31,,,,,,,,,,100,9515,,,StudyProc8
IS_JOL C,43,2,3,BlockProc2,Fight - Feud,B,18,,,,,,,,,,99,13324,,,StudyProc8
IS_JOL C,43,2,3,BlockProc2,Flip - Turn,F,21,,,,,,,,,,76,10658,,,StudyProc8
IS_JOL C,43,2,3,BlockProc2,Revenge - Even,F,27,,,,,,,,,,82,15140,,,StudyProc8
IS_JOL C,43,2,3,BlockProc2,Cold - Chill,B,19,,,,,,,,,,92,15431,,,StudyProc8
IS_JOL C,43,2,3,BlockProc2,Truthful - Honest,F,38,,,,,,,,,,99,13270,,,StudyProc8
IS_JOL C,43,2,3,BlockProc2,Aircraft - Plane,F,34,,,,,,,,,,82,14006,,,StudyProc8
IS_JOL C,43,2,3,BlockProc2,Balloon - Pop,F,28,,,,,,,,,,82,7679,,,StudyProc8
IS_JOL C,43,2,3,BlockProc2,Plant - Cactus,B,3,,,,,,,,,,83,11163,,,StudyProc8
IS_JOL C,43,2,3,BlockProc2,Long - Extension,B,1,,,,,,,,,,82,13521,,,StudyProc8
IS_JOL C,43,2,3,BlockProc2,Actress - Star,F,25,,,,,,,,,,89,11998,,,StudyProc8
IS_JOL C,43,2,3,BlockProc2,Dog - Furry,B,7,,,,,,,,,,99,8793,,,StudyProc8
IS_JOL C,43,2,3,BlockProc2,Windshield - Car,F,22,,,,,,,,,,100,13040,,,StudyProc8
IS_JOL C,43,2,3,BlockProc2,Car - Driver,B,11,,,,,,,,,,72,8185,,,StudyProc8
IS_JOL C,43,2,3,BlockProc2,Banker - Money,F,37,,,,,,,,,,100,6841,,,StudyProc8
IS_JOL C,43,2,3,BlockProc2,Coffin - Dead,F,33,,,,,,,,,,57,14215,,,StudyProc8
IS_JOL C,43,2,3,BlockProc2,League - Baseball,F,36,,,,,,,,,,99,7392,,,StudyProc8
IS_JOL C,43,2,3,BlockProc2,Breakable - Glass,F,32,,,,,,,,,,100,8255,,,StudyProc8
IS_JOL C,43,2,3,BlockProc2,Villain - Bad,F,23,,,,,,,,,,89,13876,,,StudyProc8
IS_JOL C,43,2,3,BlockProc2,Love - Affection,B,20,,,,,,,,,,100,6315,,,StudyProc8
IS_JOL C,43,2,3,BlockProc2,Eat - Dine,B,16,,,,,,,,,,100,15800,,,StudyProc8
IS_JOL C,43,2,3,BlockProc2,Head - Scalp,B,10,,,,,,,,,,100,10919,,,StudyProc8
IS_JOL C,43,2,3,BlockProc2,Sardine - Fish,F,35,,,,,,,,,,100,10743,,,StudyProc8
IS_JOL C,43,2,3,BlockProc2,Game - Clue,B,2,,,,,,,,,,,6142,,,StudyProc8
IS_JOL C,43,2,3,BlockProc2,Strawberry - Fruit,F,29,,,,,,,,,,100,3809,,,StudyProc8
IS_JOL C,43,2,3,BlockProc2,Red - Cherry,B,9,,,,,,,,,,100,6756,,,StudyProc8
IS_JOL C,43,2,3,BlockProc2,Nap - Sleep,F,39,,,,,,,,,,100,11031,,,StudyProc8
IS_JOL C,43,2,3,BlockProc2,Donkey - Mule,B,13,,,,,,,,,,100,7762,,,StudyProc8
IS_JOL C,43,2,3,BlockProc2,Deciet - Cheat,,1,,,,,,,,,,,,,,StudyProc6
IS_JOL C,43,2,3,BlockProc2,Contest - Competition,,5,,,,,,,,,,,,,,StudyProc6
IS_JOL C,43,2,3,BlockProc2,Mind - Matter,,2,,,,,,,,,,,,,,StudyProc6
IS_JOL C,43,2,3,BlockProc2,Magician - Magic,,4,,,,,,,,,,,,,,StudyProc6
IS_JOL C,43,2,3,BlockProc2,Deaf - Hear,,3,,,,,,,,,,,,,,StudyProc6
IS_JOL C,43,2,3,BlockProc2,Have - ?,,58,,,,,,,not,,,,,,,recallproc2
IS_JOL C,43,2,3,BlockProc2,Joke - ?,,70,,,,,,,funny,,,,,,,recallproc2
IS_JOL C,43,2,3,BlockProc2,Morning - ?,,78,,,,,,,night,,,,,,,recallproc2
IS_JOL C,43,2,3,BlockProc2,Drink - ?,,48,,,,,,,water,,,,,,,recallproc2
IS_JOL C,43,2,3,BlockProc2,Charm - ?,,65,,,,,,,bracelet,,,,,,,recallproc2
IS_JOL C,43,2,3,BlockProc2,Red - ?,,9,,,,,,,cherry,,,,,,,recallproc2
IS_JOL C,43,2,3,BlockProc2,Eat - ?,,16,,,,,,,drink,,,,,,,recallproc2
IS_JOL C,43,2,3,BlockProc2,Flip - ?,,21,,,,,,,turn,,,,,,,recallproc2
IS_JOL C,43,2,3,BlockProc2,Nap - ?,,39,,,,,,,sleep,,,,,,,recallproc2
IS_JOL C,43,2,3,BlockProc2,Smell - ?,,15,,,,,,,stench,,,,,,,recallproc2
IS_JOL C,43,2,3,BlockProc2,Donkey - ?,,13,,,,,,,mule,,,,,,,recallproc2
IS_JOL C,43,2,3,BlockProc2,League - ?,,36,,,,,,,baseball,,,,,,,recallproc2
IS_JOL C,43,2,3,BlockProc2,Penguin - ?,,24,,,,,,,bird,,,,,,,recallproc2
IS_JOL C,43,2,3,BlockProc2,Cold - ?,,19,,,,,,,chill,,,,,,,recallproc2
IS_JOL C,43,2,3,BlockProc2,Shake - ?,,68,,,,,,,drop,,,,,,,recallproc2
IS_JOL C,43,2,3,BlockProc2,Carbon - ?,,46,,,,,,,element,,,,,,,recallproc2
IS_JOL C,43,2,3,BlockProc2,Jar - ?,,43,,,,,,,mason,,,,,,,recallproc2
IS_JOL C,43,2,3,BlockProc2,Banker - ?,,37,,,,,,,money,,,,,,,recallproc2
IS_JOL C,43,2,3,BlockProc2,Wet - ?,,51,,,,,,,dry,,,,,,,recallproc2
IS_JOL C,43,2,3,BlockProc2,Coffin - ?,,33,,,,,,,dead,,,,,,,recallproc2
IS_JOL C,43,2,3,BlockProc2,Tick - ?,,56,,,,,,,flea,,,,,,,recallproc2
IS_JOL C,43,2,3,BlockProc2,Toil - ?,,75,,,,,,,oil,,,,,,,recallproc2
IS_JOL C,43,2,3,BlockProc2,Fight - ?,,18,,,,,,,brawl,,,,,,,recallproc2
IS_JOL C,43,2,3,BlockProc2,Lonely - ?,,50,,,,,,,alone,,,,,,,recallproc2
IS_JOL C,43,2,3,BlockProc2,Paper - ?,,14,,,,,,,document,,,,,,,recallproc2
IS_JOL C,43,2,3,BlockProc2,Revenge - ?,,27,,,,,,,even,,,,,,,recallproc2
IS_JOL C,43,2,3,BlockProc2,Sign - ?,,76,,,,,,,turn,,,,,,,recallproc2
IS_JOL C,43,2,3,BlockProc2,End - ?,,6,,,,,,,begin,,,,,,,recallproc2
IS_JOL C,43,2,3,BlockProc2,Hate - ?,,72,,,,,,,date,,,,,,,recallproc2
IS_JOL C,43,2,3,BlockProc2,Dog - ?,,7,,,,,,,paw,,,,,,,recallproc2
IS_JOL C,43,2,3,BlockProc2,Cut - ?,,12,,,,,,,chp,,,,,,,recallproc2
IS_JOL C,43,2,3,BlockProc2,Aircraft - ?,,34,,,,,,,plane,,,,,,,recallproc2
IS_JOL C,43,2,3,BlockProc2,Temper - ?,,59,,,,,,,tantrum,,,,,,,recallproc2
IS_JOL C,43,2,3,BlockProc2,Shave - ?,,41,,,,,,,razor,,,,,,,recallproc2
IS_JOL C,43,2,3,BlockProc2,Noise - ?,,57,,,,,,,lod,,,,,,,recallproc2
IS_JOL C,43,2,3,BlockProc2,Election - ?,,64,,,,,,,vote,,,,,,,recallproc2
IS_JOL C,43,2,3,BlockProc2,Panther - ?,,31,,,,,,,cat,,,,,,,recallproc2
IS_JOL C,43,2,3,BlockProc2,Bracelet - ?,,45,,,,,,,wrist,,,,,,,recallproc2
IS_JOL C,43,2,3,BlockProc2,Children - ?,,79,,,,,,,baby,,,,,,,recallproc2
IS_JOL C,43,2,3,BlockProc2,Favorite - ?,,30,,,,,,,hate,,,,,,,recallproc2
IS_JOL C,43,2,3,BlockProc2,Strawberry - ?,,29,,,,,,,red,,,,,,,recallproc2
IS_JOL C,43,2,3,BlockProc2,Trash - ?,,8,,,,,,,watee,,,,,,,recallproc2
IS_JOL C,43,2,3,BlockProc2,Ground - ?,,49,,,,,,,earth,,,,,,,recallproc2
IS_JOL C,43,2,3,BlockProc2,Able - ?,,67,,,,,,,not,,,,,,,recallproc2
IS_JOL C,43,2,3,BlockProc2,Cloth - ?,,62,,,,,,,clothes,,,,,,,recallproc2
IS_JOL C,43,2,3,BlockProc2,Scar - ?,,80,,,,,,,far,,,,,,,recallproc2
IS_JOL C,43,2,3,BlockProc2,Fiction - ?,,69,,,,,,,book,,,,,,,recallproc2
IS_JOL C,43,2,3,BlockProc2,Away - ?,,47,,,,,,,gone,,,,,,,recallproc2
IS_JOL C,43,2,3,BlockProc2,Love - ?,,20,,,,,,,affection,,,,,,,recallproc2
IS_JOL C,43,2,3,BlockProc2,Mystery - ?,,5,,,,,,,detective,,,,,,,recallproc2
IS_JOL C,43,2,3,BlockProc2,Thimble - ?,,26,,,,,,,thread,,,,,,,recallproc2
IS_JOL C,43,2,3,BlockProc2,Wax - ?,,44,,,,,,,candle,,,,,,,recallproc2
IS_JOL C,43,2,3,BlockProc2,Plant - ?,,3,,,,,,,root,,,,,,,recallproc2
IS_JOL C,43,2,3,BlockProc2,Car - ?,,11,,,,,,,driver,,,,,,,recallproc2
IS_JOL C,43,2,3,BlockProc2,Brawl - ?,,40,,,,,,,fight,,,,,,,recallproc2
IS_JOL C,43,2,3,BlockProc2,Reel - ?,,55,,,,,,,rod,,,,,,,recallproc2
IS_JOL C,43,2,3,BlockProc2,Tan - ?,,60,,,,,,,sun,,,,,,,recallproc2
IS_JOL C,43,2,3,BlockProc2,Breakable - ?,,32,,,,,,,glass,,,,,,,recallproc2
IS_JOL C,43,2,3,BlockProc2,Actress - ?,,25,,,,,,,star,,,,,,,recallproc2
IS_JOL C,43,2,3,BlockProc2,Steak - ?,,63,,,,,,,food,,,,,,,recallproc2
IS_JOL C,43,2,3,BlockProc2,Ounce - ?,,77,,,,,,,pund,,,,,,,recallproc2
IS_JOL C,43,2,3,BlockProc2,Clear - ?,,74,,,,,,,moat,,,,,,,recallproc2
IS_JOL C,43,2,3,BlockProc2,Windshield - ?,,22,,,,,,,car,,,,,,,recallproc2
IS_JOL C,43,2,3,BlockProc2,Maroon - ?,,61,,,,,,,red,,,,,,,recallproc2
IS_JOL C,43,2,3,BlockProc2,Long - ?,,1,,,,,,,extension,,,,,,,recallproc2
IS_JOL C,43,2,3,BlockProc2,Clothes - ?,,71,,,,,,,cloth,,,,,,,recallproc2
IS_JOL C,43,2,3,BlockProc2,Balloon - ?,,28,,,,,,,float,,,,,,,recallproc2
IS_JOL C,43,2,3,BlockProc2,Obtain - ?,,66,,,,,,,take,,,,,,,recallproc2
IS_JOL C,43,2,3,BlockProc2,Tie - ?,,4,,,,,,,die,,,,,,,recallproc2
IS_JOL C,43,2,3,BlockProc2,Game - ?,,2,,,,,,,ball,,,,,,,recallproc2
IS_JOL C,43,2,3,BlockProc2,Sardine - ?,,35,,,,,,,fish,,,,,,,recallproc2
IS_JOL C,43,2,3,BlockProc2,Lie - ?,,53,,,,,,,truth,,,,,,,recallproc2
IS_JOL C,43,2,3,BlockProc2,Villain - ?,,23,,,,,,,bad,,,,,,,recallproc2
IS_JOL C,43,2,3,BlockProc2,Scissors - ?,,17,,,,,,,shred,,,,,,,recallproc2
IS_JOL C,43,2,3,BlockProc2,Communication - ?,,54,,,,,,,talk,,,,,,,recallproc2
IS_JOL C,43,2,3,BlockProc2,Truthful - ?,,38,,,,,,,llie,,,,,,,recallproc2
IS_JOL C,43,2,3,BlockProc2,Seatbelt - ?,,52,,,,,,,car,,,,,,,recallproc2
IS_JOL C,43,2,3,BlockProc2,Equal - ?,,42,,,,,,,rights,,,,,,,recallproc2
IS_JOL C,43,2,3,BlockProc2,Bang - ?,,73,,,,,,,boom,,,,,,,recallproc2
IS_JOL C,43,2,3,BlockProc2,Head - ?,,10,,,,,,,scalp,,,,,,,recallproc2
IS_JOL D,44,1,,BlockProc1,Hinge-Swing,,5,,,,,,,,,,,,,,Practice1
IS_JOL D,44,1,,BlockProc1,Behavior-Social,,9,,,,,,,,,,,,,,Practice1
IS_JOL D,44,1,,BlockProc1,Chime-Music,,8,,,,,,,,,,,,,,Practice1
IS_JOL D,44,1,,BlockProc1,Disbelieve-Skeptic,,6,,,,,,,,,,,,,,Practice1
IS_JOL D,44,1,,BlockProc1,Chocolate-Bar,,7,,,,,,,,,,,,,,Practice1
IS_JOL D,44,1,,BlockProc1,Fashion-Model,,10,,,,,,,,,,,,,,Practice1
IS_JOL D,44,1,,BlockProc1,Deaf-Mute,,2,,,,,,,,,,,,,,Practice1
IS_JOL D,44,1,,BlockProc1,Paddle-Row,,4,,,,,,,,,,,,,,Practice1
IS_JOL D,44,1,,BlockProc1,Ham-Bone,,3,,,,,,,,,,,,,,Practice1
IS_JOL D,44,1,,BlockProc1,Aardvark-Zoo,,1,,,,,,,,,,,,,,Practice1
IS_JOL D,44,1,3,BlockProc1,Shrimp - Fish,,4,,,,,,,,,,,,,,StudyProc1
IS_JOL D,44,1,3,BlockProc1,Haircut-Scissors,,1,,,,,,,,,,,,,,StudyProc1
IS_JOL D,44,1,3,BlockProc1,Member - Group,,5,,,,,,,,,,,,,,StudyProc1
IS_JOL D,44,1,3,BlockProc1,Snow - Ice,,3,,,,,,,,,,,,,,StudyProc1
IS_JOL D,44,1,3,BlockProc1,Curtain - Drapes,,2,,,,,,,,,,,,,,StudyProc1
IS_JOL D,44,1,3,BlockProc1,Head - Scalp,B,10,100,3486,,,,,,,,,,,,StudyProc3
IS_JOL D,44,1,3,BlockProc1,Penguin - Bird,F,24,100,3502,,,,,,,,,,,,StudyProc3
IS_JOL D,44,1,3,BlockProc1,Truthful - Honest,F,38,100,3718,,,,,,,,,,,,StudyProc3
IS_JOL D,44,1,3,BlockProc1,Nap - Sleep,F,39,100,3749,,,,,,,,,,,,StudyProc3
IS_JOL D,44,1,3,BlockProc1,League - Baseball,F,36,100,4490,,,,,,,,,,,,StudyProc3
IS_JOL D,44,1,3,BlockProc1,Trash - Litter,B,8,100,5385,,,,,,,,,,,,StudyProc3
IS_JOL D,44,1,3,BlockProc1,Aircraft - Plane,F,34,100,4476,,,,,,,,,,,,StudyProc3
IS_JOL D,44,1,3,BlockProc1,Flip - Turn,F,21,95,7635,,,,,,,,,,,,StudyProc3
IS_JOL D,44,1,3,BlockProc1,Coffin - Dead,F,33,100,3106,,,,,,,,,,,,StudyProc3
IS_JOL D,44,1,3,BlockProc1,Long - Extension,B,1,100,5041,,,,,,,,,,,,StudyProc3
IS_JOL D,44,1,3,BlockProc1,Dog - Furry,B,7,100,5833,,,,,,,,,,,,StudyProc3
IS_JOL D,44,1,3,BlockProc1,Scissors - Shears,B,17,70,6178,,,,,,,,,,,,StudyProc3
IS_JOL D,44,1,3,BlockProc1,Banker - Money,F,37,100,5003,,,,,,,,,,,,StudyProc3
IS_JOL D,44,1,3,BlockProc1,Love - Affection,B,20,100,3574,,,,,,,,,,,,StudyProc3
IS_JOL D,44,1,3,BlockProc1,Revenge - Even,F,27,100,3834,,,,,,,,,,,,StudyProc3
IS_JOL D,44,1,3,BlockProc1,Car - Driver,B,11,100,3148,,,,,,,,,,,,StudyProc3
IS_JOL D,44,1,3,BlockProc1,Thimble - Thread,F,26,90,7922,,,,,,,,,,,,StudyProc3
IS_JOL D,44,1,3,BlockProc1,Sardine - Fish,F,35,100,4781,,,,,,,,,,,,StudyProc3
IS_JOL D,44,1,3,BlockProc1,Game - Clue,B,2,95,4608,,,,,,,,,,,,StudyProc3
IS_JOL D,44,1,3,BlockProc1,Panther - Cat,F,31,100,5202,,,,,,,,,,,,StudyProc3
IS_JOL D,44,1,3,BlockProc1,Brawl - Fight,F,40,100,3685,,,,,,,,,,,,StudyProc3
IS_JOL D,44,1,3,BlockProc1,Cut - Chop,B,12,100,4709,,,,,,,,,,,,StudyProc3
IS_JOL D,44,1,3,BlockProc1,Cold - Chill,B,19,100,2579,,,,,,,,,,,,StudyProc3
IS_JOL D,44,1,3,BlockProc1,Mystery - Detective,B,5,100,3632,,,,,,,,,,,,StudyProc3
IS_JOL D,44,1,3,BlockProc1,Breakable - Glass,F,32,100,4427,,,,,,,,,,,,StudyProc3
IS_JOL D,44,1,3,BlockProc1,Smell - Incense,B,15,100,3476,,,,,,,,,,,,StudyProc3
IS_JOL D,44,1,3,BlockProc1,Balloon - Pop,F,28,100,2853,,,,,,,,,,,,StudyProc3
IS_JOL D,44,1,3,BlockProc1,Actress - Star,F,25,100,3695,,,,,,,,,,,,StudyProc3
IS_JOL D,44,1,3,BlockProc1,Paper - Document,B,14,100,6407,,,,,,,,,,,,StudyProc3
IS_JOL D,44,1,3,BlockProc1,Red - Cherry,B,9,100,2616,,,,,,,,,,,,StudyProc3
IS_JOL D,44,1,3,BlockProc1,Eat - Dine,B,16,100,2972,,,,,,,,,,,,StudyProc3
IS_JOL D,44,1,3,BlockProc1,End - Adjourn,B,6,90,4945,,,,,,,,,,,,StudyProc3
IS_JOL D,44,1,3,BlockProc1,Windshield - Car,F,22,100,5133,,,,,,,,,,,,StudyProc3
IS_JOL D,44,1,3,BlockProc1,Fight - Feud,B,18,100,3586,,,,,,,,,,,,StudyProc3
IS_JOL D,44,1,3,BlockProc1,Villain - Bad,F,23,100,2630,,,,,,,,,,,,StudyProc3
IS_JOL D,44,1,3,BlockProc1,Tie - Shoelace,B,4,100,2370,,,,,,,,,,,,StudyProc3
IS_JOL D,44,1,3,BlockProc1,Plant - Cactus,B,3,100,3080,,,,,,,,,,,,StudyProc3
IS_JOL D,44,1,3,BlockProc1,Strawberry - Fruit,F,29,100,2393,,,,,,,,,,,,StudyProc3
IS_JOL D,44,1,3,BlockProc1,Favorite - Best,F,30,100,3046,,,,,,,,,,,,StudyProc3
IS_JOL D,44,1,3,BlockProc1,Donkey - Mule,B,13,100,2808,,,,,,,,,,,,StudyProc3
IS_JOL D,44,1,3,BlockProc1,Wax - Candle,S,44,,,,,,,,100,5742,,,,,StudyProc7
IS_JOL D,44,1,3,BlockProc1,Wet - Dry,S,51,,,,,,,,100,4226,,,,,StudyProc7
IS_JOL D,44,1,3,BlockProc1,Tan - Sun,S,60,,,,,,,,100,3108,,,,,StudyProc7
IS_JOL D,44,1,3,BlockProc1,Steak - Give,U,63,,,,,,,,80,5475,,,,,StudyProc7
IS_JOL D,44,1,3,BlockProc1,Carbon - Element,S,46,,,,,,,,100,3122,,,,,StudyProc7
IS_JOL D,44,1,3,BlockProc1,Away - Gone,S,47,,,,,,,,100,3833,,,,,StudyProc7
IS_JOL D,44,1,3,BlockProc1,Election - Maze,U,64,,,,,,,,70,8827,,,,,StudyProc7
IS_JOL D,44,1,3,BlockProc1,Jar - Mason,S,43,,,,,,,,100,3832,,,,,StudyProc7
IS_JOL D,44,1,3,BlockProc1,Scar - Main,U,80,,,,,,,,80,5810,,,,,StudyProc7
IS_JOL D,44,1,3,BlockProc1,Lonely - Alone,S,50,,,,,,,,100,3043,,,,,StudyProc7
IS_JOL D,44,1,3,BlockProc1,Noise - Loud,S,57,,,,,,,,100,2757,,,,,StudyProc7
IS_JOL D,44,1,3,BlockProc1,Cloth - Stretch,U,62,,,,,,,,100,3131,,,,,StudyProc7
IS_JOL D,44,1,3,BlockProc1,Lie - Truth,S,53,,,,,,,,100,3938,,,,,StudyProc7
IS_JOL D,44,1,3,BlockProc1,Fiction - Listen,U,69,,,,,,,,70,5095,,,,,StudyProc7
IS_JOL D,44,1,3,BlockProc1,Seatbelt - Safety,S,52,,,,,,,,100,3685,,,,,StudyProc7
IS_JOL D,44,1,3,BlockProc1,Ounce - Both,U,77,,,,,,,,70,4542,,,,,StudyProc7
IS_JOL D,44,1,3,BlockProc1,Sign - Loan,U,76,,,,,,,,100,4634,,,,,StudyProc7
IS_JOL D,44,1,3,BlockProc1,Drink - Water,S,48,,,,,,,,100,3164,,,,,StudyProc7
IS_JOL D,44,1,3,BlockProc1,Maroon - Justice,U,61,,,,,,,,70,4185,,,,,StudyProc7
IS_JOL D,44,1,3,BlockProc1,Bracelet - Wrist,S,45,,,,,,,,100,4005,,,,,StudyProc7
IS_JOL D,44,1,3,BlockProc1,Hate - Name,U,72,,,,,,,,70,4648,,,,,StudyProc7
IS_JOL D,44,1,3,BlockProc1,Bang - Fuzzy,U,73,,,,,,,,50,7120,,,,,StudyProc7
IS_JOL D,44,1,3,BlockProc1,Have - Own,S,58,,,,,,,,100,4012,,,,,StudyProc7
IS_JOL D,44,1,3,BlockProc1,Shave - Razor,S,41,,,,,,,,100,3295,,,,,StudyProc7
IS_JOL D,44,1,3,BlockProc1,Toil - Lease,U,75,,,,,,,,50,5935,,,,,StudyProc7
IS_JOL D,44,1,3,BlockProc1,Morning - Temperature,U,78,,,,,,,,0,7595,,,,,StudyProc7
IS_JOL D,44,1,3,BlockProc1,Charm - Vehicle,U,65,,,,,,,,70,3978,,,,,StudyProc7
IS_JOL D,44,1,3,BlockProc1,Obtain - Meat,U,66,,,,,,,,60,5430,,,,,StudyProc7
IS_JOL D,44,1,3,BlockProc1,Reel - Rod,S,55,,,,,,,,90,6175,,,,,StudyProc7
IS_JOL D,44,1,3,BlockProc1,Temper - Tantrum,S,59,,,,,,,,100,3441,,,,,StudyProc7
IS_JOL D,44,1,3,BlockProc1,Communication - Phone,S,54,,,,,,,,100,3195,,,,,StudyProc7
IS_JOL D,44,1,3,BlockProc1,Joke - Keys,U,70,,,,,,,,80,3743,,,,,StudyProc7
IS_JOL D,44,1,3,BlockProc1,Tick - Flea,S,56,,,,,,,,100,2796,,,,,StudyProc7
IS_JOL D,44,1,3,BlockProc1,Children - Mirror,U,79,,,,,,,,70,4193,,,,,StudyProc7
IS_JOL D,44,1,3,BlockProc1,Shake - Shell,U,68,,,,,,,,80,7500,,,,,StudyProc7
IS_JOL D,44,1,3,BlockProc1,Ground - Earth,S,49,,,,,,,,100,3832,,,,,StudyProc7
IS_JOL D,44,1,3,BlockProc1,Clothes - Cake,U,71,,,,,,,,80,3322,,,,,StudyProc7
IS_JOL D,44,1,3,BlockProc1,Equal - Rights,S,42,,,,,,,,100,2841,,,,,StudyProc7
IS_JOL D,44,1,3,BlockProc1,Able - Crackle,U,67,,,,,,,,80,3827,,,,,StudyProc7
IS_JOL D,44,1,3,BlockProc1,Clear - Moat,U,74,,,,,,,,50,4501,,,,,StudyProc7
IS_JOL D,44,1,3,BlockProc1,Geese - Goose,,1,,,,,,,,,,,,,,StudyProc2
IS_JOL D,44,1,3,BlockProc1,Trees - Green,,5,,,,,,,,,,,,,,StudyProc2
IS_JOL D,44,1,3,BlockProc1,Catcher - Baseball,,4,,,,,,,,,,,,,,StudyProc2
IS_JOL D,44,1,3,BlockProc1,Grab - Take,,2,,,,,,,,,,,,,,StudyProc2
IS_JOL D,44,1,3,BlockProc1,Friendliness - Nice,,3,,,,,,,,,,,,,,StudyProc2
IS_JOL D,44,1,3,BlockProc1,Communication - ?,,54,,,,,phone,3696,,,,,,,,recallproc1
IS_JOL D,44,1,3,BlockProc1,Car - ?,,11,,,,,windsheild,5287,,,,,,,,recallproc1
IS_JOL D,44,1,3,BlockProc1,Clothes - ?,,71,,,,,stretch,4222,,,,,,,,recallproc1
IS_JOL D,44,1,3,BlockProc1,Panther - ?,,31,,,,,cat,3424,,,,,,,,recallproc1
IS_JOL D,44,1,3,BlockProc1,Drink - ?,,48,,,,,water,2954,,,,,,,,recallproc1
IS_JOL D,44,1,3,BlockProc1,Bang - ?,,73,,,,,fuzzy,11528,,,,,,,,recallproc1
IS_JOL D,44,1,3,BlockProc1,Maroon - ?,,61,,,,,doctor,16519,,,,,,,,recallproc1
IS_JOL D,44,1,3,BlockProc1,Fight - ?,,18,,,,,brawl,2393,,,,,,,,recallproc1
IS_JOL D,44,1,3,BlockProc1,Penguin - ?,,24,,,,,bird,2350,,,,,,,,recallproc1
IS_JOL D,44,1,3,BlockProc1,Ounce - ?,,77,,,,,cup,9589,,,,,,,,recallproc1
IS_JOL D,44,1,3,BlockProc1,Tan - ?,,60,,,,,sun,2763,,,,,,,,recallproc1
IS_JOL D,44,1,3,BlockProc1,Strawberry - ?,,29,,,,,fruit,2721,,,,,,,,recallproc1
IS_JOL D,44,1,3,BlockProc1,Shave - ?,,41,,,,,razor,2297,,,,,,,,recallproc1
IS_JOL D,44,1,3,BlockProc1,Seatbelt - ?,,52,,,,,protection,4842,,,,,,,,recallproc1
IS_JOL D,44,1,3,BlockProc1,Thimble - ?,,26,,,,,thread,3090,,,,,,,,recallproc1
IS_JOL D,44,1,3,BlockProc1,Revenge - ?,,27,,,,,even,2258,,,,,,,,recallproc1
IS_JOL D,44,1,3,BlockProc1,Tie - ?,,4,,,,,knot,6045,,,,,,,,recallproc1
IS_JOL D,44,1,3,BlockProc1,Nap - ?,,39,,,,,slep,3452,,,,,,,,recallproc1
IS_JOL D,44,1,3,BlockProc1,Truthful - ?,,38,,,,,kind,13294,,,,,,,,recallproc1
IS_JOL D,44,1,3,BlockProc1,Banker - ?,,37,,,,,money,3269,,,,,,,,recallproc1
IS_JOL D,44,1,3,BlockProc1,Coffin - ?,,33,,,,,dead,1894,,,,,,,,recallproc1
IS_JOL D,44,1,3,BlockProc1,Sardine - ?,,35,,,,,fish,1935,,,,,,,,recallproc1
IS_JOL D,44,1,3,BlockProc1,Bracelet - ?,,45,,,,,wrist,2159,,,,,,,,recallproc1
IS_JOL D,44,1,3,BlockProc1,Donkey - ?,,13,,,,,mule,2222,,,,,,,,recallproc1
IS_JOL D,44,1,3,BlockProc1,Head - ?,,10,,,,,scalp,3762,,,,,,,,recallproc1
IS_JOL D,44,1,3,BlockProc1,Lonely - ?,,50,,,,,alone,1863,,,,,,,,recallproc1
IS_JOL D,44,1,3,BlockProc1,Flip - ?,,21,,,,,turn,2169,,,,,,,,recallproc1
IS_JOL D,44,1,3,BlockProc1,Love - ?,,20,,,,,affection,3608,,,,,,,,recallproc1
IS_JOL D,44,1,3,BlockProc1,Sign - ?,,76,,,,,stop,12195,,,,,,,,recallproc1
IS_JOL D,44,1,3,BlockProc1,Morning - ?,,78,,,,,temperature,3791,,,,,,,,recallproc1
IS_JOL D,44,1,3,BlockProc1,Paper - ?,,14,,,,,pencil,10570,,,,,,,,recallproc1
IS_JOL D,44,1,3,BlockProc1,Brawl - ?,,40,,,,,fight,2424,,,,,,,,recallproc1
IS_JOL D,44,1,3,BlockProc1,Lie - ?,,53,,,,,untruthful,6020,,,,,,,,recallproc1
IS_JOL D,44,1,3,BlockProc1,Red - ?,,9,,,,,cherry,4468,,,,,,,,recallproc1
IS_JOL D,44,1,3,BlockProc1,Election - ?,,64,,,,,maze,4109,,,,,,,,recallproc1
IS_JOL D,44,1,3,BlockProc1,Clear - ?,,74,,,,,through,46259,,,,,,,,recallproc1
IS_JOL D,44,1,3,BlockProc1,Have - ?,,58,,,,,take,6372,,,,,,,,recallproc1
IS_JOL D,44,1,3,BlockProc1,Breakable - ?,,32,,,,,gas,3110,,,,,,,,recallproc1
IS_JOL D,44,1,3,BlockProc1,Cloth - ?,,62,,,,,stretch,6853,,,,,,,,recallproc1
IS_JOL D,44,1,3,BlockProc1,League - ?,,36,,,,,baseball,3468,,,,,,,,recallproc1
IS_JOL D,44,1,3,BlockProc1,Villain - ?,,23,,,,,evil,3509,,,,,,,,recallproc1
IS_JOL D,44,1,3,BlockProc1,Fiction - ?,,69,,,,,listen,2596,,,,,,,,recallproc1
IS_JOL D,44,1,3,BlockProc1,Ground - ?,,49,,,,,earth,3145,,,,,,,,recallproc1
IS_JOL D,44,1,3,BlockProc1,Aircraft - ?,,34,,,,,plane,3103,,,,,,,,recallproc1
IS_JOL D,44,1,3,BlockProc1,Obtain - ?,,66,,,,,have,4567,,,,,,,,recallproc1
IS_JOL D,44,1,3,BlockProc1,Windshield - ?,,22,,,,,car,1899,,,,,,,,recallproc1
IS_JOL D,44,1,3,BlockProc1,Noise - ?,,57,,,,,loud,2381,,,,,,,,recallproc1
IS_JOL D,44,1,3,BlockProc1,Eat - ?,,16,,,,,red,14266,,,,,,,,recallproc1
IS_JOL D,44,1,3,BlockProc1,Steak - ?,,63,,,,,red,10129,,,,,,,,recallproc1
IS_JOL D,44,1,3,BlockProc1,Tick - ?,,56,,,,,flea,2225,,,,,,,,recallproc1
IS_JOL D,44,1,3,BlockProc1,Jar - ?,,43,,,,,mason,2116,,,,,,,,recallproc1
IS_JOL D,44,1,3,BlockProc1,Game - ?,,2,,,,,clock,7429,,,,,,,,recallproc1
IS_JOL D,44,1,3,BlockProc1,Wax - ?,,44,,,,,candle,3555,,,,,,,,recallproc1
IS_JOL D,44,1,3,BlockProc1,Plant - ?,,3,,,,,green,3377,,,,,,,,recallproc1
IS_JOL D,44,1,3,BlockProc1,Balloon - ?,,28,,,,,pop,2101,,,,,,,,recallproc1
IS_JOL D,44,1,3,BlockProc1,Dog - ?,,7,,,,,furry,4750,,,,,,,,recallproc1
IS_JOL D,44,1,3,BlockProc1,Joke - ?,,70,,,,,funny,2931,,,,,,,,recallproc1
IS_JOL D,44,1,3,BlockProc1,Cut - ?,,12,,,,,scissors,7970,,,,,,,,recallproc1
IS_JOL D,44,1,3,BlockProc1,Reel - ?,,55,,,,,rod,1819,,,,,,,,recallproc1
IS_JOL D,44,1,3,BlockProc1,End - ?,,6,,,,,near,5327,,,,,,,,recallproc1
IS_JOL D,44,1,3,BlockProc1,Wet - ?,,51,,,,,dry,8988,,,,,,,,recallproc1
IS_JOL D,44,1,3,BlockProc1,Toil - ?,,75,,,,,gear,7523,,,,,,,,recallproc1
IS_JOL D,44,1,3,BlockProc1,Smell - ?,,15,,,,,incense,5750,,,,,,,,recallproc1
IS_JOL D,44,1,3,BlockProc1,Cold - ?,,19,,,,,frigid,8322,,,,,,,,recallproc1
IS_JOL D,44,1,3,BlockProc1,Children - ?,,79,,,,,mirror,3196,,,,,,,,recallproc1
IS_JOL D,44,1,3,BlockProc1,Mystery - ?,,5,,,,,detective,6328,,,,,,,,recallproc1
IS_JOL D,44,1,3,BlockProc1,Able - ?,,67,,,,,unable,8188,,,,,,,,recallproc1
IS_JOL D,44,1,3,BlockProc1,Carbon - ?,,46,,,,,element,2908,,,,,,,,recallproc1
IS_JOL D,44,1,3,BlockProc1,Hate - ?,,72,,,,,love,4627,,,,,,,,recallproc1
IS_JOL D,44,1,3,BlockProc1,Temper - ?,,59,,,,,tantrum,2917,,,,,,,,recallproc1
IS_JOL D,44,1,3,BlockProc1,Long - ?,,1,,,,,short,2605,,,,,,,,recallproc1
IS_JOL D,44,1,3,BlockProc1,Trash - ?,,8,,,,,smelly,6305,,,,,,,,recallproc1
IS_JOL D,44,1,3,BlockProc1,Scissors - ?,,17,,,,,haircut,5334,,,,,,,,recallproc1
IS_JOL D,44,1,3,BlockProc1,Equal - ?,,42,,,,,less,4234,,,,,,,,recallproc1
IS_JOL D,44,1,3,BlockProc1,Favorite - ?,,30,,,,,best,2916,,,,,,,,recallproc1
IS_JOL D,44,1,3,BlockProc1,Charm - ?,,65,,,,,lucky,4700,,,,,,,,recallproc1
IS_JOL D,44,1,3,BlockProc1,Away - ?,,47,,,,,gone,2210,,,,,,,,recallproc1
IS_JOL D,44,1,3,BlockProc1,Scar - ?,,80,,,,,new,6399,,,,,,,,recallproc1
IS_JOL D,44,1,3,BlockProc1,Actress - ?,,25,,,,,star,4768,,,,,,,,recallproc1
IS_JOL D,44,1,3,BlockProc1,Shake - ?,,68,,,,,mess,5804,,,,,,,,recallproc1
IS_JOL D,44,2,3,BlockProc2,Disintegrate - Disappear,,3,,,,,,,,,,,,,,StudyProc4
IS_JOL D,44,2,3,BlockProc2,Essay - Write,,4,,,,,,,,,,,,,,StudyProc4
IS_JOL D,44,2,3,BlockProc2,Hide - Scare,,2,,,,,,,,,,,,,,StudyProc4
IS_JOL D,44,2,3,BlockProc2,Malt - Chocolate,,5,,,,,,,,,,,,,,StudyProc4
IS_JOL D,44,2,3,BlockProc2,Sheriff - Police,,1,,,,,,,,,,,,,,StudyProc4
IS_JOL D,44,2,3,BlockProc2,Cave - Dark,F,23,,,100,8293,,,,,,,,,,StudyProc5
IS_JOL D,44,2,3,BlockProc2,Talk - Discussion,B,16,,,90,10184,,,,,,,,,,StudyProc5
IS_JOL D,44,2,3,BlockProc2,Attorney - Law,F,29,,,100,6126,,,,,,,,,,StudyProc5
IS_JOL D,44,2,3,BlockProc2,Card - Credit,B,18,,,100,8714,,,,,,,,,,StudyProc5
IS_JOL D,44,2,3,BlockProc2,Clean - Hygiene,B,12,,,100,7236,,,,,,,,,,StudyProc5
IS_JOL D,44,2,3,BlockProc2,Plant - Root,B,8,,,100,7107,,,,,,,,,,StudyProc5
IS_JOL D,44,2,3,BlockProc2,Stomach - Digestion,B,2,,,100,6607,,,,,,,,,,StudyProc5
IS_JOL D,44,2,3,BlockProc2,Stench - Smell,F,37,,,100,4976,,,,,,,,,,StudyProc5
IS_JOL D,44,2,3,BlockProc2,Seize - Take,F,24,,,80,3467,,,,,,,,,,StudyProc5
IS_JOL D,44,2,3,BlockProc2,Bird - Swan,B,9,,,100,5796,,,,,,,,,,StudyProc5
IS_JOL D,44,2,3,BlockProc2,Famine - Hunger,F,35,,,0,5725,,,,,,,,,,StudyProc5
IS_JOL D,44,2,3,BlockProc2,Chore - Work,F,34,,,90,6490,,,,,,,,,,StudyProc5
IS_JOL D,44,2,3,BlockProc2,Flower - Orchid,B,19,,,80,8871,,,,,,,,,,StudyProc5
IS_JOL D,44,2,3,BlockProc2,Division - Math,F,28,,,100,6347,,,,,,,,,,StudyProc5
IS_JOL D,44,2,3,BlockProc2,Out - Way,B,11,,,80,4046,,,,,,,,,,StudyProc5
IS_JOL D,44,2,3,BlockProc2,Money - Wage,B,3,,,100,8959,,,,,,,,,,StudyProc5
IS_JOL D,44,2,3,BlockProc2,Blaze - Fire,F,40,,,90,6623,,,,,,,,,,StudyProc5
IS_JOL D,44,2,3,BlockProc2,Rock - Geology,B,14,,,100,4999,,,,,,,,,,StudyProc5
IS_JOL D,44,2,3,BlockProc2,Bad - Delinquent,B,1,,,100,5522,,,,,,,,,,StudyProc5
IS_JOL D,44,2,3,BlockProc2,Growth - Height,F,25,,,100,4623,,,,,,,,,,StudyProc5
IS_JOL D,44,2,3,BlockProc2,Chili - Hot,F,32,,,100,4448,,,,,,,,,,StudyProc5
IS_JOL D,44,2,3,BlockProc2,Wasp - Bug,F,27,,,90,2841,,,,,,,,,,StudyProc5
IS_JOL D,44,2,3,BlockProc2,Fantastic - Great,F,30,,,90,6852,,,,,,,,,,StudyProc5
IS_JOL D,44,2,3,BlockProc2,Fish - Tuna,B,20,,,90,3890,,,,,,,,,,StudyProc5
IS_JOL D,44,2,3,BlockProc2,Pilot - Plane,F,39,,,100,6969,,,,,,,,,,StudyProc5
IS_JOL D,44,2,3,BlockProc2,Water - Bridge,B,13,,,100,4443,,,,,,,,,,StudyProc5
IS_JOL D,44,2,3,BlockProc2,Cold - Bitter,B,7,,,100,3924,,,,,,,,,,StudyProc5
IS_JOL D,44,2,3,BlockProc2,Drowsy - Sleep,F,36,,,100,4434,,,,,,,,,,StudyProc5
IS_JOL D,44,2,3,BlockProc2,News - Editor,B,5,,,100,4004,,,,,,,,,,StudyProc5
IS_JOL D,44,2,3,BlockProc2,Dog - Paw,B,10,,,100,4215,,,,,,,,,,StudyProc5
IS_JOL D,44,2,3,BlockProc2,Cow - Herd,B,17,,,100,4033,,,,,,,,,,StudyProc5
IS_JOL D,44,2,3,BlockProc2,Attire - Clothes,F,38,,,100,4507,,,,,,,,,,StudyProc5
IS_JOL D,44,2,3,BlockProc2,Racket - Ball,F,33,,,100,5177,,,,,,,,,,StudyProc5
IS_JOL D,44,2,3,BlockProc2,Latch - Key,F,31,,,100,3524,,,,,,,,,,StudyProc5
IS_JOL D,44,2,3,BlockProc2,Sip - Drink,F,22,,,100,3707,,,,,,,,,,StudyProc5
IS_JOL D,44,2,3,BlockProc2,War - Revolution,B,15,,,9,5866,,,,,,,,,,StudyProc5
IS_JOL D,44,2,3,BlockProc2,Enough - Full,F,21,,,100,7320,,,,,,,,,,StudyProc5
IS_JOL D,44,2,3,BlockProc2,Word - Sentence,F,26,,,100,3308,,,,,,,,,,StudyProc5
IS_JOL D,44,2,3,BlockProc2,Hammer - Chisel,B,4,,,60,4787,,,,,,,,,,StudyProc5
IS_JOL D,44,2,3,BlockProc2,Sting - Hornet,B,6,,,100,2966,,,,,,,,,,StudyProc5
IS_JOL D,44,2,3,BlockProc2,Round - Circle,S,60,,,,,,,,,,100,4380,,,StudyProc8
IS_JOL D,44,2,3,BlockProc2,Amount - Number,S,42,,,,,,,,,,90,3144,,,StudyProc8
IS_JOL D,44,2,3,BlockProc2,Site - Location,S,43,,,,,,,,,,90,5366,,,StudyProc8
IS_JOL D,44,2,3,BlockProc2,Soda - Pop,S,51,,,,,,,,,,100,2394,,,StudyProc8
IS_JOL D,44,2,3,BlockProc2,Tuck - Allow,U,73,,,,,,,,,,70,5470,,,StudyProc8
IS_JOL D,44,2,3,BlockProc2,Decision - Choise,S,57,,,,,,,,,,100,3918,,,StudyProc8
IS_JOL D,44,2,3,BlockProc2,Bar - Grill,S,47,,,,,,,,,,100,6020,,,StudyProc8
IS_JOL D,44,2,3,BlockProc2,Lion - Art,U,74,,,,,,,,,,70,4621,,,StudyProc8
IS_JOL D,44,2,3,BlockProc2,Cheese - Wine,S,52,,,,,,,,,,100,3447,,,StudyProc8
IS_JOL D,44,2,3,BlockProc2,Vase - King,U,80,,,,,,,,,,50,3169,,,StudyProc8
IS_JOL D,44,2,3,BlockProc2,Floor - Discover,U,66,,,,,,,,,,50,4830,,,StudyProc8
IS_JOL D,44,2,3,BlockProc2,Foot - Shoe,S,55,,,,,,,,,,100,5472,,,StudyProc8
IS_JOL D,44,2,3,BlockProc2,Jury - Trial,S,45,,,,,,,,,,100,3975,,,StudyProc8
IS_JOL D,44,2,3,BlockProc2,Bee - Honey,S,58,,,,,,,,,,100,4059,,,StudyProc8
IS_JOL D,44,2,3,BlockProc2,Business - Death,U,67,,,,,,,,,,50,5899,,,StudyProc8
IS_JOL D,44,2,3,BlockProc2,Accident - Strong,U,75,,,,,,,,,,50,3009,,,StudyProc8
IS_JOL D,44,2,3,BlockProc2,Toilet - Bathroom,S,53,,,,,,,,,,100,3652,,,StudyProc8
IS_JOL D,44,2,3,BlockProc2,Salad - Lettuce,S,54,,,,,,,,,,100,2814,,,StudyProc8
IS_JOL D,44,2,3,BlockProc2,Car - Happy,U,72,,,,,,,,,,50,3994,,,StudyProc8
IS_JOL D,44,2,3,BlockProc2,Hungry - Park,U,63,,,,,,,,,,50,4205,,,StudyProc8
IS_JOL D,44,2,3,BlockProc2,Assignment - Due,S,41,,,,,,,,,,100,2800,,,StudyProc8
IS_JOL D,44,2,3,BlockProc2,Child - Baby,S,59,,,,,,,,,,100,3724,,,StudyProc8
IS_JOL D,44,2,3,BlockProc2,Add - Valley,U,77,,,,,,,,,,40,4114,,,StudyProc8
IS_JOL D,44,2,3,BlockProc2,Liver - Kidney,S,48,,,,,,,,,,100,2921,,,StudyProc8
IS_JOL D,44,2,3,BlockProc2,Belt - Soon,U,65,,,,,,,,,,60,3400,,,StudyProc8
IS_JOL D,44,2,3,BlockProc2,Sacking -Dietary,U,62,,,,,,,,,,30,4860,,,StudyProc8
IS_JOL D,44,2,3,BlockProc2,Hand - Fix,U,70,,,,,,,,,,40,3292,,,StudyProc8
IS_JOL D,44,2,3,BlockProc2,Waste - Dump,S,44,,,,,,,,,,100,4932,,,StudyProc8
IS_JOL D,44,2,3,BlockProc2,Clutter - Pusher,U,61,,,,,,,,,,50,5825,,,StudyProc8
IS_JOL D,44,2,3,BlockProc2,Design - Architecture,S,46,,,,,,,,,,90,3385,,,StudyProc8
IS_JOL D,44,2,3,BlockProc2,Sick - Hide,U,79,,,,,,,,,,50,6302,,,StudyProc8
IS_JOL D,44,2,3,BlockProc2,Future - Past,S,56,,,,,,,,,,100,6139,,,StudyProc8
IS_JOL D,44,2,3,BlockProc2,Wind - Blow,S,50,,,,,,,,,,100,3838,,,StudyProc8
IS_JOL D,44,2,3,BlockProc2,Position - Machine,U,71,,,,,,,,,,60,3320,,,StudyProc8
IS_JOL D,44,2,3,BlockProc2,Woman - Lift,U,64,,,,,,,,,,100,3815,,,StudyProc8
IS_JOL D,44,2,3,BlockProc2,Sight - Debate,U,68,,,,,,,,,,80,4370,,,StudyProc8
IS_JOL D,44,2,3,BlockProc2,End - Begin,S,49,,,,,,,,,,100,3886,,,StudyProc8
IS_JOL D,44,2,3,BlockProc2,Riddle - Sugar,U,76,,,,,,,,,,40,2990,,,StudyProc8
IS_JOL D,44,2,3,BlockProc2,Would - Cash,U,78,,,,,,,,,,30,3659,,,StudyProc8
IS_JOL D,44,2,3,BlockProc2,Bronze - Artery,U,69,,,,,,,,,,30,3628,,,StudyProc8
IS_JOL D,44,2,3,BlockProc2,Magician - Magic,,4,,,,,,,,,,,,,,StudyProc6
IS_JOL D,44,2,3,BlockProc2,Mind - Matter,,2,,,,,,,,,,,,,,StudyProc6
IS_JOL D,44,2,3,BlockProc2,Contest - Competition,,5,,,,,,,,,,,,,,StudyProc6
IS_JOL D,44,2,3,BlockProc2,Deciet - Cheat,,1,,,,,,,,,,,,,,StudyProc6
IS_JOL D,44,2,3,BlockProc2,Deaf - Hear,,3,,,,,,,,,,,,,,StudyProc6
IS_JOL D,44,2,3,BlockProc2,Sick - ?,,79,,,,,,,sick,,,,,,,recallproc2
IS_JOL D,44,2,3,BlockProc2,Pilot - ?,,39,,,,,,,plane,,,,,,,recallproc2
IS_JOL D,44,2,3,BlockProc2,Fantastic - ?,,30,,,,,,,great,,,,,,,recallproc2
IS_JOL D,44,2,3,BlockProc2,Hungry - ?,,63,,,,,,,famine,,,,,,,recallproc2
IS_JOL D,44,2,3,BlockProc2,Vase - ?,,80,,,,,,,case,,,,,,,recallproc2
IS_JOL D,44,2,3,BlockProc2,War - ?,,15,,,,,,,revolution,,,,,,,recallproc2
IS_JOL D,44,2,3,BlockProc2,Cow - ?,,17,,,,,,,herd,,,,,,,recallproc2
IS_JOL D,44,2,3,BlockProc2,Hammer - ?,,4,,,,,,,themmer,,,,,,,recallproc2
IS_JOL D,44,2,3,BlockProc2,Jury - ?,,45,,,,,,,triaL,,,,,,,recallproc2
IS_JOL D,44,2,3,BlockProc2,Growth - ?,,25,,,,,,,height,,,,,,,recallproc2
IS_JOL D,44,2,3,BlockProc2,Salad - ?,,54,,,,,,,lettuce,,,,,,,recallproc2
IS_JOL D,44,2,3,BlockProc2,Amount - ?,,42,,,,,,,count,,,,,,,recallproc2
IS_JOL D,44,2,3,BlockProc2,Belt - ?,,65,,,,,,,secure,,,,,,,recallproc2
IS_JOL D,44,2,3,BlockProc2,Clean - ?,,12,,,,,,,messy,,,,,,,recallproc2
IS_JOL D,44,2,3,BlockProc2,Would - ?,,78,,,,,,,rather,,,,,,,recallproc2
