ExperimentName,Subject,Block,list,Procedure[Block],cue_target,Direction,ListNum,pword3.RESP,pword3.RT,pword5.RESP,pword5.RT,Rword1.RESP,Rword1.RT,Rword2.RESP,pword8.RESP,pword8.RT,pword9.RESP,pword9.RT,pword10.RESP,pword10.RT,Procedure[Trial]
IS_JOL A,65,1,,BlockProc1,Deaf-Mute,,2,,,,,,,,,,,,,,Practice1
IS_JOL A,65,1,,BlockProc1,Chime-Music,,8,,,,,,,,,,,,,,Practice1
IS_JOL A,65,1,,BlockProc1,Chocolate-Bar,,7,,,,,,,,,,,,,,Practice1
IS_JOL A,65,1,,BlockProc1,Behavior-Social,,9,,,,,,,,,,,,,,Practice1
IS_JOL A,65,1,,BlockProc1,Aardvark-Zoo,,1,,,,,,,,,,,,,,Practice1
IS_JOL A,65,1,,BlockProc1,Hinge-Swing,,5,,,,,,,,,,,,,,Practice1
IS_JOL A,65,1,,BlockProc1,Ham-Bone,,3,,,,,,,,,,,,,,Practice1
IS_JOL A,65,1,,BlockProc1,Paddle-Row,,4,,,,,,,,,,,,,,Practice1
IS_JOL A,65,1,,BlockProc1,Fashion-Model,,10,,,,,,,,,,,,,,Practice1
IS_JOL A,65,1,,BlockProc1,Disbelieve-Skeptic,,6,,,,,,,,,,,,,,Practice1
IS_JOL A,65,1,3,BlockProc1,Shrimp - Fish,,4,,,,,,,,,,,,,,StudyProc1
IS_JOL A,65,1,3,BlockProc1,Curtain - Drapes,,2,,,,,,,,,,,,,,StudyProc1
IS_JOL A,65,1,3,BlockProc1,Member - Group,,5,,,,,,,,,,,,,,StudyProc1
IS_JOL A,65,1,3,BlockProc1,Snow - Ice,,3,,,,,,,,,,,,,,StudyProc1
IS_JOL A,65,1,3,BlockProc1,Haircut-Scissors,,1,,,,,,,,,,,,,,StudyProc1
IS_JOL A,65,1,3,BlockProc1,Architecture - Design,S,46,70,17391,,,,,,,,,,,,StudyProc3
IS_JOL A,65,1,3,BlockProc1,Happy - Car,U,72,100,6349,,,,,,,,,,,,StudyProc3
IS_JOL A,65,1,3,BlockProc1,Kidney - Liver,S,48,0,30584,,,,,,,,,,,,StudyProc3
IS_JOL A,65,1,3,BlockProc1,Lettuce - Salad,S,54,100,15738,,,,,,,,,,,,StudyProc3
IS_JOL A,65,1,3,BlockProc1,Begin - End,S,49,100,5933,,,,,,,,,,,,StudyProc3
IS_JOL A,65,1,3,BlockProc1,Number - Amount,S,42,100,10265,,,,,,,,,,,,StudyProc3
IS_JOL A,65,1,3,BlockProc1,Discover - Floor,U,66,80,13443,,,,,,,,,,,,StudyProc3
IS_JOL A,65,1,3,BlockProc1,Art - Lion,U,74,100,14268,,,,,,,,,,,,StudyProc3
IS_JOL A,65,1,3,BlockProc1,Park - Hungry,U,63,80,11018,,,,,,,,,,,,StudyProc3
IS_JOL A,65,1,3,BlockProc1,Soon - Belt,U,65,100,10910,,,,,,,,,,,,StudyProc3
IS_JOL A,65,1,3,BlockProc1,Blow - Wind,S,50,100,13334,,,,,,,,,,,,StudyProc3
IS_JOL A,65,1,3,BlockProc1,Location - Site,S,43,89,16091,,,,,,,,,,,,StudyProc3
IS_JOL A,65,1,3,BlockProc1,Death - Business,U,67,75,19695,,,,,,,,,,,,StudyProc3
IS_JOL A,65,1,3,BlockProc1,Due - Assignment,S,41,80,21487,,,,,,,,,,,,StudyProc3
IS_JOL A,65,1,3,BlockProc1,Hide - Sick,U,79,70,10646,,,,,,,,,,,,StudyProc3
IS_JOL A,65,1,3,BlockProc1,Dump - Waste,S,44,80,10369,,,,,,,,,,,,StudyProc3
IS_JOL A,65,1,3,BlockProc1,Debate - Sight,U,68,100,11735,,,,,,,,,,,,StudyProc3
IS_JOL A,65,1,3,BlockProc1,Circle - Round,S,60,100,15013,,,,,,,,,,,,StudyProc3
IS_JOL A,65,1,3,BlockProc1,Trial - Jury,S,45,100,12174,,,,,,,,,,,,StudyProc3
IS_JOL A,65,1,3,BlockProc1,Sugar - Riddle,U,76,80,11090,,,,,,,,,,,,StudyProc3
IS_JOL A,65,1,3,BlockProc1,Allow - Tuck,U,73,80,10859,,,,,,,,,,,,StudyProc3
IS_JOL A,65,1,3,BlockProc1,Grill - Bar,S,47,90,17885,,,,,,,,,,,,StudyProc3
IS_JOL A,65,1,3,BlockProc1,Artery - Bronze,U,69,50,18176,,,,,,,,,,,,StudyProc3
IS_JOL A,65,1,3,BlockProc1,Baby - Child,S,59,100,19710,,,,,,,,,,,,StudyProc3
IS_JOL A,65,1,3,BlockProc1,Bathroom - Toilet,S,53,100,20526,,,,,,,,,,,,StudyProc3
IS_JOL A,65,1,3,BlockProc1,Valley - Add,U,77,0,14588,,,,,,,,,,,,StudyProc3
IS_JOL A,65,1,3,BlockProc1,Past - Future,S,56,100,9717,,,,,,,,,,,,StudyProc3
IS_JOL A,65,1,3,BlockProc1,Honey - Bee,S,58,60,22582,,,,,,,,,,,,StudyProc3
IS_JOL A,65,1,3,BlockProc1,Pusher - Clutter,U,61,60,9896,,,,,,,,,,,,StudyProc3
IS_JOL A,65,1,3,BlockProc1,Fix - Hand,U,70,70,13058,,,,,,,,,,,,StudyProc3
IS_JOL A,65,1,3,BlockProc1,Lift - Woman,U,64,70,12586,,,,,,,,,,,,StudyProc3
IS_JOL A,65,1,3,BlockProc1,Machine - Position,U,71,70,20229,,,,,,,,,,,,StudyProc3
IS_JOL A,65,1,3,BlockProc1,Shoe - Foot,S,55,60,16440,,,,,,,,,,,,StudyProc3
IS_JOL A,65,1,3,BlockProc1,Choice - Decision,S,57,80,22949,,,,,,,,,,,,StudyProc3
IS_JOL A,65,1,3,BlockProc1,Cash - Would,U,78,30,12984,,,,,,,,,,,,StudyProc3
IS_JOL A,65,1,3,BlockProc1,Pop - Soda,S,51,70,15939,,,,,,,,,,,,StudyProc3
IS_JOL A,65,1,3,BlockProc1,Wine - Cheese,S,52,80,10621,,,,,,,,,,,,StudyProc3
IS_JOL A,65,1,3,BlockProc1,Strong - Accident,U,75,80,9313,,,,,,,,,,,,StudyProc3
IS_JOL A,65,1,3,BlockProc1,King - Vase,U,80,70,13267,,,,,,,,,,,,StudyProc3
IS_JOL A,65,1,3,BlockProc1,Dietary - Sacking,U,62,80,17178,,,,,,,,,,,,StudyProc3
IS_JOL A,65,1,3,BlockProc1,Delinquent - Bad,F,1,,,,,,,,,,80,19385,,,StudyProc7
IS_JOL A,65,1,3,BlockProc1,Law - Attorney,B,29,,,,,,,,,,90,20126,,,StudyProc7
IS_JOL A,65,1,3,BlockProc1,Discussion - Talk,F,16,,,,,,,,,,90,14109,,,StudyProc7
IS_JOL A,65,1,3,BlockProc1,Height - Growth,B,25,,,,,,,,,,70,18890,,,StudyProc7
IS_JOL A,65,1,3,BlockProc1,Geology - Rock,F,14,,,,,,,,,,80,13995,,,StudyProc7
IS_JOL A,65,1,3,BlockProc1,Sentence - Word,B,26,,,,,,,,,,90,19709,,,StudyProc7
IS_JOL A,65,1,3,BlockProc1,Swan - Bird,F,9,,,,,,,,,,90,7597,,,StudyProc7
IS_JOL A,65,1,3,BlockProc1,Plane - Pilot,B,39,,,,,,,,,,90,13373,,,StudyProc7
IS_JOL A,65,1,3,BlockProc1,Paw - Dog,F,10,,,,,,,,,,70,18736,,,StudyProc7
IS_JOL A,65,1,3,BlockProc1,Hunger - Famine,B,35,,,,,,,,,,90,19183,,,StudyProc7
IS_JOL A,65,1,3,BlockProc1,Math - Division,B,28,,,,,,,,,,50,15324,,,StudyProc7
IS_JOL A,65,1,3,BlockProc1,Digestion - Stomach,F,2,,,,,,,,,,90,11888,,,StudyProc7
IS_JOL A,65,1,3,BlockProc1,Work - Chore,B,34,,,,,,,,,,90,9736,,,StudyProc7
IS_JOL A,65,1,3,BlockProc1,Hot - Chili,B,32,,,,,,,,,,90,22712,,,StudyProc7
IS_JOL A,65,1,3,BlockProc1,Drink - Sip,B,22,,,,,,,,,,70,20261,,,StudyProc7
IS_JOL A,65,1,3,BlockProc1,Hygiene - Clean,F,12,,,,,,,,,,90,22398,,,StudyProc7
IS_JOL A,65,1,3,BlockProc1,Revolution - War,F,15,,,,,,,,,,90,23479,,,StudyProc7
IS_JOL A,65,1,3,BlockProc1,Editor - News,F,5,,,,,,,,,,90,17141,,,StudyProc7
IS_JOL A,65,1,3,BlockProc1,Wage - Money,F,3,,,,,,,,,,90,12197,,,StudyProc7
IS_JOL A,65,1,3,BlockProc1,Chisel - Hammer,F,4,,,,,,,,,,90,16337,,,StudyProc7
IS_JOL A,65,1,3,BlockProc1,Hornet - Sting,F,6,,,,,,,,,,80,24538,,,StudyProc7
IS_JOL A,65,1,3,BlockProc1,Tuna - Fish,F,20,,,,,,,,,,90,21884,,,StudyProc7
IS_JOL A,65,1,3,BlockProc1,Key - Latch,B,31,,,,,,,,,,90,17124,,,StudyProc7
IS_JOL A,65,1,3,BlockProc1,Bitter - Cold,F,7,,,,,,,,,,90,19077,,,StudyProc7
IS_JOL A,65,1,3,BlockProc1,Credit - Card,F,18,,,,,,,,,,90,27158,,,StudyProc7
IS_JOL A,65,1,3,BlockProc1,Bug - Wasp,B,27,,,,,,,,,,90,12853,,,StudyProc7
IS_JOL A,65,1,3,BlockProc1,Smell - Stench,B,37,,,,,,,,,,90,20741,,,StudyProc7
IS_JOL A,65,1,3,BlockProc1,Root - Plant,F,8,,,,,,,,,,90,26035,,,StudyProc7
IS_JOL A,65,1,3,BlockProc1,Clothes - Attire,B,38,,,,,,,,,,90,17575,,,StudyProc7
IS_JOL A,65,1,3,BlockProc1,Bridge - Water,F,13,,,,,,,,,,90,16807,,,StudyProc7
IS_JOL A,65,1,3,BlockProc1,Orchid - Flower,F,19,,,,,,,,,,40,13645,,,StudyProc7
IS_JOL A,65,1,3,BlockProc1,Full - Enough,B,21,,,,,,,,,,90,18446,,,StudyProc7
IS_JOL A,65,1,3,BlockProc1,Ball - Racket,B,33,,,,,,,,,,90,18425,,,StudyProc7
IS_JOL A,65,1,3,BlockProc1,Fire - Blaze,B,40,,,,,,,,,,90,12902,,,StudyProc7
IS_JOL A,65,1,3,BlockProc1,Dark - Cave,B,23,,,,,,,,,,90,14140,,,StudyProc7
IS_JOL A,65,1,3,BlockProc1,Sleep - Drowsy,B,36,,,,,,,,,,90,11784,,,StudyProc7
IS_JOL A,65,1,3,BlockProc1,Great - Fantastic,B,30,,,,,,,,,,90,15316,,,StudyProc7
IS_JOL A,65,1,3,BlockProc1,Take - Seize,B,24,,,,,,,,,,40,24072,,,StudyProc7
IS_JOL A,65,1,3,BlockProc1,Herd - Cow,F,17,,,,,,,,,,90,5581,,,StudyProc7
IS_JOL A,65,1,3,BlockProc1,Way - Out,F,11,,,,,,,,,,90,12551,,,StudyProc7
IS_JOL A,65,1,3,BlockProc1,Grab - Take,,2,,,,,,,,,,,,,,StudyProc2
IS_JOL A,65,1,3,BlockProc1,Catcher - Baseball,,4,,,,,,,,,,,,,,StudyProc2
IS_JOL A,65,1,3,BlockProc1,Trees - Green,,5,,,,,,,,,,,,,,StudyProc2
IS_JOL A,65,1,3,BlockProc1,Geese - Goose,,1,,,,,,,,,,,,,,StudyProc2
IS_JOL A,65,1,3,BlockProc1,Friendliness - Nice,,3,,,,,,,,,,,,,,StudyProc2
IS_JOL A,65,1,3,BlockProc1,Hot - ?,,32,,,,,cold,8006,,,,,,,,recallproc1
IS_JOL A,65,1,3,BlockProc1,Cash - ?,,78,,,,,MONEY,6438,,,,,,,,recallproc1
IS_JOL A,65,1,3,BlockProc1,Sleep - ?,,36,,,,,DROWSY,3541,,,,,,,,recallproc1
IS_JOL A,65,1,3,BlockProc1,Credit - ?,,18,,,,,CARD,4099,,,,,,,,recallproc1
IS_JOL A,65,1,3,BlockProc1,Past - ?,,56,,,,,FUTURE,2714,,,,,,,,recallproc1
IS_JOL A,65,1,3,BlockProc1,Grill - ?,,47,,,,,MEAT,23706,,,,,,,,recallproc1
IS_JOL A,65,1,3,BlockProc1,Art - ?,,74,,,,,PICTURE,5646,,,,,,,,recallproc1
IS_JOL A,65,1,3,BlockProc1,Architecture - ?,,46,,,,,SITE,5014,,,,,,,,recallproc1
IS_JOL A,65,1,3,BlockProc1,Blow - ?,,50,,,,,WIND,2440,,,,,,,,recallproc1
IS_JOL A,65,1,3,BlockProc1,Circle - ?,,60,,,,,ROUND,2370,,,,,,,,recallproc1
IS_JOL A,65,1,3,BlockProc1,Paw - ?,,10,,,,,DOG,2416,,,,,,,,recallproc1
IS_JOL A,65,1,3,BlockProc1,Plane - ?,,39,,,,,PILOT,4788,,,,,,,,recallproc1
IS_JOL A,65,1,3,BlockProc1,Dark - ?,,23,,,,,LIGHT,2431,,,,,,,,recallproc1
IS_JOL A,65,1,3,BlockProc1,Hygiene - ?,,12,,,,,CLEAN,2451,,,,,,,,recallproc1
IS_JOL A,65,1,3,BlockProc1,Dietary - ?,,62,,,,,FULL,4918,,,,,,,,recallproc1
IS_JOL A,65,1,3,BlockProc1,Hunger - ?,,35,,,,,FAMINE,3980,,,,,,,,recallproc1
IS_JOL A,65,1,3,BlockProc1,Trial - ?,,45,,,,,JURY,2480,,,,,,,,recallproc1
IS_JOL A,65,1,3,BlockProc1,Hornet - ?,,6,,,,,WASP,6217,,,,,,,,recallproc1
IS_JOL A,65,1,3,BlockProc1,Digestion - ?,,2,,,,,STOMACH,6434,,,,,,,,recallproc1
IS_JOL A,65,1,3,BlockProc1,Revolution - ?,,15,,,,,WAR,2385,,,,,,,,recallproc1
IS_JOL A,65,1,3,BlockProc1,Artery - ?,,69,,,,,DIETARY,5791,,,,,,,,recallproc1
IS_JOL A,65,1,3,BlockProc1,Math - ?,,28,,,,,DIVISION,8056,,,,,,,,recallproc1
IS_JOL A,65,1,3,BlockProc1,Shoe - ?,,55,,,,,FOOT,2269,,,,,,,,recallproc1
IS_JOL A,65,1,3,BlockProc1,Bridge - ?,,13,,,,,WATER,4495,,,,,,,,recallproc1
IS_JOL A,65,1,3,BlockProc1,Happy - ?,,72,,,,,FANTASTIC,5870,,,,,,,,recallproc1
IS_JOL A,65,1,3,BlockProc1,Clothes - ?,,38,,,,,ATTIRE,11717,,,,,,,,recallproc1
IS_JOL A,65,1,3,BlockProc1,Bitter - ?,,7,,,,,SAD,4460,,,,,,,,recallproc1
IS_JOL A,65,1,3,BlockProc1,Baby - ?,,59,,,,,CHLD,5124,,,,,,,,recallproc1
IS_JOL A,65,1,3,BlockProc1,Pusher - ?,,61,,,,,DIETARY,21121,,,,,,,,recallproc1
IS_JOL A,65,1,3,BlockProc1,Chisel - ?,,4,,,,,HAMMER,4919,,,,,,,,recallproc1
IS_JOL A,65,1,3,BlockProc1,Height - ?,,25,,,,,GROWTH,3501,,,,,,,,recallproc1
IS_JOL A,65,1,3,BlockProc1,Swan - ?,,9,,,,,BIRD,4412,,,,,,,,recallproc1
IS_JOL A,65,1,3,BlockProc1,King - ?,,80,,,,,PAW,6135,,,,,,,,recallproc1
IS_JOL A,65,1,3,BlockProc1,Work - ?,,34,,,,,CHORE,6235,,,,,,,,recallproc1
IS_JOL A,65,1,3,BlockProc1,Herd - ?,,17,,,,,COW,1986,,,,,,,,recallproc1
IS_JOL A,65,1,3,BlockProc1,Great - ?,,30,,,,,FANTASTIC,6856,,,,,,,,recallproc1
IS_JOL A,65,1,3,BlockProc1,Delinquent - ?,,1,,,,,BAD,10174,,,,,,,,recallproc1
IS_JOL A,65,1,3,BlockProc1,Soon - ?,,65,,,,,DUE,9869,,,,,,,,recallproc1
IS_JOL A,65,1,3,BlockProc1,Due - ?,,41,,,,,ASSIGNMENT,4239,,,,,,,,recallproc1
IS_JOL A,65,1,3,BlockProc1,Park - ?,,63,,,,,BALL,7344,,,,,,,,recallproc1
IS_JOL A,65,1,3,BlockProc1,Tuna - ?,,20,,,,,FISH,10202,,,,,,,,recallproc1
IS_JOL A,65,1,3,BlockProc1,Sugar - ?,,76,,,,,SALT,8927,,,,,,,,recallproc1
IS_JOL A,65,1,3,BlockProc1,Orchid - ?,,19,,,,,FISH,3633,,,,,,,,recallproc1
IS_JOL A,65,1,3,BlockProc1,Root - ?,,8,,,,,SITE,5163,,,,,,,,recallproc1
IS_JOL A,65,1,3,BlockProc1,Key - ?,,31,,,,,LATCH,3190,,,,,,,,recallproc1
IS_JOL A,65,1,3,BlockProc1,Hide - ?,,79,,,,,OUT,6410,,,,,,,,recallproc1
IS_JOL A,65,1,3,BlockProc1,Death - ?,,67,,,,,LIFE,12372,,,,,,,,recallproc1
IS_JOL A,65,1,3,BlockProc1,Valley - ?,,77,,,,,CAVE,5295,,,,,,,,recallproc1
IS_JOL A,65,1,3,BlockProc1,Discover - ?,,66,,,,,FIND,8781,,,,,,,,recallproc1
IS_JOL A,65,1,3,BlockProc1,Kidney - ?,,48,,,,,LIVER,3132,,,,,,,,recallproc1
IS_JOL A,65,1,3,BlockProc1,Bug - ?,,27,,,,,WASP,3251,,,,,,,,recallproc1
IS_JOL A,65,1,3,BlockProc1,Geology - ?,,14,,,,,ROCK,2317,,,,,,,,recallproc1
IS_JOL A,65,1,3,BlockProc1,Sentence - ?,,26,,,,,WORD,2205,,,,,,,,recallproc1
IS_JOL A,65,1,3,BlockProc1,Lettuce - ?,,54,,,,,SALAD,3034,,,,,,,,recallproc1
IS_JOL A,65,1,3,BlockProc1,Wine - ?,,52,,,,,POP,12029,,,,,,,,recallproc1
IS_JOL A,65,1,3,BlockProc1,Drink - ?,,22,,,,,WINE,6207,,,,,,,,recallproc1
IS_JOL A,65,1,3,BlockProc1,Editor - ?,,5,,,,,ART,10384,,,,,,,,recallproc1
IS_JOL A,65,1,3,BlockProc1,Begin - ?,,49,,,,,END,4245,,,,,,,,recallproc1
IS_JOL A,65,1,3,BlockProc1,Debate - ?,,68,,,,,DISCUSSION,9583,,,,,,,,recallproc1
IS_JOL A,65,1,3,BlockProc1,Wage - ?,,3,,,,,WORK,6141,,,,,,,,recallproc1
IS_JOL A,65,1,3,BlockProc1,Bathroom - ?,,53,,,,,TOILET,3760,,,,,,,,recallproc1
IS_JOL A,65,1,3,BlockProc1,Location - ?,,43,,,,,SITE,2125,,,,,,,,recallproc1
IS_JOL A,65,1,3,BlockProc1,Strong - ?,,75,,,,,WEAK,22717,,,,,,,,recallproc1
IS_JOL A,65,1,3,BlockProc1,Way - ?,,11,,,,,ONE,6681,,,,,,,,recallproc1
IS_JOL A,65,1,3,BlockProc1,Smell - ?,,37,,,,,STENCH,9055,,,,,,,,recallproc1
IS_JOL A,65,1,3,BlockProc1,Take - ?,,24,,,,,GRAB,3355,,,,,,,,recallproc1
IS_JOL A,65,1,3,BlockProc1,Law - ?,,29,,,,,ATTORNEY,6136,,,,,,,,recallproc1
IS_JOL A,65,1,3,BlockProc1,Choice - ?,,57,,,,,DECISION,4172,,,,,,,,recallproc1
IS_JOL A,65,1,3,BlockProc1,Fire - ?,,40,,,,,COLD,2960,,,,,,,,recallproc1
IS_JOL A,65,1,3,BlockProc1,Honey - ?,,58,,,,,BEE,1622,,,,,,,,recallproc1
IS_JOL A,65,1,3,BlockProc1,Pop - ?,,51,,,,,SODA,3058,,,,,,,,recallproc1
IS_JOL A,65,1,3,BlockProc1,Ball - ?,,33,,,,,SOCCER,3996,,,,,,,,recallproc1
IS_JOL A,65,1,3,BlockProc1,Fix - ?,,70,,,,,MAKE,5127,,,,,,,,recallproc1
IS_JOL A,65,1,3,BlockProc1,Discussion - ?,,16,,,,,DEBATE,6436,,,,,,,,recallproc1
IS_JOL A,65,1,3,BlockProc1,Number - ?,,42,,,,,MATH,24163,,,,,,,,recallproc1
IS_JOL A,65,1,3,BlockProc1,Allow - ?,,73,,,,,MAKE,4716,,,,,,,,recallproc1
IS_JOL A,65,1,3,BlockProc1,Lift - ?,,64,,,,,DROP,4506,,,,,,,,recallproc1
IS_JOL A,65,1,3,BlockProc1,Machine - ?,,71,,,,,GRILL,3032,,,,,,,,recallproc1
IS_JOL A,65,1,3,BlockProc1,Full - ?,,21,,,,,ENOUGH,6963,,,,,,,,recallproc1
IS_JOL A,65,1,3,BlockProc1,Dump - ?,,44,,,,,WASTE,2381,,,,,,,,recallproc1
IS_JOL A,65,2,3,BlockProc2,Sheriff - Police,,1,,,,,,,,,,,,,,StudyProc4
IS_JOL A,65,2,3,BlockProc2,Hide - Scare,,2,,,,,,,,,,,,,,StudyProc4
IS_JOL A,65,2,3,BlockProc2,Malt - Chocolate,,5,,,,,,,,,,,,,,StudyProc4
IS_JOL A,65,2,3,BlockProc2,Disintegrate - Disappear,,3,,,,,,,,,,,,,,StudyProc4
IS_JOL A,65,2,3,BlockProc2,Essay - Write,,4,,,,,,,,,,,,,,StudyProc4
IS_JOL A,65,2,3,BlockProc2,Vehicle - Charm,U,65,,,,,,,,,,,,78,16611,StudyProc8
IS_JOL A,65,2,3,BlockProc2,Sun - Tan,S,60,,,,,,,,,,,,90,14961,StudyProc8
IS_JOL A,65,2,3,BlockProc2,Mason - Jar,S,43,,,,,,,,,,,,30,11444,StudyProc8
IS_JOL A,65,2,3,BlockProc2,Candle - Wax,S,44,,,,,,,,,,,,90,13174,StudyProc8
IS_JOL A,65,2,3,BlockProc2,Name - Hate,U,72,,,,,,,,,,,,90,10690,StudyProc8
IS_JOL A,65,2,3,BlockProc2,Rod - Reel,S,55,,,,,,,,,,,,90,12195,StudyProc8
IS_JOL A,65,2,3,BlockProc2,Loud - Noise,S,57,,,,,,,,,,,,90,9767,StudyProc8
IS_JOL A,65,2,3,BlockProc2,Temperature - Morning,U,78,,,,,,,,,,,,70,9654,StudyProc8
IS_JOL A,65,2,3,BlockProc2,Own - Have,S,58,,,,,,,,,,,,50,10130,StudyProc8
IS_JOL A,65,2,3,BlockProc2,Both - Ounce,U,77,,,,,,,,,,,,70,13065,StudyProc8
IS_JOL A,65,2,3,BlockProc2,Lease - Toil,U,75,,,,,,,,,,,,30,14857,StudyProc8
IS_JOL A,65,2,3,BlockProc2,Alone - Lonely,S,50,,,,,,,,,,,,90,17623,StudyProc8
IS_JOL A,65,2,3,BlockProc2,Earth - Ground,S,49,,,,,,,,,,,,50,6508,StudyProc8
IS_JOL A,65,2,3,BlockProc2,Justice - Maroon,U,61,,,,,,,,,,,,40,11209,StudyProc8
IS_JOL A,65,2,3,BlockProc2,Safety - Seatbelt,S,52,,,,,,,,,,,,90,10445,StudyProc8
IS_JOL A,65,2,3,BlockProc2,Crackle - Able,U,67,,,,,,,,,,,,90,12392,StudyProc8
IS_JOL A,65,2,3,BlockProc2,Moat - Clear,U,74,,,,,,,,,,,,80,18948,StudyProc8
IS_JOL A,65,2,3,BlockProc2,Fuzzy - Bang,U,73,,,,,,,,,,,,40,12514,StudyProc8
IS_JOL A,65,2,3,BlockProc2,Cake - Clothes,U,71,,,,,,,,,,,,30,9776,StudyProc8
IS_JOL A,65,2,3,BlockProc2,Listen - Fiction,U,69,,,,,,,,,,,,30,6839,StudyProc8
IS_JOL A,65,2,3,BlockProc2,Wrist - Bracelet,S,45,,,,,,,,,,,,80,11206,StudyProc8
IS_JOL A,65,2,3,BlockProc2,Loan - Sign,U,76,,,,,,,,,,,,50,6666,StudyProc8
IS_JOL A,65,2,3,BlockProc2,Flea - Tick,S,56,,,,,,,,,,,,50,21320,StudyProc8
IS_JOL A,65,2,3,BlockProc2,Tantrum - Temper,S,59,,,,,,,,,,,,60,14510,StudyProc8
IS_JOL A,65,2,3,BlockProc2,Truth - Lie,S,53,,,,,,,,,,,,100,9259,StudyProc8
IS_JOL A,65,2,3,BlockProc2,Give - Steak,U,63,,,,,,,,,,,,40,13143,StudyProc8
IS_JOL A,65,2,3,BlockProc2,Stretch - Cloth,U,62,,,,,,,,,,,,90,10124,StudyProc8
IS_JOL A,65,2,3,BlockProc2,Maze - Election,U,64,,,,,,,,,,,,80,7925,StudyProc8
IS_JOL A,65,2,3,BlockProc2,Mirror - Children,U,79,,,,,,,,,,,,90,8775,StudyProc8
IS_JOL A,65,2,3,BlockProc2,Keys - Joke,U,70,,,,,,,,,,,,80,7191,StudyProc8
IS_JOL A,65,2,3,BlockProc2,Meat - Obtain,U,66,,,,,,,,,,,,70,8351,StudyProc8
IS_JOL A,65,2,3,BlockProc2,Main - Scar,U,80,,,,,,,,,,,,50,11448,StudyProc8
IS_JOL A,65,2,3,BlockProc2,Razor - Shave,S,41,,,,,,,,,,,,80,12042,StudyProc8
IS_JOL A,65,2,3,BlockProc2,Dry - Wet,S,51,,,,,,,,,,,,0,24532,StudyProc8
IS_JOL A,65,2,3,BlockProc2,Phone - Communicatio,S,54,,,,,,,,,,,,40,16142,StudyProc8
IS_JOL A,65,2,3,BlockProc2,Shell - Shake,U,68,,,,,,,,,,,,70,10440,StudyProc8
IS_JOL A,65,2,3,BlockProc2,Water - Drink,S,48,,,,,,,,,,,,80,7756,StudyProc8
IS_JOL A,65,2,3,BlockProc2,Gone - Away,S,47,,,,,,,,,,,,70,10933,StudyProc8
IS_JOL A,65,2,3,BlockProc2,Element - Carbon,S,46,,,,,,,,,,,,50,24332,StudyProc8
IS_JOL A,65,2,3,BlockProc2,Rights - Equal,S,42,,,,,,,,,,,,90,16479,StudyProc8
IS_JOL A,65,2,3,BlockProc2,Shoelace - Tie,F,4,,,99,12259,,,,,,,,,,StudyProc5
IS_JOL A,65,2,3,BlockProc2,Dead - Coffin,B,33,,,70,12244,,,,,,,,,,StudyProc5
IS_JOL A,65,2,3,BlockProc2,Even - Revenge,B,27,,,50,25773,,,,,,,,,,StudyProc5
IS_JOL A,65,2,3,BlockProc2,Best - Favorite,B,30,,,90,15237,,,,,,,,,,StudyProc5
IS_JOL A,65,2,3,BlockProc2,Cactus - Plant,F,3,,,50,12672,,,,,,,,,,StudyProc5
IS_JOL A,65,2,3,BlockProc2,Feud - Fight,F,18,,,90,10580,,,,,,,,,,StudyProc5
IS_JOL A,65,2,3,BlockProc2,Driver - Car,F,11,,,60,6313,,,,,,,,,,StudyProc5
IS_JOL A,65,2,3,BlockProc2,Car - Windshield,B,22,,,60,6477,,,,,,,,,,StudyProc5
IS_JOL A,65,2,3,BlockProc2,Bird - Penguin,B,24,,,80,8683,,,,,,,,,,StudyProc5
IS_JOL A,65,2,3,BlockProc2,Glass - Breakable,B,32,,,60,19358,,,,,,,,,,StudyProc5
IS_JOL A,65,2,3,BlockProc2,Dine - Eat,F,16,,,90,10884,,,,,,,,,,StudyProc5
IS_JOL A,65,2,3,BlockProc2,Chill - Cold,F,19,,,60,10829,,,,,,,,,,StudyProc5
IS_JOL A,65,2,3,BlockProc2,Baseball - League,B,36,,,90,19280,,,,,,,,,,StudyProc5
IS_JOL A,65,2,3,BlockProc2,Furry - Dog,F,7,,,60,12434,,,,,,,,,,StudyProc5
IS_JOL A,65,2,3,BlockProc2,Extension - Long,F,1,,,70,10851,,,,,,,,,,StudyProc5
IS_JOL A,65,2,3,BlockProc2,Turn - Flip,B,21,,,60,14230,,,,,,,,,,StudyProc5
IS_JOL A,65,2,3,BlockProc2,Detective - Mystery,F,5,,,90,9390,,,,,,,,,,StudyProc5
IS_JOL A,65,2,3,BlockProc2,Clue - Game,F,2,,,60,7029,,,,,,,,,,StudyProc5
IS_JOL A,65,2,3,BlockProc2,Shears - Scissors,F,17,,,60,10021,,,,,,,,,,StudyProc5
IS_JOL A,65,2,3,BlockProc2,Litter - Trash,F,8,,,80,12880,,,,,,,,,,StudyProc5
IS_JOL A,65,2,3,BlockProc2,Plane - Aircraft,B,34,,,80,15871,,,,,,,,,,StudyProc5
IS_JOL A,65,2,3,BlockProc2,Fruit - Strawberry,B,29,,,80,5348,,,,,,,,,,StudyProc5
IS_JOL A,65,2,3,BlockProc2,Star - Actress,B,25,,,70,13080,,,,,,,,,,StudyProc5
IS_JOL A,65,2,3,BlockProc2,Scalp - Head,F,10,,,90,8799,,,,,,,,,,StudyProc5
IS_JOL A,65,2,3,BlockProc2,Affection - Love,F,20,,,90,11006,,,,,,,,,,StudyProc5
IS_JOL A,65,2,3,BlockProc2,Adjourn - End,F,6,,,50,6466,,,,,,,,,,StudyProc5
IS_JOL A,65,2,3,BlockProc2,Honest - Truthful,B,38,,,90,8416,,,,,,,,,,StudyProc5
IS_JOL A,65,2,3,BlockProc2,Sleep - Nap,B,39,,,60,13054,,,,,,,,,,StudyProc5
IS_JOL A,65,2,3,BlockProc2,Bad - Villain,B,23,,,80,11807,,,,,,,,,,StudyProc5
IS_JOL A,65,2,3,BlockProc2,Mule - Donkey,F,13,,,80,18154,,,,,,,,,,StudyProc5
IS_JOL A,65,2,3,BlockProc2,Money - Banker,B,37,,,80,9041,,,,,,,,,,StudyProc5
IS_JOL A,65,2,3,BlockProc2,Chop - Cut,F,12,,,80,7903,,,,,,,,,,StudyProc5
IS_JOL A,65,2,3,BlockProc2,Cat - Panther,B,31,,,80,11834,,,,,,,,,,StudyProc5
IS_JOL A,65,2,3,BlockProc2,Incense - Smell,F,15,,,50,11484,,,,,,,,,,StudyProc5
IS_JOL A,65,2,3,BlockProc2,Fish - Sardine,B,35,,,60,18508,,,,,,,,,,StudyProc5
IS_JOL A,65,2,3,BlockProc2,Pop - Balloon,B,28,,,90,13421,,,,,,,,,,StudyProc5
IS_JOL A,65,2,3,BlockProc2,Fight - Brawl,B,40,,,70,10158,,,,,,,,,,StudyProc5
IS_JOL A,65,2,3,BlockProc2,Document - Paper,F,14,,,80,5925,,,,,,,,,,StudyProc5
IS_JOL A,65,2,3,BlockProc2,Thread - Thimble,B,26,,,10,7402,,,,,,,,,,StudyProc5
IS_JOL A,65,2,3,BlockProc2,Cherry - Red,F,9,,,70,7449,,,,,,,,,,StudyProc5
IS_JOL A,65,2,3,BlockProc2,Magician - Magic,,4,,,,,,,,,,,,,,StudyProc6
IS_JOL A,65,2,3,BlockProc2,Mind - Matter,,2,,,,,,,,,,,,,,StudyProc6
IS_JOL A,65,2,3,BlockProc2,Contest - Competition,,5,,,,,,,,,,,,,,StudyProc6
IS_JOL A,65,2,3,BlockProc2,Deciet - Cheat,,1,,,,,,,,,,,,,,StudyProc6
IS_JOL A,65,2,3,BlockProc2,Deaf - Hear,,3,,,,,,,,,,,,,,StudyProc6
IS_JOL A,65,2,3,BlockProc2,Vehicle - ?,,65,,,,,,,CAR,,,,,,,recallproc2
IS_JOL A,65,2,3,BlockProc2,Temperature - ?,,78,,,,,,,COLD,,,,,,,recallproc2
IS_JOL A,65,2,3,BlockProc2,Chill - ?,,19,,,,,,,COLD,,,,,,,recallproc2
IS_JOL A,65,2,3,BlockProc2,Safety - ?,,52,,,,,,,SEATBELT,,,,,,,recallproc2
IS_JOL A,65,2,3,BlockProc2,Keys - ?,,70,,,,,,,LOCK,,,,,,,recallproc2
IS_JOL A,65,2,3,BlockProc2,Listen - ?,,69,,,,,,,HEAR,,,,,,,recallproc2
IS_JOL A,65,2,3,BlockProc2,Document - ?,,14,,,,,,,PAPER,,,,,,,recallproc2
IS_JOL A,65,2,3,BlockProc2,Dry - ?,,51,,,,,,,WET,,,,,,,recallproc2
IS_JOL A,65,2,3,BlockProc2,Incense - ?,,15,,,,,,,SMELL,,,,,,,recallproc2
IS_JOL A,65,2,3,BlockProc2,Fish - ?,,35,,,,,,,TUNA,,,,,,,recallproc2
IS_JOL A,65,2,3,BlockProc2,Shears - ?,,17,,,,,,,HAMMER,,,,,,,recallproc2
IS_JOL A,65,2,3,BlockProc2,Shell - ?,,68,,,,,,,FISH,,,,,,,recallproc2
IS_JOL A,65,2,3,BlockProc2,Moat - ?,,74,,,,,,,VEHICLE,,,,,,,recallproc2
IS_JOL A,65,2,3,BlockProc2,Clue - ?,,2,,,,,,,HINT,,,,,,,recallproc2
IS_JOL A,65,2,3,BlockProc2,Cherry - ?,,9,,,,,,,RED,,,,,,,recallproc2
IS_JOL A,65,2,3,BlockProc2,Own - ?,,58,,,,,,,BUY,,,,,,,recallproc2
IS_JOL A,65,2,3,BlockProc2,Tantrum - ?,,59,,,,,,,TEMPER,,,,,,,recallproc2
IS_JOL A,65,2,3,BlockProc2,Rod - ?,,55,,,,,,,REEL,,,,,,,recallproc2
IS_JOL A,65,2,3,BlockProc2,Sun - ?,,60,,,,,,,HOT,,,,,,,recallproc2
IS_JOL A,65,2,3,BlockProc2,Cat - ?,,31,,,,,,,PANTHER,,,,,,,recallproc2
IS_JOL A,65,2,3,BlockProc2,Mason - ?,,43,,,,,,,CHID,,,,,,,recallproc2
IS_JOL A,65,2,3,BlockProc2,Star - ?,,25,,,,,,,SHINE,,,,,,,recallproc2
IS_JOL A,65,2,3,BlockProc2,Gone - ?,,47,,,,,,,AWAY,,,,,,,recallproc2
IS_JOL A,65,2,3,BlockProc2,Sleep - ?,,39,,,,,,,NAP,,,,,,,recallproc2
IS_JOL A,65,2,3,BlockProc2,Truth - ?,,53,,,,,,,HONEST,,,,,,,recallproc2
IS_JOL A,65,2,3,BlockProc2,Furry - ?,,7,,,,,,,CAT,,,,,,,recallproc2
IS_JOL A,65,2,3,BlockProc2,Turn - ?,,21,,,,,,,ROTATE,,,,,,,recallproc2
IS_JOL A,65,2,3,BlockProc2,Both - ?,,77,,,,,,,ALL,,,,,,,recallproc2
IS_JOL A,65,2,3,BlockProc2,Plane - ?,,34,,,,,,,PILOT,,,,,,,recallproc2
IS_JOL A,65,2,3,BlockProc2,Extension - ?,,1,,,,,,,LONG,,,,,,,recallproc2
IS_JOL A,65,2,3,BlockProc2,Main - ?,,80,,,,,,,STAR,,,,,,,recallproc2
IS_JOL A,65,2,3,BlockProc2,Car - ?,,22,,,,,,,VEHICLE,,,,,,,recallproc2
IS_JOL A,65,2,3,BlockProc2,Fuzzy - ?,,73,,,,,,,FUR,,,,,,,recallproc2
IS_JOL A,65,2,3,BlockProc2,Bad - ?,,23,,,,,,,GOOD,,,,,,,recallproc2
IS_JOL A,65,2,3,BlockProc2,Honest - ?,,38,,,,,,,TRUTHFUL,,,,,,,recallproc2
IS_JOL A,65,2,3,BlockProc2,Justice - ?,,61,,,,,,,EQUA,,,,,,,recallproc2
IS_JOL A,65,2,3,BlockProc2,Stretch - ?,,62,,,,,,,LONG,,,,,,,recallproc2
IS_JOL A,65,2,3,BlockProc2,Chop - ?,,12,,,,,,,CUT,,,,,,,recallproc2
IS_JOL A,65,2,3,BlockProc2,Even - ?,,27,,,,,,,JUSTICE,,,,,,,recallproc2
IS_JOL A,65,2,3,BlockProc2,Thread - ?,,26,,,,,,,CLOTHES,,,,,,,recallproc2
IS_JOL A,65,2,3,BlockProc2,Glass - ?,,32,,,,,,,BREAKABLE,,,,,,,recallproc2
IS_JOL A,65,2,3,BlockProc2,Mule - ?,,13,,,,,,,DONKEY,,,,,,,recallproc2
IS_JOL A,65,2,3,BlockProc2,Fight - ?,,40,,,,,,,BRAWL,,,,,,,recallproc2
IS_JOL A,65,2,3,BlockProc2,Earth - ?,,49,,,,,,,GROUND,,,,,,,recallproc2
IS_JOL A,65,2,3,BlockProc2,Meat - ?,,66,,,,,,,COW,,,,,,,recallproc2
IS_JOL A,65,2,3,BlockProc2,Driver - ?,,11,,,,,,,CAR,,,,,,,recallproc2
IS_JOL A,65,2,3,BlockProc2,Wrist - ?,,45,,,,,,,BRACELET,,,,,,,recallproc2
IS_JOL A,65,2,3,BlockProc2,Shoelace - ?,,4,,,,,,,TIE,,,,,,,recallproc2
IS_JOL A,65,2,3,BlockProc2,Flea - ?,,56,,,,,,,TICK,,,,,,,recallproc2
IS_JOL A,65,2,3,BlockProc2,Cactus - ?,,3,,,,,,,PLANT,,,,,,,recallproc2
IS_JOL A,65,2,3,BlockProc2,Bird - ?,,24,,,,,,,PENGUIN,,,,,,,recallproc2
IS_JOL A,65,2,3,BlockProc2,Element - ?,,46,,,,,,,CARBON,,,,,,,recallproc2
IS_JOL A,65,2,3,BlockProc2,Crackle - ?,,67,,,,,,,SNAP,,,,,,,recallproc2
IS_JOL A,65,2,3,BlockProc2,Alone - ?,,50,,,,,,,LONLEY,,,,,,,recallproc2
IS_JOL A,65,2,3,BlockProc2,Dead - ?,,33,,,,,,,COFFIN,,,,,,,recallproc2
IS_JOL A,65,2,3,BlockProc2,Affection - ?,,20,,,,,,,LOVE,,,,,,,recallproc2
IS_JOL A,65,2,3,BlockProc2,Adjourn - ?,,6,,,,,,,LEAVE,,,,,,,recallproc2
IS_JOL A,65,2,3,BlockProc2,Loud - ?,,57,,,,,,,NOISE,,,,,,,recallproc2
IS_JOL A,65,2,3,BlockProc2,Cake - ?,,71,,,,,,,CHEER,,,,,,,recallproc2
IS_JOL A,65,2,3,BlockProc2,Litter - ?,,8,,,,,,,TRASH,,,,,,,recallproc2
IS_JOL A,65,2,3,BlockProc2,Razor - ?,,41,,,,,,,CUT,,,,,,,recallproc2
IS_JOL A,65,2,3,BlockProc2,Water - ?,,48,,,,,,,POP,,,,,,,recallproc2
IS_JOL A,65,2,3,BlockProc2,Baseball - ?,,36,,,,,,,LEAGUE,,,,,,,recallproc2
IS_JOL A,65,2,3,BlockProc2,Lease - ?,,75,,,,,,,TAKE,,,,,,,recallproc2
IS_JOL A,65,2,3,BlockProc2,Maze - ?,,64,,,,,,,STUCK,,,,,,,recallproc2
IS_JOL A,65,2,3,BlockProc2,Money - ?,,37,,,,,,,CREDIT,,,,,,,recallproc2
IS_JOL A,65,2,3,BlockProc2,Name - ?,,72,,,,,,,IDENTITY,,,,,,,recallproc2
IS_JOL A,65,2,3,BlockProc2,Detective - ?,,5,,,,,,,MYSTERY,,,,,,,recallproc2
IS_JOL A,65,2,3,BlockProc2,Fruit - ?,,29,,,,,,,STRAWBERRY,,,,,,,recallproc2
IS_JOL A,65,2,3,BlockProc2,Feud - ?,,18,,,,,,,FIGHT,,,,,,,recallproc2
IS_JOL A,65,2,3,BlockProc2,Phone - ?,,54,,,,,,,NUMBER,,,,,,,recallproc2
IS_JOL A,65,2,3,BlockProc2,Mirror - ?,,79,,,,,,,GLASS,,,,,,,recallproc2
IS_JOL A,65,2,3,BlockProc2,Pop - ?,,28,,,,,,,SODA,,,,,,,recallproc2
IS_JOL A,65,2,3,BlockProc2,Best - ?,,30,,,,,,,FAVORITE,,,,,,,recallproc2
IS_JOL A,65,2,3,BlockProc2,Loan - ?,,76,,,,,,,GIVE,,,,,,,recallproc2
IS_JOL A,65,2,3,BlockProc2,Give - ?,,63,,,,,,,LOAN,,,,,,,recallproc2
IS_JOL A,65,2,3,BlockProc2,Candle - ?,,44,,,,,,,WAX,,,,,,,recallproc2
IS_JOL A,65,2,3,BlockProc2,Scalp - ?,,10,,,,,,,HEAD,,,,,,,recallproc2
IS_JOL A,65,2,3,BlockProc2,Dine - ?,,16,,,,,,,EAT,,,,,,,recallproc2
IS_JOL A,65,2,3,BlockProc2,Rights - ?,,42,,,,,,,EQYUAL,,,,,,,recallproc2
IS_JOL A,77,1,,BlockProc1,Deaf-Mute,,2,,,,,,,,,,,,,,Practice1
IS_JOL A,77,1,,BlockProc1,Behavior-Social,,9,,,,,,,,,,,,,,Practice1
IS_JOL A,77,1,,BlockProc1,Fashion-Model,,10,,,,,,,,,,,,,,Practice1
IS_JOL A,77,1,,BlockProc1,Chocolate-Bar,,7,,,,,,,,,,,,,,Practice1
IS_JOL A,77,1,,BlockProc1,Paddle-Row,,4,,,,,,,,,,,,,,Practice1
IS_JOL A,77,1,,BlockProc1,Chime-Music,,8,,,,,,,,,,,,,,Practice1
IS_JOL A,77,1,,BlockProc1,Hinge-Swing,,5,,,,,,,,,,,,,,Practice1
IS_JOL A,77,1,,BlockProc1,Aardvark-Zoo,,1,,,,,,,,,,,,,,Practice1
IS_JOL A,77,1,,BlockProc1,Disbelieve-Skeptic,,6,,,,,,,,,,,,,,Practice1
IS_JOL A,77,1,,BlockProc1,Ham-Bone,,3,,,,,,,,,,,,,,Practice1
IS_JOL A,77,1,3,BlockProc1,Snow - Ice,,3,,,,,,,,,,,,,,StudyProc1
IS_JOL A,77,1,3,BlockProc1,Member - Group,,5,,,,,,,,,,,,,,StudyProc1
IS_JOL A,77,1,3,BlockProc1,Curtain - Drapes,,2,,,,,,,,,,,,,,StudyProc1
IS_JOL A,77,1,3,BlockProc1,Haircut-Scissors,,1,,,,,,,,,,,,,,StudyProc1
IS_JOL A,77,1,3,BlockProc1,Shrimp - Fish,,4,,,,,,,,,,,,,,StudyProc1
IS_JOL A,77,1,3,BlockProc1,Dump - Waste,S,44,40,29022,,,,,,,,,,,,StudyProc3
IS_JOL A,77,1,3,BlockProc1,Sugar - Riddle,U,76,30,37826,,,,,,,,,,,,StudyProc3
IS_JOL A,77,1,3,BlockProc1,Choice - Decision,S,57,60,17334,,,,,,,,,,,,StudyProc3
IS_JOL A,77,1,3,BlockProc1,Wine - Cheese,S,52,70,15846,,,,,,,,,,,,StudyProc3
IS_JOL A,77,1,3,BlockProc1,Blow - Wind,S,50,60,14803,,,,,,,,,,,,StudyProc3
IS_JOL A,77,1,3,BlockProc1,Past - Future,S,56,80,12672,,,,,,,,,,,,StudyProc3
IS_JOL A,77,1,3,BlockProc1,Strong - Accident,U,75,70,19467,,,,,,,,,,,,StudyProc3
IS_JOL A,77,1,3,BlockProc1,Dietary - Sacking,U,62,30,19631,,,,,,,,,,,,StudyProc3
IS_JOL A,77,1,3,BlockProc1,Lift - Woman,U,64,20,14179,,,,,,,,,,,,StudyProc3
IS_JOL A,77,1,3,BlockProc1,Shoe - Foot,S,55,60,15955,,,,,,,,,,,,StudyProc3
IS_JOL A,77,1,3,BlockProc1,Architecture - Design,S,46,50,21186,,,,,,,,,,,,StudyProc3
IS_JOL A,77,1,3,BlockProc1,Discover - Floor,U,66,10,16928,,,,,,,,,,,,StudyProc3
IS_JOL A,77,1,3,BlockProc1,Allow - Tuck,U,73,40,19257,,,,,,,,,,,,StudyProc3
IS_JOL A,77,1,3,BlockProc1,Due - Assignment,S,41,50,18372,,,,,,,,,,,,StudyProc3
IS_JOL A,77,1,3,BlockProc1,Happy - Car,U,72,40,15483,,,,,,,,,,,,StudyProc3
IS_JOL A,77,1,3,BlockProc1,Soon - Belt,U,65,20,16494,,,,,,,,,,,,StudyProc3
IS_JOL A,77,1,3,BlockProc1,Kidney - Liver,S,48,30,36888,,,,,,,,,,,,StudyProc3
IS_JOL A,77,1,3,BlockProc1,Debate - Sight,U,68,40,18313,,,,,,,,,,,,StudyProc3
IS_JOL A,77,1,3,BlockProc1,Hide - Sick,U,79,30,18098,,,,,,,,,,,,StudyProc3
IS_JOL A,77,1,3,BlockProc1,Trial - Jury,S,45,60,20428,,,,,,,,,,,,StudyProc3
IS_JOL A,77,1,3,BlockProc1,Lettuce - Salad,S,54,70,18377,,,,,,,,,,,,StudyProc3
IS_JOL A,77,1,3,BlockProc1,Baby - Child,S,59,80,22952,,,,,,,,,,,,StudyProc3
IS_JOL A,77,1,3,BlockProc1,King - Vase,U,80,40,15520,,,,,,,,,,,,StudyProc3
IS_JOL A,77,1,3,BlockProc1,Cash - Would,U,78,30,22897,,,,,,,,,,,,StudyProc3
IS_JOL A,77,1,3,BlockProc1,Machine - Position,U,71,20,14530,,,,,,,,,,,,StudyProc3
IS_JOL A,77,1,3,BlockProc1,Park - Hungry,U,63,30,16443,,,,,,,,,,,,StudyProc3
IS_JOL A,77,1,3,BlockProc1,Grill - Bar,S,47,50,21512,,,,,,,,,,,,StudyProc3
IS_JOL A,77,1,3,BlockProc1,Death - Business,U,67,40,26505,,,,,,,,,,,,StudyProc3
IS_JOL A,77,1,3,BlockProc1,Valley - Add,U,77,30,28210,,,,,,,,,,,,StudyProc3
IS_JOL A,77,1,3,BlockProc1,Fix - Hand,U,70,40,17614,,,,,,,,,,,,StudyProc3
IS_JOL A,77,1,3,BlockProc1,Pusher - Clutter,U,61,50,21260,,,,,,,,,,,,StudyProc3
IS_JOL A,77,1,3,BlockProc1,Honey - Bee,S,58,90,12079,,,,,,,,,,,,StudyProc3
IS_JOL A,77,1,3,BlockProc1,Bathroom - Toilet,S,53,90,14522,,,,,,,,,,,,StudyProc3
IS_JOL A,77,1,3,BlockProc1,Number - Amount,S,42,70,23763,,,,,,,,,,,,StudyProc3
IS_JOL A,77,1,3,BlockProc1,Art - Lion,U,74,40,15346,,,,,,,,,,,,StudyProc3
IS_JOL A,77,1,3,BlockProc1,Circle - Round,S,60,60,24955,,,,,,,,,,,,StudyProc3
IS_JOL A,77,1,3,BlockProc1,Location - Site,S,43,60,32946,,,,,,,,,,,,StudyProc3
IS_JOL A,77,1,3,BlockProc1,Artery - Bronze,U,69,30,25401,,,,,,,,,,,,StudyProc3
IS_JOL A,77,1,3,BlockProc1,Begin - End,S,49,90,7078,,,,,,,,,,,,StudyProc3
IS_JOL A,77,1,3,BlockProc1,Pop - Soda,S,51,80,12378,,,,,,,,,,,,StudyProc3
IS_JOL A,77,1,3,BlockProc1,Root - Plant,F,8,,,,,,,,,,80,14299,,,StudyProc7
IS_JOL A,77,1,3,BlockProc1,Great - Fantastic,B,30,,,,,,,,,,40,19902,,,StudyProc7
IS_JOL A,77,1,3,BlockProc1,Hunger - Famine,B,35,,,,,,,,,,10,21719,,,StudyProc7
IS_JOL A,77,1,3,BlockProc1,Editor - News,F,5,,,,,,,,,,70,13608,,,StudyProc7
IS_JOL A,77,1,3,BlockProc1,Geology - Rock,F,14,,,,,,,,,,30,12478,,,StudyProc7
IS_JOL A,77,1,3,BlockProc1,Ball - Racket,B,33,,,,,,,,,,60,10985,,,StudyProc7
IS_JOL A,77,1,3,BlockProc1,Digestion - Stomach,F,2,,,,,,,,,,80,13191,,,StudyProc7
IS_JOL A,77,1,3,BlockProc1,Dark - Cave,B,23,,,,,,,,,,70,16934,,,StudyProc7
IS_JOL A,77,1,3,BlockProc1,Drink - Sip,B,22,,,,,,,,,,80,9255,,,StudyProc7
IS_JOL A,77,1,3,BlockProc1,Smell - Stench,B,37,,,,,,,,,,70,13251,,,StudyProc7
IS_JOL A,77,1,3,BlockProc1,Credit - Card,F,18,,,,,,,,,,60,21567,,,StudyProc7
IS_JOL A,77,1,3,BlockProc1,Law - Attorney,B,29,,,,,,,,,,70,17398,,,StudyProc7
IS_JOL A,77,1,3,BlockProc1,Bitter - Cold,F,7,,,,,,,,,,50,17045,,,StudyProc7
IS_JOL A,77,1,3,BlockProc1,Chisel - Hammer,F,4,,,,,,,,,,0,18937,,,StudyProc7
IS_JOL A,77,1,3,BlockProc1,Hygiene - Clean,F,12,,,,,,,,,,50,16648,,,StudyProc7
IS_JOL A,77,1,3,BlockProc1,Math - Division,B,28,,,,,,,,,,70,19588,,,StudyProc7
IS_JOL A,77,1,3,BlockProc1,Bridge - Water,F,13,,,,,,,,,,60,13114,,,StudyProc7
IS_JOL A,77,1,3,BlockProc1,Tuna - Fish,F,20,,,,,,,,,,70,21620,,,StudyProc7
IS_JOL A,77,1,3,BlockProc1,Height - Growth,B,25,,,,,,,,,,60,15057,,,StudyProc7
IS_JOL A,77,1,3,BlockProc1,Swan - Bird,F,9,,,,,,,,,,50,15996,,,StudyProc7
IS_JOL A,77,1,3,BlockProc1,Key - Latch,B,31,,,,,,,,,,40,13074,,,StudyProc7
IS_JOL A,77,1,3,BlockProc1,Fire - Blaze,B,40,,,,,,,,,,30,22526,,,StudyProc7
IS_JOL A,77,1,3,BlockProc1,Sentence - Word,B,26,,,,,,,,,,70,18231,,,StudyProc7
IS_JOL A,77,1,3,BlockProc1,Plane - Pilot,B,39,,,,,,,,,,80,14307,,,StudyProc7
IS_JOL A,77,1,3,BlockProc1,Wage - Money,F,3,,,,,,,,,,30,22229,,,StudyProc7
IS_JOL A,77,1,3,BlockProc1,Sleep - Drowsy,B,36,,,,,,,,,,60,19338,,,StudyProc7
IS_JOL A,77,1,3,BlockProc1,Clothes - Attire,B,38,,,,,,,,,,70,14394,,,StudyProc7
IS_JOL A,77,1,3,BlockProc1,Delinquent - Bad,F,1,,,,,,,,,,30,27040,,,StudyProc7
IS_JOL A,77,1,3,BlockProc1,Hornet - Sting,F,6,,,,,,,,,,70,14747,,,StudyProc7
IS_JOL A,77,1,3,BlockProc1,Herd - Cow,F,17,,,,,,,,,,60,20532,,,StudyProc7
IS_JOL A,77,1,3,BlockProc1,Bug - Wasp,B,27,,,,,,,,,,50,19877,,,StudyProc7
IS_JOL A,77,1,3,BlockProc1,Work - Chore,B,34,,,,,,,,,,60,18583,,,StudyProc7
IS_JOL A,77,1,3,BlockProc1,Hot - Chili,B,32,,,,,,,,,,80,14422,,,StudyProc7
IS_JOL A,77,1,3,BlockProc1,Take - Seize,B,24,,,,,,,,,,20,18739,,,StudyProc7
IS_JOL A,77,1,3,BlockProc1,Paw - Dog,F,10,,,,,,,,,,70,20619,,,StudyProc7
IS_JOL A,77,1,3,BlockProc1,Full - Enough,B,21,,,,,,,,,,70,25584,,,StudyProc7
IS_JOL A,77,1,3,BlockProc1,Discussion - Talk,F,16,,,,,,,,,,60,14182,,,StudyProc7
IS_JOL A,77,1,3,BlockProc1,Way - Out,F,11,,,,,,,,,,40,17093,,,StudyProc7
IS_JOL A,77,1,3,BlockProc1,Orchid - Flower,F,19,,,,,,,,,,10,18399,,,StudyProc7
IS_JOL A,77,1,3,BlockProc1,Revolution - War,F,15,,,,,,,,,,80,17349,,,StudyProc7
IS_JOL A,77,1,3,BlockProc1,Grab - Take,,2,,,,,,,,,,,,,,StudyProc2
IS_JOL A,77,1,3,BlockProc1,Trees - Green,,5,,,,,,,,,,,,,,StudyProc2
IS_JOL A,77,1,3,BlockProc1,Friendliness - Nice,,3,,,,,,,,,,,,,,StudyProc2
IS_JOL A,77,1,3,BlockProc1,Catcher - Baseball,,4,,,,,,,,,,,,,,StudyProc2
IS_JOL A,77,1,3,BlockProc1,Geese - Goose,,1,,,,,,,,,,,,,,StudyProc2
IS_JOL A,77,1,3,BlockProc1,Death - ?,,67,,,,,row,7661,,,,,,,,recallproc1
IS_JOL A,77,1,3,BlockProc1,Hunger - ?,,35,,,,,hungry,20345,,,,,,,,recallproc1
IS_JOL A,77,1,3,BlockProc1,Location - ?,,43,,,,,site,2649,,,,,,,,recallproc1
IS_JOL A,77,1,3,BlockProc1,Bug - ?,,27,,,,,wasp,11966,,,,,,,,recallproc1
IS_JOL A,77,1,3,BlockProc1,Pop - ?,,51,,,,,soda,2638,,,,,,,,recallproc1
IS_JOL A,77,1,3,BlockProc1,Soon - ?,,65,,,,,late,6699,,,,,,,,recallproc1
IS_JOL A,77,1,3,BlockProc1,Digestion - ?,,2,,,,,stomach,4846,,,,,,,,recallproc1
IS_JOL A,77,1,3,BlockProc1,Dietary - ?,,62,,,,,diet,7795,,,,,,,,recallproc1
IS_JOL A,77,1,3,BlockProc1,Wine - ?,,52,,,,,cheese,4130,,,,,,,,recallproc1
IS_JOL A,77,1,3,BlockProc1,Hygiene - ?,,12,,,,,clean,4603,,,,,,,,recallproc1
IS_JOL A,77,1,3,BlockProc1,Fix - ?,,70,,,,,unfixable,16178,,,,,,,,recallproc1
IS_JOL A,77,1,3,BlockProc1,Bridge - ?,,13,,,,,water,3057,,,,,,,,recallproc1
IS_JOL A,77,1,3,BlockProc1,Machine - ?,,71,,,,,input,6781,,,,,,,,recallproc1
IS_JOL A,77,1,3,BlockProc1,Ball - ?,,33,,,,,grab,11045,,,,,,,,recallproc1
IS_JOL A,77,1,3,BlockProc1,Root - ?,,8,,,,,plant,3609,,,,,,,,recallproc1
IS_JOL A,77,1,3,BlockProc1,Bathroom - ?,,53,,,,,toliet,4360,,,,,,,,recallproc1
IS_JOL A,77,1,3,BlockProc1,Key - ?,,31,,,,,latch,7264,,,,,,,,recallproc1
IS_JOL A,77,1,3,BlockProc1,Lift - ?,,64,,,,,heavy,4084,,,,,,,,recallproc1
IS_JOL A,77,1,3,BlockProc1,Art - ?,,74,,,,,vally,7232,,,,,,,,recallproc1
IS_JOL A,77,1,3,BlockProc1,Tuna - ?,,20,,,,,fish,2925,,,,,,,,recallproc1
IS_JOL A,77,1,3,BlockProc1,Law - ?,,29,,,,,attorney,4623,,,,,,,,recallproc1
IS_JOL A,77,1,3,BlockProc1,Sentence - ?,,26,,,,,word,3069,,,,,,,,recallproc1
IS_JOL A,77,1,3,BlockProc1,Math - ?,,28,,,,,divison,5489,,,,,,,,recallproc1
IS_JOL A,77,1,3,BlockProc1,Full - ?,,21,,,,,enough,3796,,,,,,,,recallproc1
IS_JOL A,77,1,3,BlockProc1,Height - ?,,25,,,,,size,13579,,,,,,,,recallproc1
IS_JOL A,77,1,3,BlockProc1,Honey - ?,,58,,,,,bee,3282,,,,,,,,recallproc1
IS_JOL A,77,1,3,BlockProc1,Due - ?,,41,,,,,assignment,5046,,,,,,,,recallproc1
IS_JOL A,77,1,3,BlockProc1,Architecture - ?,,46,,,,,design,6027,,,,,,,,recallproc1
IS_JOL A,77,1,3,BlockProc1,Happy - ?,,72,,,,,enthustastic,10272,,,,,,,,recallproc1
IS_JOL A,77,1,3,BlockProc1,Strong - ?,,75,,,,,war,12779,,,,,,,,recallproc1
IS_JOL A,77,1,3,BlockProc1,Dark - ?,,23,,,,,cave,3155,,,,,,,,recallproc1
IS_JOL A,77,1,3,BlockProc1,Dump - ?,,44,,,,,waste,3195,,,,,,,,recallproc1
IS_JOL A,77,1,3,BlockProc1,Number - ?,,42,,,,,amount,10378,,,,,,,,recallproc1
IS_JOL A,77,1,3,BlockProc1,Circle - ?,,60,,,,,round,4145,,,,,,,,recallproc1
IS_JOL A,77,1,3,BlockProc1,Valley - ?,,77,,,,,art,8146,,,,,,,,recallproc1
IS_JOL A,77,1,3,BlockProc1,Geology - ?,,14,,,,,human,10707,,,,,,,,recallproc1
IS_JOL A,77,1,3,BlockProc1,Hornet - ?,,6,,,,,stinger,5693,,,,,,,,recallproc1
IS_JOL A,77,1,3,BlockProc1,Shoe - ?,,55,,,,,foot,3672,,,,,,,,recallproc1
IS_JOL A,77,1,3,BlockProc1,Park - ?,,63,,,,,site,4988,,,,,,,,recallproc1
IS_JOL A,77,1,3,BlockProc1,Hot - ?,,32,,,,,chili,3611,,,,,,,,recallproc1
IS_JOL A,77,1,3,BlockProc1,Clothes - ?,,38,,,,,attire,4313,,,,,,,,recallproc1
IS_JOL A,77,1,3,BlockProc1,Great - ?,,30,,,,,fanstatic,7764,,,,,,,,recallproc1
IS_JOL A,77,1,3,BlockProc1,King - ?,,80,,,,,person,9956,,,,,,,,recallproc1
IS_JOL A,77,1,3,BlockProc1,Begin - ?,,49,,,,,end,2084,,,,,,,,recallproc1
IS_JOL A,77,1,3,BlockProc1,Editor - ?,,5,,,,,news,5408,,,,,,,,recallproc1
IS_JOL A,77,1,3,BlockProc1,Hide - ?,,79,,,,,place,9846,,,,,,,,recallproc1
IS_JOL A,77,1,3,BlockProc1,Way - ?,,11,,,,,path,5427,,,,,,,,recallproc1
IS_JOL A,77,1,3,BlockProc1,Grill - ?,,47,,,,,bar,3000,,,,,,,,recallproc1
IS_JOL A,77,1,3,BlockProc1,Pusher - ?,,61,,,,,clutter,6431,,,,,,,,recallproc1
IS_JOL A,77,1,3,BlockProc1,Fire - ?,,40,,,,,blazzer,3797,,,,,,,,recallproc1
IS_JOL A,77,1,3,BlockProc1,Drink - ?,,22,,,,,sip,2236,,,,,,,,recallproc1
IS_JOL A,77,1,3,BlockProc1,Paw - ?,,10,,,,,dog,6577,,,,,,,,recallproc1
IS_JOL A,77,1,3,BlockProc1,Bitter - ?,,7,,,,,taste,14073,,,,,,,,recallproc1
IS_JOL A,77,1,3,BlockProc1,Smell - ?,,37,,,,,stinch,6132,,,,,,,,recallproc1
IS_JOL A,77,1,3,BlockProc1,Artery - ?,,69,,,,,liver,8677,,,,,,,,recallproc1
IS_JOL A,77,1,3,BlockProc1,Choice - ?,,57,,,,,desicison,7609,,,,,,,,recallproc1
IS_JOL A,77,1,3,BlockProc1,Swan - ?,,9,,,,,bird,3447,,,,,,,,recallproc1
IS_JOL A,77,1,3,BlockProc1,Take - ?,,24,,,,,grab,2180,,,,,,,,recallproc1
IS_JOL A,77,1,3,BlockProc1,Revolution - ?,,15,,,,,war,2124,,,,,,,,recallproc1
IS_JOL A,77,1,3,BlockProc1,Discover - ?,,66,,,,,found,33182,,,,,,,,recallproc1
IS_JOL A,77,1,3,BlockProc1,Sugar - ?,,76,,,,,riddle,10155,,,,,,,,recallproc1
IS_JOL A,77,1,3,BlockProc1,Kidney - ?,,48,,,,,liver,3123,,,,,,,,recallproc1
IS_JOL A,77,1,3,BlockProc1,Credit - ?,,18,,,,,card,2013,,,,,,,,recallproc1
IS_JOL A,77,1,3,BlockProc1,Delinquent - ?,,1,,,,,quickly,9548,,,,,,,,recallproc1
IS_JOL A,77,1,3,BlockProc1,Trial - ?,,45,,,,,jury,3716,,,,,,,,recallproc1
IS_JOL A,77,1,3,BlockProc1,Lettuce - ?,,54,,,,,salad,2895,,,,,,,,recallproc1
IS_JOL A,77,1,3,BlockProc1,Herd - ?,,17,,,,,cow,3250,,,,,,,,recallproc1
IS_JOL A,77,1,3,BlockProc1,Sleep - ?,,36,,,,,drowsy,3863,,,,,,,,recallproc1
IS_JOL A,77,1,3,BlockProc1,Chisel - ?,,4,,,,,music,6700,,,,,,,,recallproc1
IS_JOL A,77,1,3,BlockProc1,Allow - ?,,73,,,,,fix,22150,,,,,,,,recallproc1
IS_JOL A,77,1,3,BlockProc1,Debate - ?,,68,,,,,discussion,5382,,,,,,,,recallproc1
IS_JOL A,77,1,3,BlockProc1,Plane - ?,,39,,,,,poliet,3142,,,,,,,,recallproc1
IS_JOL A,77,1,3,BlockProc1,Orchid - ?,,19,,,,,bird,7911,,,,,,,,recallproc1
IS_JOL A,77,1,3,BlockProc1,Baby - ?,,59,,,,,child,4849,,,,,,,,recallproc1
IS_JOL A,77,1,3,BlockProc1,Cash - ?,,78,,,,,money,3910,,,,,,,,recallproc1
IS_JOL A,77,1,3,BlockProc1,Discussion - ?,,16,,,,,talk,6528,,,,,,,,recallproc1
IS_JOL A,77,1,3,BlockProc1,Past - ?,,56,,,,,future,6738,,,,,,,,recallproc1
IS_JOL A,77,1,3,BlockProc1,Wage - ?,,3,,,,,money,3771,,,,,,,,recallproc1
IS_JOL A,77,1,3,BlockProc1,Blow - ?,,50,,,,,wind,2571,,,,,,,,recallproc1
IS_JOL A,77,1,3,BlockProc1,Work - ?,,34,,,,,chore,3298,,,,,,,,recallproc1
IS_JOL A,77,2,3,BlockProc2,Sheriff - Police,,1,,,,,,,,,,,,,,StudyProc4
IS_JOL A,77,2,3,BlockProc2,Malt - Chocolate,,5,,,,,,,,,,,,,,StudyProc4
IS_JOL A,77,2,3,BlockProc2,Hide - Scare,,2,,,,,,,,,,,,,,StudyProc4
IS_JOL A,77,2,3,BlockProc2,Disintegrate - Disappear,,3,,,,,,,,,,,,,,StudyProc4
IS_JOL A,77,2,3,BlockProc2,Essay - Write,,4,,,,,,,,,,,,,,StudyProc4
IS_JOL A,77,2,3,BlockProc2,Own - Have,S,58,,,,,,,,,,,,80,15973,StudyProc8
IS_JOL A,77,2,3,BlockProc2,Name - Hate,U,72,,,,,,,,,,,,50,12428,StudyProc8
IS_JOL A,77,2,3,BlockProc2,Mason - Jar,S,43,,,,,,,,,,,,80,13610,StudyProc8
IS_JOL A,77,2,3,BlockProc2,Gone - Away,S,47,,,,,,,,,,,,70,11567,StudyProc8
IS_JOL A,77,2,3,BlockProc2,Rights - Equal,S,42,,,,,,,,,,,,70,16079,StudyProc8
IS_JOL A,77,2,3,BlockProc2,Alone - Lonely,S,50,,,,,,,,,,,,80,15754,StudyProc8
IS_JOL A,77,2,3,BlockProc2,Both - Ounce,U,77,,,,,,,,,,,,60,16658,StudyProc8
IS_JOL A,77,2,3,BlockProc2,Main - Scar,U,80,,,,,,,,,,,,40,20877,StudyProc8
IS_JOL A,77,2,3,BlockProc2,Fuzzy - Bang,U,73,,,,,,,,,,,,30,11808,StudyProc8
IS_JOL A,77,2,3,BlockProc2,Safety - Seatbelt,S,52,,,,,,,,,,,,60,10942,StudyProc8
IS_JOL A,77,2,3,BlockProc2,Moat - Clear,U,74,,,,,,,,,,,,10,18854,StudyProc8
IS_JOL A,77,2,3,BlockProc2,Water - Drink,S,48,,,,,,,,,,,,60,13578,StudyProc8
IS_JOL A,77,2,3,BlockProc2,Give - Steak,U,63,,,,,,,,,,,,50,11249,StudyProc8
IS_JOL A,77,2,3,BlockProc2,Loan - Sign,U,76,,,,,,,,,,,,50,9565,StudyProc8
IS_JOL A,77,2,3,BlockProc2,Listen - Fiction,U,69,,,,,,,,,,,,20,11861,StudyProc8
IS_JOL A,77,2,3,BlockProc2,Razor - Shave,S,41,,,,,,,,,,,,90,10297,StudyProc8
IS_JOL A,77,2,3,BlockProc2,Wrist - Bracelet,S,45,,,,,,,,,,,,70,7860,StudyProc8
IS_JOL A,77,2,3,BlockProc2,Dry - Wet,S,51,,,,,,,,,,,,100,17488,StudyProc8
IS_JOL A,77,2,3,BlockProc2,Vehicle - Charm,U,65,,,,,,,,,,,,40,10002,StudyProc8
IS_JOL A,77,2,3,BlockProc2,Temperature - Morning,U,78,,,,,,,,,,,,60,14944,StudyProc8
IS_JOL A,77,2,3,BlockProc2,Cake - Clothes,U,71,,,,,,,,,,,,70,10000,StudyProc8
IS_JOL A,77,2,3,BlockProc2,Lease - Toil,U,75,,,,,,,,,,,,10,11775,StudyProc8
IS_JOL A,77,2,3,BlockProc2,Shell - Shake,U,68,,,,,,,,,,,,20,12350,StudyProc8
IS_JOL A,77,2,3,BlockProc2,Mirror - Children,U,79,,,,,,,,,,,,30,9415,StudyProc8
IS_JOL A,77,2,3,BlockProc2,Maze - Election,U,64,,,,,,,,,,,,35,23213,StudyProc8
IS_JOL A,77,2,3,BlockProc2,Rod - Reel,S,55,,,,,,,,,,,,0,10722,StudyProc8
IS_JOL A,77,2,3,BlockProc2,Candle - Wax,S,44,,,,,,,,,,,,80,14443,StudyProc8
IS_JOL A,77,2,3,BlockProc2,Meat - Obtain,U,66,,,,,,,,,,,,10,11527,StudyProc8
IS_JOL A,77,2,3,BlockProc2,Keys - Joke,U,70,,,,,,,,,,,,25,12265,StudyProc8
IS_JOL A,77,2,3,BlockProc2,Earth - Ground,S,49,,,,,,,,,,,,30,10604,StudyProc8
IS_JOL A,77,2,3,BlockProc2,Tantrum - Temper,S,59,,,,,,,,,,,,50,14738,StudyProc8
IS_JOL A,77,2,3,BlockProc2,Element - Carbon,S,46,,,,,,,,,,,,60,15931,StudyProc8
IS_JOL A,77,2,3,BlockProc2,Justice - Maroon,U,61,,,,,,,,,,,,20,10884,StudyProc8
IS_JOL A,77,2,3,BlockProc2,Crackle - Able,U,67,,,,,,,,,,,,0,13695,StudyProc8
IS_JOL A,77,2,3,BlockProc2,Flea - Tick,S,56,,,,,,,,,,,,90,10617,StudyProc8
IS_JOL A,77,2,3,BlockProc2,Stretch - Cloth,U,62,,,,,,,,,,,,40,11479,StudyProc8
IS_JOL A,77,2,3,BlockProc2,Loud - Noise,S,57,,,,,,,,,,,,40,16730,StudyProc8
IS_JOL A,77,2,3,BlockProc2,Sun - Tan,S,60,,,,,,,,,,,,80,20395,StudyProc8
IS_JOL A,77,2,3,BlockProc2,Truth - Lie,S,53,,,,,,,,,,,,100,14297,StudyProc8
IS_JOL A,77,2,3,BlockProc2,Phone - Communicatio,S,54,,,,,,,,,,,,60,19348,StudyProc8
IS_JOL A,77,2,3,BlockProc2,Detective - Mystery,F,5,,,60,19701,,,,,,,,,,StudyProc5
IS_JOL A,77,2,3,BlockProc2,Mule - Donkey,F,13,,,15,21495,,,,,,,,,,StudyProc5
IS_JOL A,77,2,3,BlockProc2,Baseball - League,B,36,,,40,21609,,,,,,,,,,StudyProc5
IS_JOL A,77,2,3,BlockProc2,Shears - Scissors,F,17,,,0,17302,,,,,,,,,,StudyProc5
IS_JOL A,77,2,3,BlockProc2,Pop - Balloon,B,28,,,70,10543,,,,,,,,,,StudyProc5
IS_JOL A,77,2,3,BlockProc2,Fruit - Strawberry,B,29,,,70,20752,,,,,,,,,,StudyProc5
IS_JOL A,77,2,3,BlockProc2,Chill - Cold,F,19,,,70,21119,,,,,,,,,,StudyProc5
IS_JOL A,77,2,3,BlockProc2,Driver - Car,F,11,,,80,13728,,,,,,,,,,StudyProc5
IS_JOL A,77,2,3,BlockProc2,Document - Paper,F,14,,,70,12593,,,,,,,,,,StudyProc5
IS_JOL A,77,2,3,BlockProc2,Furry - Dog,F,7,,,60,11047,,,,,,,,,,StudyProc5
IS_JOL A,77,2,3,BlockProc2,Glass - Breakable,B,32,,,50,15156,,,,,,,,,,StudyProc5
IS_JOL A,77,2,3,BlockProc2,Fish - Sardine,B,35,,,20,12172,,,,,,,,,,StudyProc5
IS_JOL A,77,2,3,BlockProc2,Best - Favorite,B,30,,,65,25123,,,,,,,,,,StudyProc5
IS_JOL A,77,2,3,BlockProc2,Sleep - Nap,B,39,,,70,17635,,,,,,,,,,StudyProc5
IS_JOL A,77,2,3,BlockProc2,Car - Windshield,B,22,,,40,18935,,,,,,,,,,StudyProc5
IS_JOL A,77,2,3,BlockProc2,Scalp - Head,F,10,,,60,17463,,,,,,,,,,StudyProc5
IS_JOL A,77,2,3,BlockProc2,Honest - Truthful,B,38,,,30,21715,,,,,,,,,,StudyProc5
IS_JOL A,77,2,3,BlockProc2,Thread - Thimble,B,26,,,10,21788,,,,,,,,,,StudyProc5
IS_JOL A,77,2,3,BlockProc2,Cherry - Red,F,9,,,80,11466,,,,,,,,,,StudyProc5
IS_JOL A,77,2,3,BlockProc2,Affection - Love,F,20,,,50,11670,,,,,,,,,,StudyProc5
IS_JOL A,77,2,3,BlockProc2,Bird - Penguin,B,24,,,40,17433,,,,,,,,,,StudyProc5
IS_JOL A,77,2,3,BlockProc2,Turn - Flip,B,21,,,60,19638,,,,,,,,,,StudyProc5
IS_JOL A,77,2,3,BlockProc2,Feud - Fight,F,18,,,60,12690,,,,,,,,,,StudyProc5
IS_JOL A,77,2,3,BlockProc2,Clue - Game,F,2,,,50,25948,,,,,,,,,,StudyProc5
IS_JOL A,77,2,3,BlockProc2,Extension - Long,F,1,,,70,13028,,,,,,,,,,StudyProc5
IS_JOL A,77,2,3,BlockProc2,Even - Revenge,B,27,,,55,19121,,,,,,,,,,StudyProc5
IS_JOL A,77,2,3,BlockProc2,Star - Actress,B,25,,,70,19073,,,,,,,,,,StudyProc5
IS_JOL A,77,2,3,BlockProc2,Dead - Coffin,B,33,,,50,12564,,,,,,,,,,StudyProc5
IS_JOL A,77,2,3,BlockProc2,Incense - Smell,F,15,,,20,13756,,,,,,,,,,StudyProc5
IS_JOL A,77,2,3,BlockProc2,Plane - Aircraft,B,34,,,10,22100,,,,,,,,,,StudyProc5
IS_JOL A,77,2,3,BlockProc2,Cat - Panther,B,31,,,70,16030,,,,,,,,,,StudyProc5
IS_JOL A,77,2,3,BlockProc2,Shoelace - Tie,F,4,,,60,15762,,,,,,,,,,StudyProc5
IS_JOL A,77,2,3,BlockProc2,Chop - Cut,F,12,,,50,13778,,,,,,,,,,StudyProc5
IS_JOL A,77,2,3,BlockProc2,Litter - Trash,F,8,,,40,13409,,,,,,,,,,StudyProc5
IS_JOL A,77,2,3,BlockProc2,Adjourn - End,F,6,,,0,8575,,,,,,,,,,StudyProc5
IS_JOL A,77,2,3,BlockProc2,Bad - Villain,B,23,,,40,17142,,,,,,,,,,StudyProc5
IS_JOL A,77,2,3,BlockProc2,Cactus - Plant,F,3,,,60,12534,,,,,,,,,,StudyProc5
IS_JOL A,77,2,3,BlockProc2,Fight - Brawl,B,40,,,40,15920,,,,,,,,,,StudyProc5
IS_JOL A,77,2,3,BlockProc2,Money - Banker,B,37,,,50,15112,,,,,,,,,,StudyProc5
IS_JOL A,77,2,3,BlockProc2,Dine - Eat,F,16,,,60,14849,,,,,,,,,,StudyProc5
IS_JOL A,77,2,3,BlockProc2,Contest - Competition,,5,,,,,,,,,,,,,,StudyProc6
IS_JOL A,77,2,3,BlockProc2,Magician - Magic,,4,,,,,,,,,,,,,,StudyProc6
IS_JOL A,77,2,3,BlockProc2,Deciet - Cheat,,1,,,,,,,,,,,,,,StudyProc6
IS_JOL A,77,2,3,BlockProc2,Deaf - Hear,,3,,,,,,,,,,,,,,StudyProc6
IS_JOL A,77,2,3,BlockProc2,Mind - Matter,,2,,,,,,,,,,,,,,StudyProc6
IS_JOL A,77,2,3,BlockProc2,Car - ?,,22,,,,,,,driver,,,,,,,recallproc2
IS_JOL A,77,2,3,BlockProc2,Bird - ?,,24,,,,,,,pengiun,,,,,,,recallproc2
IS_JOL A,77,2,3,BlockProc2,Pop - ?,,28,,,,,,,actress,,,,,,,recallproc2
IS_JOL A,77,2,3,BlockProc2,Mirror - ?,,79,,,,,,,child,,,,,,,recallproc2
IS_JOL A,77,2,3,BlockProc2,Crackle - ?,,67,,,,,,,open,,,,,,,recallproc2
IS_JOL A,77,2,3,BlockProc2,Affection - ?,,20,,,,,,,love,,,,,,,recallproc2
IS_JOL A,77,2,3,BlockProc2,Rights - ?,,42,,,,,,,equal,,,,,,,recallproc2
IS_JOL A,77,2,3,BlockProc2,Feud - ?,,18,,,,,,,fight,,,,,,,recallproc2
IS_JOL A,77,2,3,BlockProc2,Give - ?,,63,,,,,,,take,,,,,,,recallproc2
IS_JOL A,77,2,3,BlockProc2,Shears - ?,,17,,,,,,,covered,,,,,,,recallproc2
IS_JOL A,77,2,3,BlockProc2,Cake - ?,,71,,,,,,,clothes,,,,,,,recallproc2
IS_JOL A,77,2,3,BlockProc2,Element - ?,,46,,,,,,,carbon,,,,,,,recallproc2
IS_JOL A,77,2,3,BlockProc2,Justice - ?,,61,,,,,,,law,,,,,,,recallproc2
IS_JOL A,77,2,3,BlockProc2,Dry - ?,,51,,,,,,,wet,,,,,,,recallproc2
IS_JOL A,77,2,3,BlockProc2,Meat - ?,,66,,,,,,,steak,,,,,,,recallproc2
IS_JOL A,77,2,3,BlockProc2,Temperature - ?,,78,,,,,,,morning,,,,,,,recallproc2
IS_JOL A,77,2,3,BlockProc2,Vehicle - ?,,65,,,,,,,car,,,,,,,recallproc2
IS_JOL A,77,2,3,BlockProc2,Litter - ?,,8,,,,,,,trash,,,,,,,recallproc2
IS_JOL A,77,2,3,BlockProc2,Lease - ?,,75,,,,,,,sign,,,,,,,recallproc2
IS_JOL A,77,2,3,BlockProc2,Listen - ?,,69,,,,,,,hear,,,,,,,recallproc2
IS_JOL A,77,2,3,BlockProc2,Baseball - ?,,36,,,,,,,league,,,,,,,recallproc2
IS_JOL A,77,2,3,BlockProc2,Mason - ?,,43,,,,,,,jar,,,,,,,recallproc2
IS_JOL A,77,2,3,BlockProc2,Fruit - ?,,29,,,,,,,strawberry,,,,,,,recallproc2
IS_JOL A,77,2,3,BlockProc2,Keys - ?,,70,,,,,,,joke,,,,,,,recallproc2
IS_JOL A,77,2,3,BlockProc2,Bad - ?,,23,,,,,,,temper,,,,,,,recallproc2
IS_JOL A,77,2,3,BlockProc2,Both - ?,,77,,,,,,,seperate,,,,,,,recallproc2
IS_JOL A,77,2,3,BlockProc2,Stretch - ?,,62,,,,,,,cloth,,,,,,,recallproc2
IS_JOL A,77,2,3,BlockProc2,Document - ?,,14,,,,,,,paper,,,,,,,recallproc2
IS_JOL A,77,2,3,BlockProc2,Detective - ?,,5,,,,,,,sight,,,,,,,recallproc2
IS_JOL A,77,2,3,BlockProc2,Turn - ?,,21,,,,,,,flip,,,,,,,recallproc2
IS_JOL A,77,2,3,BlockProc2,Dine - ?,,16,,,,,,,eat,,,,,,,recallproc2
IS_JOL A,77,2,3,BlockProc2,Cherry - ?,,9,,,,,,,red,,,,,,,recallproc2
IS_JOL A,77,2,3,BlockProc2,Honest - ?,,38,,,,,,,trustworthy,,,,,,,recallproc2
IS_JOL A,77,2,3,BlockProc2,Best - ?,,30,,,,,,,favorite,,,,,,,recallproc2
IS_JOL A,77,2,3,BlockProc2,Truth - ?,,53,,,,,,,lie,,,,,,,recallproc2
IS_JOL A,77,2,3,BlockProc2,Cactus - ?,,3,,,,,,,plant,,,,,,,recallproc2
IS_JOL A,77,2,3,BlockProc2,Fish - ?,,35,,,,,,,sardin,,,,,,,recallproc2
IS_JOL A,77,2,3,BlockProc2,Thread - ?,,26,,,,,,,needle,,,,,,,recallproc2
IS_JOL A,77,2,3,BlockProc2,Mule - ?,,13,,,,,,,moose,,,,,,,recallproc2
IS_JOL A,77,2,3,BlockProc2,Safety - ?,,52,,,,,,,safe,,,,,,,recallproc2
IS_JOL A,77,2,3,BlockProc2,Glass - ?,,32,,,,,,,breakable,,,,,,,recallproc2
IS_JOL A,77,2,3,BlockProc2,Name - ?,,72,,,,,,,tag,,,,,,,recallproc2
IS_JOL A,77,2,3,BlockProc2,Main - ?,,80,,,,,,,favorite,,,,,,,recallproc2
IS_JOL A,77,2,3,BlockProc2,Gone - ?,,47,,,,,,,away,,,,,,,recallproc2
IS_JOL A,77,2,3,BlockProc2,Tantrum - ?,,59,,,,,,,temper,,,,,,,recallproc2
IS_JOL A,77,2,3,BlockProc2,Maze - ?,,64,,,,,,,ague,,,,,,,recallproc2
IS_JOL A,77,2,3,BlockProc2,Even - ?,,27,,,,,,,revenge,,,,,,,recallproc2
IS_JOL A,77,2,3,BlockProc2,Fight - ?,,40,,,,,,,brawl,,,,,,,recallproc2
IS_JOL A,77,2,3,BlockProc2,Clue - ?,,2,,,,,,,detective,,,,,,,recallproc2
IS_JOL A,77,2,3,BlockProc2,Money - ?,,37,,,,,,,banker,,,,,,,recallproc2
IS_JOL A,77,2,3,BlockProc2,Shoelace - ?,,4,,,,,,,tie,,,,,,,recallproc2
IS_JOL A,77,2,3,BlockProc2,Own - ?,,58,,,,,,,have,,,,,,,recallproc2
IS_JOL A,77,2,3,BlockProc2,Sleep - ?,,39,,,,,,,nap,,,,,,,recallproc2
IS_JOL A,77,2,3,BlockProc2,Extension - ?,,1,,,,,,,long,,,,,,,recallproc2
IS_JOL A,77,2,3,BlockProc2,Dead - ?,,33,,,,,,,coffin,,,,,,,recallproc2
IS_JOL A,77,2,3,BlockProc2,Loud - ?,,57,,,,,,,noisy,,,,,,,recallproc2
IS_JOL A,77,2,3,BlockProc2,Chop - ?,,12,,,,,,,cut,,,,,,,recallproc2
IS_JOL A,77,2,3,BlockProc2,Moat - ?,,74,,,,,,,clean,,,,,,,recallproc2
IS_JOL A,77,2,3,BlockProc2,Scalp - ?,,10,,,,,,,head,,,,,,,recallproc2
IS_JOL A,77,2,3,BlockProc2,Fuzzy - ?,,73,,,,,,,dog,,,,,,,recallproc2
IS_JOL A,77,2,3,BlockProc2,Wrist - ?,,45,,,,,,,braclate,,,,,,,recallproc2
IS_JOL A,77,2,3,BlockProc2,Flea - ?,,56,,,,,,,tic,,,,,,,recallproc2
IS_JOL A,77,2,3,BlockProc2,Shell - ?,,68,,,,,,,fish,,,,,,,recallproc2
IS_JOL A,77,2,3,BlockProc2,Alone - ?,,50,,,,,,,lonly,,,,,,,recallproc2
IS_JOL A,77,2,3,BlockProc2,Plane - ?,,34,,,,,,,aircraft,,,,,,,recallproc2
IS_JOL A,77,2,3,BlockProc2,Star - ?,,25,,,,,,,actress,,,,,,,recallproc2
IS_JOL A,77,2,3,BlockProc2,Water - ?,,48,,,,,,,drink,,,,,,,recallproc2
IS_JOL A,77,2,3,BlockProc2,Furry - ?,,7,,,,,,,dog,,,,,,,recallproc2
IS_JOL A,77,2,3,BlockProc2,Candle - ?,,44,,,,,,,wax,,,,,,,recallproc2
IS_JOL A,77,2,3,BlockProc2,Adjourn - ?,,6,,,,,,,firm,,,,,,,recallproc2
IS_JOL A,77,2,3,BlockProc2,Cat - ?,,31,,,,,,,panther,,,,,,,recallproc2
IS_JOL A,77,2,3,BlockProc2,Incense - ?,,15,,,,,,,dog,,,,,,,recallproc2
IS_JOL A,77,2,3,BlockProc2,Phone - ?,,54,,,,,,,communication,,,,,,,recallproc2
IS_JOL A,77,2,3,BlockProc2,Driver - ?,,11,,,,,,,vehical,,,,,,,recallproc2
IS_JOL A,77,2,3,BlockProc2,Chill - ?,,19,,,,,,,cold,,,,,,,recallproc2
IS_JOL A,77,2,3,BlockProc2,Earth - ?,,49,,,,,,,ground,,,,,,,recallproc2
IS_JOL A,77,2,3,BlockProc2,Sun - ?,,60,,,,,,,temperture,,,,,,,recallproc2
IS_JOL A,77,2,3,BlockProc2,Loan - ?,,76,,,,,,,money,,,,,,,recallproc2
IS_JOL A,77,2,3,BlockProc2,Rod - ?,,55,,,,,,,pole,,,,,,,recallproc2
IS_JOL A,77,2,3,BlockProc2,Razor - ?,,41,,,,,,,shave,,,,,,,recallproc2
IS_JOL A,89,1,,BlockProc1,Chocolate-Bar,,7,,,,,,,,,,,,,,Practice1
IS_JOL A,89,1,,BlockProc1,Chime-Music,,8,,,,,,,,,,,,,,Practice1
IS_JOL A,89,1,,BlockProc1,Hinge-Swing,,5,,,,,,,,,,,,,,Practice1
IS_JOL A,89,1,,BlockProc1,Ham-Bone,,3,,,,,,,,,,,,,,Practice1
IS_JOL A,89,1,,BlockProc1,Aardvark-Zoo,,1,,,,,,,,,,,,,,Practice1
IS_JOL A,89,1,,BlockProc1,Paddle-Row,,4,,,,,,,,,,,,,,Practice1
IS_JOL A,89,1,,BlockProc1,Behavior-Social,,9,,,,,,,,,,,,,,Practice1
IS_JOL A,89,1,,BlockProc1,Disbelieve-Skeptic,,6,,,,,,,,,,,,,,Practice1
IS_JOL A,89,1,,BlockProc1,Fashion-Model,,10,,,,,,,,,,,,,,Practice1
IS_JOL A,89,1,,BlockProc1,Deaf-Mute,,2,,,,,,,,,,,,,,Practice1
IS_JOL A,89,1,3,BlockProc1,Curtain - Drapes,,2,,,,,,,,,,,,,,StudyProc1
IS_JOL A,89,1,3,BlockProc1,Shrimp - Fish,,4,,,,,,,,,,,,,,StudyProc1
IS_JOL A,89,1,3,BlockProc1,Haircut-Scissors,,1,,,,,,,,,,,,,,StudyProc1
IS_JOL A,89,1,3,BlockProc1,Member - Group,,5,,,,,,,,,,,,,,StudyProc1
IS_JOL A,89,1,3,BlockProc1,Snow - Ice,,3,,,,,,,,,,,,,,StudyProc1
IS_JOL A,89,1,3,BlockProc1,Allow - Tuck,U,73,20,16835,,,,,,,,,,,,StudyProc3
IS_JOL A,89,1,3,BlockProc1,Art - Lion,U,74,20,23697,,,,,,,,,,,,StudyProc3
IS_JOL A,89,1,3,BlockProc1,Grill - Bar,S,47,90,8429,,,,,,,,,,,,StudyProc3
IS_JOL A,89,1,3,BlockProc1,Cash - Would,U,78,10,19187,,,,,,,,,,,,StudyProc3
IS_JOL A,89,1,3,BlockProc1,Artery - Bronze,U,69,20,13232,,,,,,,,,,,,StudyProc3
IS_JOL A,89,1,3,BlockProc1,Discover - Floor,U,66,20,23337,,,,,,,,,,,,StudyProc3
IS_JOL A,89,1,3,BlockProc1,Kidney - Liver,S,48,100,10564,,,,,,,,,,,,StudyProc3
IS_JOL A,89,1,3,BlockProc1,Machine - Position,U,71,50,12322,,,,,,,,,,,,StudyProc3
IS_JOL A,89,1,3,BlockProc1,Lift - Woman,U,64,20,13665,,,,,,,,,,,,StudyProc3
IS_JOL A,89,1,3,BlockProc1,Pusher - Clutter,U,61,0,30624,,,,,,,,,,,,StudyProc3
IS_JOL A,89,1,3,BlockProc1,Baby - Child,S,59,100,7992,,,,,,,,,,,,StudyProc3
IS_JOL A,89,1,3,BlockProc1,Park - Hungry,U,63,50,9496,,,,,,,,,,,,StudyProc3
IS_JOL A,89,1,3,BlockProc1,Shoe - Foot,S,55,90,13897,,,,,,,,,,,,StudyProc3
IS_JOL A,89,1,3,BlockProc1,Soon - Belt,U,65,10,17464,,,,,,,,,,,,StudyProc3
IS_JOL A,89,1,3,BlockProc1,Dump - Waste,S,44,50,23467,,,,,,,,,,,,StudyProc3
IS_JOL A,89,1,3,BlockProc1,Begin - End,S,49,100,5513,,,,,,,,,,,,StudyProc3
IS_JOL A,89,1,3,BlockProc1,Sugar - Riddle,U,76,20,24542,,,,,,,,,,,,StudyProc3
IS_JOL A,89,1,3,BlockProc1,Due - Assignment,S,41,80,11216,,,,,,,,,,,,StudyProc3
IS_JOL A,89,1,3,BlockProc1,Past - Future,S,56,100,12395,,,,,,,,,,,,StudyProc3
IS_JOL A,89,1,3,BlockProc1,Debate - Sight,U,68,50,10871,,,,,,,,,,,,StudyProc3
IS_JOL A,89,1,3,BlockProc1,Fix - Hand,U,70,40,15129,,,,,,,,,,,,StudyProc3
IS_JOL A,89,1,3,BlockProc1,Strong - Accident,U,75,10,16172,,,,,,,,,,,,StudyProc3
IS_JOL A,89,1,3,BlockProc1,Blow - Wind,S,50,90,11228,,,,,,,,,,,,StudyProc3
IS_JOL A,89,1,3,BlockProc1,Number - Amount,S,42,100,8631,,,,,,,,,,,,StudyProc3
IS_JOL A,89,1,3,BlockProc1,Pop - Soda,S,51,95,9661,,,,,,,,,,,,StudyProc3
IS_JOL A,89,1,3,BlockProc1,Valley - Add,U,77,5,19488,,,,,,,,,,,,StudyProc3
IS_JOL A,89,1,3,BlockProc1,Circle - Round,S,60,90,28816,,,,,,,,,,,,StudyProc3
IS_JOL A,89,1,3,BlockProc1,Choice - Decision,S,57,95,19235,,,,,,,,,,,,StudyProc3
IS_JOL A,89,1,3,BlockProc1,Death - Business,U,67,50,10670,,,,,,,,,,,,StudyProc3
IS_JOL A,89,1,3,BlockProc1,Location - Site,S,43,50,16424,,,,,,,,,,,,StudyProc3
IS_JOL A,89,1,3,BlockProc1,Bathroom - Toilet,S,53,90,8534,,,,,,,,,,,,StudyProc3
IS_JOL A,89,1,3,BlockProc1,King - Vase,U,80,50,13232,,,,,,,,,,,,StudyProc3
IS_JOL A,89,1,3,BlockProc1,Architecture - Design,S,46,60,22289,,,,,,,,,,,,StudyProc3
IS_JOL A,89,1,3,BlockProc1,Hide - Sick,U,79,40,13535,,,,,,,,,,,,StudyProc3
IS_JOL A,89,1,3,BlockProc1,Trial - Jury,S,45,80,25275,,,,,,,,,,,,StudyProc3
IS_JOL A,89,1,3,BlockProc1,Lettuce - Salad,S,54,80,16392,,,,,,,,,,,,StudyProc3
IS_JOL A,89,1,3,BlockProc1,Happy - Car,U,72,50,14175,,,,,,,,,,,,StudyProc3
IS_JOL A,89,1,3,BlockProc1,Wine - Cheese,S,52,80,6570,,,,,,,,,,,,StudyProc3
IS_JOL A,89,1,3,BlockProc1,Dietary - Sacking,U,62,30,15556,,,,,,,,,,,,StudyProc3
IS_JOL A,89,1,3,BlockProc1,Honey - Bee,S,58,90,11774,,,,,,,,,,,,StudyProc3
IS_JOL A,89,1,3,BlockProc1,Clothes - Attire,B,38,,,,,,,,,,90,22613,,,StudyProc7
IS_JOL A,89,1,3,BlockProc1,Hunger - Famine,B,35,,,,,,,,,,10,13358,,,StudyProc7
IS_JOL A,89,1,3,BlockProc1,Delinquent - Bad,F,1,,,,,,,,,,10,15626,,,StudyProc7
IS_JOL A,89,1,3,BlockProc1,Swan - Bird,F,9,,,,,,,,,,40,12009,,,StudyProc7
IS_JOL A,89,1,3,BlockProc1,Root - Plant,F,8,,,,,,,,,,80,26340,,,StudyProc7
IS_JOL A,89,1,3,BlockProc1,Hornet - Sting,F,6,,,,,,,,,,50,9869,,,StudyProc7
IS_JOL A,89,1,3,BlockProc1,Fire - Blaze,B,40,,,,,,,,,,80,16104,,,StudyProc7
IS_JOL A,89,1,3,BlockProc1,Take - Seize,B,24,,,,,,,,,,30,8883,,,StudyProc7
IS_JOL A,89,1,3,BlockProc1,Smell - Stench,B,37,,,,,,,,,,30,19574,,,StudyProc7
IS_JOL A,89,1,3,BlockProc1,Way - Out,F,11,,,,,,,,,,70,11675,,,StudyProc7
IS_JOL A,89,1,3,BlockProc1,Digestion - Stomach,F,2,,,,,,,,,,90,11876,,,StudyProc7
IS_JOL A,89,1,3,BlockProc1,Hot - Chili,B,32,,,,,,,,,,90,10781,,,StudyProc7
IS_JOL A,89,1,3,BlockProc1,Law - Attorney,B,29,,,,,,,,,,90,8938,,,StudyProc7
IS_JOL A,89,1,3,BlockProc1,Bitter - Cold,F,7,,,,,,,,,,50,7691,,,StudyProc7
IS_JOL A,89,1,3,BlockProc1,Tuna - Fish,F,20,,,,,,,,,,90,18943,,,StudyProc7
IS_JOL A,89,1,3,BlockProc1,Hygiene - Clean,F,12,,,,,,,,,,90,8198,,,StudyProc7
IS_JOL A,89,1,3,BlockProc1,Plane - Pilot,B,39,,,,,,,,,,90,14886,,,StudyProc7
IS_JOL A,89,1,3,BlockProc1,Math - Division,B,28,,,,,,,,,,90,10563,,,StudyProc7
IS_JOL A,89,1,3,BlockProc1,Chisel - Hammer,F,4,,,,,,,,,,10,40073,,,StudyProc7
IS_JOL A,89,1,3,BlockProc1,Herd - Cow,F,17,,,,,,,,,,30,10591,,,StudyProc7
IS_JOL A,89,1,3,BlockProc1,Editor - News,F,5,,,,,,,,,,70,8636,,,StudyProc7
IS_JOL A,89,1,3,BlockProc1,Paw - Dog,F,10,,,,,,,,,,80,19378,,,StudyProc7
IS_JOL A,89,1,3,BlockProc1,Bug - Wasp,B,27,,,,,,,,,,80,8775,,,StudyProc7
IS_JOL A,89,1,3,BlockProc1,Credit - Card,F,18,,,,,,,,,,100,12975,,,StudyProc7
IS_JOL A,89,1,3,BlockProc1,Sleep - Drowsy,B,36,,,,,,,,,,90,13930,,,StudyProc7
IS_JOL A,89,1,3,BlockProc1,Work - Chore,B,34,,,,,,,,,,85,15471,,,StudyProc7
IS_JOL A,89,1,3,BlockProc1,Key - Latch,B,31,,,,,,,,,,70,17812,,,StudyProc7
IS_JOL A,89,1,3,BlockProc1,Height - Growth,B,25,,,,,,,,,,70,18242,,,StudyProc7
IS_JOL A,89,1,3,BlockProc1,Dark - Cave,B,23,,,,,,,,,,50,16622,,,StudyProc7
IS_JOL A,89,1,3,BlockProc1,Bridge - Water,F,13,,,,,,,,,,80,10532,,,StudyProc7
IS_JOL A,89,1,3,BlockProc1,Drink - Sip,B,22,,,,,,,,,,50,19627,,,StudyProc7
IS_JOL A,89,1,3,BlockProc1,Full - Enough,B,21,,,,,,,,,,40,11782,,,StudyProc7
IS_JOL A,89,1,3,BlockProc1,Geology - Rock,F,14,,,,,,,,,,10,12986,,,StudyProc7
IS_JOL A,89,1,3,BlockProc1,Ball - Racket,B,33,,,,,,,,,,20,11933,,,StudyProc7
IS_JOL A,89,1,3,BlockProc1,Sentence - Word,B,26,,,,,,,,,,95,9867,,,StudyProc7
IS_JOL A,89,1,3,BlockProc1,Revolution - War,F,15,,,,,,,,,,90,9062,,,StudyProc7
IS_JOL A,89,1,3,BlockProc1,Wage - Money,F,3,,,,,,,,,,80,7578,,,StudyProc7
IS_JOL A,89,1,3,BlockProc1,Great - Fantastic,B,30,,,,,,,,,,100,27922,,,StudyProc7
IS_JOL A,89,1,3,BlockProc1,Orchid - Flower,F,19,,,,,,,,,,50,12306,,,StudyProc7
IS_JOL A,89,1,3,BlockProc1,Discussion - Talk,F,16,,,,,,,,,,90,7881,,,StudyProc7
IS_JOL A,89,1,3,BlockProc1,Trees - Green,,5,,,,,,,,,,,,,,StudyProc2
IS_JOL A,89,1,3,BlockProc1,Friendliness - Nice,,3,,,,,,,,,,,,,,StudyProc2
IS_JOL A,89,1,3,BlockProc1,Grab - Take,,2,,,,,,,,,,,,,,StudyProc2
IS_JOL A,89,1,3,BlockProc1,Geese - Goose,,1,,,,,,,,,,,,,,StudyProc2
IS_JOL A,89,1,3,BlockProc1,Catcher - Baseball,,4,,,,,,,,,,,,,,StudyProc2
IS_JOL A,89,1,3,BlockProc1,Great - ?,,30,,,,,fantastic,10552,,,,,,,,recallproc1
IS_JOL A,89,1,3,BlockProc1,Plane - ?,,39,,,,,piliot,3559,,,,,,,,recallproc1
IS_JOL A,89,1,3,BlockProc1,Key - ?,,31,,,,,latch,5628,,,,,,,,recallproc1
IS_JOL A,89,1,3,BlockProc1,Delinquent - ?,,1,,,,,herd,29589,,,,,,,,recallproc1
IS_JOL A,89,1,3,BlockProc1,Past - ?,,56,,,,,future,3440,,,,,,,,recallproc1
IS_JOL A,89,1,3,BlockProc1,Grill - ?,,47,,,,,bar,2938,,,,,,,,recallproc1
IS_JOL A,89,1,3,BlockProc1,Paw - ?,,10,,,,,hand,4312,,,,,,,,recallproc1
IS_JOL A,89,1,3,BlockProc1,Hide - ?,,79,,,,,site,7094,,,,,,,,recallproc1
IS_JOL A,89,1,3,BlockProc1,Smell - ?,,37,,,,,nose,11987,,,,,,,,recallproc1
IS_JOL A,89,1,3,BlockProc1,Bug - ?,,27,,,,,fly,6919,,,,,,,,recallproc1
IS_JOL A,89,1,3,BlockProc1,Drink - ?,,22,,,,,beverage,21314,,,,,,,,recallproc1
IS_JOL A,89,1,3,BlockProc1,Lettuce - ?,,54,,,,,salad,2984,,,,,,,,recallproc1
IS_JOL A,89,1,3,BlockProc1,Swan - ?,,9,,,,,bird,4813,,,,,,,,recallproc1
IS_JOL A,89,1,3,BlockProc1,Allow - ?,,73,,,,,choose,10143,,,,,,,,recallproc1
IS_JOL A,89,1,3,BlockProc1,Death - ?,,67,,,,,sight,11863,,,,,,,,recallproc1
IS_JOL A,89,1,3,BlockProc1,Pusher - ?,,61,,,,,cart,15824,,,,,,,,recallproc1
IS_JOL A,89,1,3,BlockProc1,Begin - ?,,49,,,,,end,2127,,,,,,,,recallproc1
IS_JOL A,89,1,3,BlockProc1,Location - ?,,43,,,,,vslley,6839,,,,,,,,recallproc1
IS_JOL A,89,1,3,BlockProc1,Revolution - ?,,15,,,,,war,3734,,,,,,,,recallproc1
IS_JOL A,89,1,3,BlockProc1,Geology - ?,,14,,,,,science,10044,,,,,,,,recallproc1
IS_JOL A,89,1,3,BlockProc1,Sugar - ?,,76,,,,,hand,12951,,,,,,,,recallproc1
IS_JOL A,89,1,3,BlockProc1,Full - ?,,21,,,,,complete,8420,,,,,,,,recallproc1
IS_JOL A,89,1,3,BlockProc1,Sentence - ?,,26,,,,,word,6594,,,,,,,,recallproc1
IS_JOL A,89,1,3,BlockProc1,Clothes - ?,,38,,,,,wardrobe,16259,,,,,,,,recallproc1
IS_JOL A,89,1,3,BlockProc1,Circle - ?,,60,,,,,round,3072,,,,,,,,recallproc1
IS_JOL A,89,1,3,BlockProc1,Honey - ?,,58,,,,,bee,3425,,,,,,,,recallproc1
IS_JOL A,89,1,3,BlockProc1,Lift - ?,,64,,,,,carry,9139,,,,,,,,recallproc1
IS_JOL A,89,1,3,BlockProc1,Hot - ?,,32,,,,,cold,4596,,,,,,,,recallproc1
IS_JOL A,89,1,3,BlockProc1,Hunger - ?,,35,,,,,eat,11607,,,,,,,,recallproc1
IS_JOL A,89,1,3,BlockProc1,Law - ?,,29,,,,,attorny,4122,,,,,,,,recallproc1
IS_JOL A,89,1,3,BlockProc1,Fire - ?,,40,,,,,blaze,4256,,,,,,,,recallproc1
IS_JOL A,89,1,3,BlockProc1,Happy - ?,,72,,,,,smile,5025,,,,,,,,recallproc1
IS_JOL A,89,1,3,BlockProc1,Shoe - ?,,55,,,,,foot,9442,,,,,,,,recallproc1
IS_JOL A,89,1,3,BlockProc1,Number - ?,,42,,,,,one,27110,,,,,,,,recallproc1
IS_JOL A,89,1,3,BlockProc1,Orchid - ?,,19,,,,,flower,5927,,,,,,,,recallproc1
IS_JOL A,89,1,3,BlockProc1,Valley - ?,,77,,,,,direction,6451,,,,,,,,recallproc1
IS_JOL A,89,1,3,BlockProc1,Kidney - ?,,48,,,,,liver,3730,,,,,,,,recallproc1
IS_JOL A,89,1,3,BlockProc1,Strong - ?,,75,,,,,muscle,4760,,,,,,,,recallproc1
IS_JOL A,89,1,3,BlockProc1,Choice - ?,,57,,,,,decision,8452,,,,,,,,recallproc1
IS_JOL A,89,1,3,BlockProc1,Discover - ?,,66,,,,,see,9937,,,,,,,,recallproc1
IS_JOL A,89,1,3,BlockProc1,Way - ?,,11,,,,,out,2881,,,,,,,,recallproc1
IS_JOL A,89,1,3,BlockProc1,Bridge - ?,,13,,,,,water,3706,,,,,,,,recallproc1
IS_JOL A,89,1,3,BlockProc1,Fix - ?,,70,,,,,tool,8993,,,,,,,,recallproc1
IS_JOL A,89,1,3,BlockProc1,Blow - ?,,50,,,,,wind,9144,,,,,,,,recallproc1
IS_JOL A,89,1,3,BlockProc1,Wage - ?,,3,,,,,money,3472,,,,,,,,recallproc1
IS_JOL A,89,1,3,BlockProc1,Discussion - ?,,16,,,,,choice,12744,,,,,,,,recallproc1
IS_JOL A,89,1,3,BlockProc1,Tuna - ?,,20,,,,,fish,3157,,,,,,,,recallproc1
IS_JOL A,89,1,3,BlockProc1,Hygiene - ?,,12,,,,,smell,4483,,,,,,,,recallproc1
IS_JOL A,89,1,3,BlockProc1,Root - ?,,8,,,,,plant,4578,,,,,,,,recallproc1
IS_JOL A,89,1,3,BlockProc1,Work - ?,,34,,,,,allowance,11878,,,,,,,,recallproc1
IS_JOL A,89,1,3,BlockProc1,Dietary - ?,,62,,,,,sacking,9647,,,,,,,,recallproc1
IS_JOL A,89,1,3,BlockProc1,Editor - ?,,5,,,,,film,18074,,,,,,,,recallproc1
IS_JOL A,89,1,3,BlockProc1,Bitter - ?,,7,,,,,sugar,14621,,,,,,,,recallproc1
IS_JOL A,89,1,3,BlockProc1,Herd - ?,,17,,,,,group,5557,,,,,,,,recallproc1
IS_JOL A,89,1,3,BlockProc1,Cash - ?,,78,,,,,money,3728,,,,,,,,recallproc1
IS_JOL A,89,1,3,BlockProc1,Baby - ?,,59,,,,,cry,6486,,,,,,,,recallproc1
IS_JOL A,89,1,3,BlockProc1,Take - ?,,24,,,,,money,13156,,,,,,,,recallproc1
IS_JOL A,89,1,3,BlockProc1,Credit - ?,,18,,,,,card,3224,,,,,,,,recallproc1
IS_JOL A,89,1,3,BlockProc1,Soon - ?,,65,,,,,before,4947,,,,,,,,recallproc1
IS_JOL A,89,1,3,BlockProc1,Hornet - ?,,6,,,,,car,14031,,,,,,,,recallproc1
IS_JOL A,89,1,3,BlockProc1,Debate - ?,,68,,,,,discussion,7495,,,,,,,,recallproc1
IS_JOL A,89,1,3,BlockProc1,Machine - ?,,71,,,,,position,4603,,,,,,,,recallproc1
IS_JOL A,89,1,3,BlockProc1,Artery - ?,,69,,,,,lion,9910,,,,,,,,recallproc1
IS_JOL A,89,1,3,BlockProc1,King - ?,,80,,,,,crown,8207,,,,,,,,recallproc1
IS_JOL A,89,1,3,BlockProc1,Art - ?,,74,,,,,zoo,8350,,,,,,,,recallproc1
IS_JOL A,89,1,3,BlockProc1,Sleep - ?,,36,,,,,awake,22039,,,,,,,,recallproc1
IS_JOL A,89,1,3,BlockProc1,Wine - ?,,52,,,,,cheese,3823,,,,,,,,recallproc1
IS_JOL A,89,1,3,BlockProc1,Dump - ?,,44,,,,,spill,9065,,,,,,,,recallproc1
IS_JOL A,89,1,3,BlockProc1,Park - ?,,63,,,,,swing,9621,,,,,,,,recallproc1
IS_JOL A,89,1,3,BlockProc1,Due - ?,,41,,,,,assignment,4058,,,,,,,,recallproc1
IS_JOL A,89,1,3,BlockProc1,Ball - ?,,33,,,,,pitcher,8234,,,,,,,,recallproc1
IS_JOL A,89,1,3,BlockProc1,Dark - ?,,23,,,,,owl,8128,,,,,,,,recallproc1
IS_JOL A,89,1,3,BlockProc1,Chisel - ?,,4,,,,,hammer,6554,,,,,,,,recallproc1
IS_JOL A,89,1,3,BlockProc1,Height - ?,,25,,,,,weight,6933,,,,,,,,recallproc1
IS_JOL A,89,1,3,BlockProc1,Pop - ?,,51,,,,,soda,3040,,,,,,,,recallproc1
IS_JOL A,89,1,3,BlockProc1,Trial - ?,,45,,,,,jury,3018,,,,,,,,recallproc1
IS_JOL A,89,1,3,BlockProc1,Digestion - ?,,2,,,,,stomach,4798,,,,,,,,recallproc1
IS_JOL A,89,1,3,BlockProc1,Architecture - ?,,46,,,,,biuld,9840,,,,,,,,recallproc1
IS_JOL A,89,1,3,BlockProc1,Math - ?,,28,,,,,calculator,9109,,,,,,,,recallproc1
IS_JOL A,89,1,3,BlockProc1,Bathroom - ?,,53,,,,,toilet,3551,,,,,,,,recallproc1
IS_JOL A,89,2,3,BlockProc2,Hide - Scare,,2,,,,,,,,,,,,,,StudyProc4
IS_JOL A,89,2,3,BlockProc2,Disintegrate - Disappear,,3,,,,,,,,,,,,,,StudyProc4
IS_JOL A,89,2,3,BlockProc2,Essay - Write,,4,,,,,,,,,,,,,,StudyProc4
IS_JOL A,89,2,3,BlockProc2,Sheriff - Police,,1,,,,,,,,,,,,,,StudyProc4
IS_JOL A,89,2,3,BlockProc2,Malt - Chocolate,,5,,,,,,,,,,,,,,StudyProc4
IS_JOL A,89,2,3,BlockProc2,Mason - Jar,S,43,,,,,,,,,,,,100,6182,StudyProc8
IS_JOL A,89,2,3,BlockProc2,Element - Carbon,S,46,,,,,,,,,,,,90,9215,StudyProc8
IS_JOL A,89,2,3,BlockProc2,Vehicle - Charm,U,65,,,,,,,,,,,,10,5797,StudyProc8
IS_JOL A,89,2,3,BlockProc2,Cake - Clothes,U,71,,,,,,,,,,,,20,8350,StudyProc8
IS_JOL A,89,2,3,BlockProc2,Lease - Toil,U,75,,,,,,,,,,,,5,10023,StudyProc8
IS_JOL A,89,2,3,BlockProc2,Crackle - Able,U,67,,,,,,,,,,,,10,9772,StudyProc8
IS_JOL A,89,2,3,BlockProc2,Main - Scar,U,80,,,,,,,,,,,,20,8907,StudyProc8
IS_JOL A,89,2,3,BlockProc2,Razor - Shave,S,41,,,,,,,,,,,,90,8933,StudyProc8
IS_JOL A,89,2,3,BlockProc2,Loud - Noise,S,57,,,,,,,,,,,,90,9214,StudyProc8
IS_JOL A,89,2,3,BlockProc2,Both - Ounce,U,77,,,,,,,,,,,,20,8292,StudyProc8
IS_JOL A,89,2,3,BlockProc2,Stretch - Cloth,U,62,,,,,,,,,,,,20,9287,StudyProc8
IS_JOL A,89,2,3,BlockProc2,Sun - Tan,S,60,,,,,,,,,,,,90,4730,StudyProc8
IS_JOL A,89,2,3,BlockProc2,Truth - Lie,S,53,,,,,,,,,,,,90,4895,StudyProc8
IS_JOL A,89,2,3,BlockProc2,Meat - Obtain,U,66,,,,,,,,,,,,10,7630,StudyProc8
IS_JOL A,89,2,3,BlockProc2,Give - Steak,U,63,,,,,,,,,,,,20,10004,StudyProc8
IS_JOL A,89,2,3,BlockProc2,Temperature - Morning,U,78,,,,,,,,,,,,20,9065,StudyProc8
IS_JOL A,89,2,3,BlockProc2,Gone - Away,S,47,,,,,,,,,,,,40,12013,StudyProc8
IS_JOL A,89,2,3,BlockProc2,Fuzzy - Bang,U,73,,,,,,,,,,,,80,7880,StudyProc8
IS_JOL A,89,2,3,BlockProc2,Rod - Reel,S,55,,,,,,,,,,,,20,6372,StudyProc8
IS_JOL A,89,2,3,BlockProc2,Tantrum - Temper,S,59,,,,,,,,,,,,70,10918,StudyProc8
IS_JOL A,89,2,3,BlockProc2,Candle - Wax,S,44,,,,,,,,,,,,90,7670,StudyProc8
IS_JOL A,89,2,3,BlockProc2,Maze - Election,U,64,,,,,,,,,,,,20,7667,StudyProc8
IS_JOL A,89,2,3,BlockProc2,Name - Hate,U,72,,,,,,,,,,,,10,7200,StudyProc8
IS_JOL A,89,2,3,BlockProc2,Justice - Maroon,U,61,,,,,,,,,,,,20,6792,StudyProc8
IS_JOL A,89,2,3,BlockProc2,Flea - Tick,S,56,,,,,,,,,,,,90,9416,StudyProc8
IS_JOL A,89,2,3,BlockProc2,Alone - Lonely,S,50,,,,,,,,,,,,90,7006,StudyProc8
IS_JOL A,89,2,3,BlockProc2,Shell - Shake,U,68,,,,,,,,,,,,80,10390,StudyProc8
IS_JOL A,89,2,3,BlockProc2,Water - Drink,S,48,,,,,,,,,,,,90,5299,StudyProc8
IS_JOL A,89,2,3,BlockProc2,Keys - Joke,U,70,,,,,,,,,,,,10,22001,StudyProc8
IS_JOL A,89,2,3,BlockProc2,Rights - Equal,S,42,,,,,,,,,,,,70,8147,StudyProc8
IS_JOL A,89,2,3,BlockProc2,Phone - Communicatio,S,54,,,,,,,,,,,,90,9164,StudyProc8
IS_JOL A,89,2,3,BlockProc2,Own - Have,S,58,,,,,,,,,,,,80,9188,StudyProc8
IS_JOL A,89,2,3,BlockProc2,Moat - Clear,U,74,,,,,,,,,,,,0,18706,StudyProc8
IS_JOL A,89,2,3,BlockProc2,Wrist - Bracelet,S,45,,,,,,,,,,,,90,4531,StudyProc8
IS_JOL A,89,2,3,BlockProc2,Safety - Seatbelt,S,52,,,,,,,,,,,,90,6241,StudyProc8
IS_JOL A,89,2,3,BlockProc2,Earth - Ground,S,49,,,,,,,,,,,,90,5535,StudyProc8
IS_JOL A,89,2,3,BlockProc2,Listen - Fiction,U,69,,,,,,,,,,,,40,6332,StudyProc8
IS_JOL A,89,2,3,BlockProc2,Dry - Wet,S,51,,,,,,,,,,,,90,4456,StudyProc8
IS_JOL A,89,2,3,BlockProc2,Loan - Sign,U,76,,,,,,,,,,,,50,6600,StudyProc8
IS_JOL A,89,2,3,BlockProc2,Mirror - Children,U,79,,,,,,,,,,,,20,5448,StudyProc8
IS_JOL A,89,2,3,BlockProc2,Chop - Cut,F,12,,,70,21540,,,,,,,,,,StudyProc5
IS_JOL A,89,2,3,BlockProc2,Driver - Car,F,11,,,80,9369,,,,,,,,,,StudyProc5
IS_JOL A,89,2,3,BlockProc2,Document - Paper,F,14,,,70,9464,,,,,,,,,,StudyProc5
IS_JOL A,89,2,3,BlockProc2,Money - Banker,B,37,,,90,6387,,,,,,,,,,StudyProc5
IS_JOL A,89,2,3,BlockProc2,Mule - Donkey,F,13,,,80,12477,,,,,,,,,,StudyProc5
IS_JOL A,89,2,3,BlockProc2,Car - Windshield,B,22,,,80,8293,,,,,,,,,,StudyProc5
IS_JOL A,89,2,3,BlockProc2,Plane - Aircraft,B,34,,,90,5880,,,,,,,,,,StudyProc5
IS_JOL A,89,2,3,BlockProc2,Furry - Dog,F,7,,,90,8198,,,,,,,,,,StudyProc5
IS_JOL A,89,2,3,BlockProc2,Fruit - Strawberry,B,29,,,100,8277,,,,,,,,,,StudyProc5
IS_JOL A,89,2,3,BlockProc2,Fish - Sardine,B,35,,,90,6376,,,,,,,,,,StudyProc5
IS_JOL A,89,2,3,BlockProc2,Affection - Love,F,20,,,100,13498,,,,,,,,,,StudyProc5
IS_JOL A,89,2,3,BlockProc2,Baseball - League,B,36,,,95,8352,,,,,,,,,,StudyProc5
IS_JOL A,89,2,3,BlockProc2,Glass - Breakable,B,32,,,80,10897,,,,,,,,,,StudyProc5
IS_JOL A,89,2,3,BlockProc2,Incense - Smell,F,15,,,30,8473,,,,,,,,,,StudyProc5
IS_JOL A,89,2,3,BlockProc2,Honest - Truthful,B,38,,,90,10542,,,,,,,,,,StudyProc5
IS_JOL A,89,2,3,BlockProc2,Chill - Cold,F,19,,,90,11333,,,,,,,,,,StudyProc5
IS_JOL A,89,2,3,BlockProc2,Best - Favorite,B,30,,,100,7044,,,,,,,,,,StudyProc5
IS_JOL A,89,2,3,BlockProc2,Litter - Trash,F,8,,,95,8522,,,,,,,,,,StudyProc5
IS_JOL A,89,2,3,BlockProc2,Thread - Thimble,B,26,,,0,16628,,,,,,,,,,StudyProc5
IS_JOL A,89,2,3,BlockProc2,Adjourn - End,F,6,,,100,7138,,,,,,,,,,StudyProc5
IS_JOL A,89,2,3,BlockProc2,Bird - Penguin,B,24,,,50,7461,,,,,,,,,,StudyProc5
IS_JOL A,89,2,3,BlockProc2,Clue - Game,F,2,,,50,9410,,,,,,,,,,StudyProc5
IS_JOL A,89,2,3,BlockProc2,Dead - Coffin,B,33,,,100,8271,,,,,,,,,,StudyProc5
IS_JOL A,89,2,3,BlockProc2,Fight - Brawl,B,40,,,90,6532,,,,,,,,,,StudyProc5
IS_JOL A,89,2,3,BlockProc2,Turn - Flip,B,21,,,90,8575,,,,,,,,,,StudyProc5
IS_JOL A,89,2,3,BlockProc2,Cactus - Plant,F,3,,,90,7815,,,,,,,,,,StudyProc5
IS_JOL A,89,2,3,BlockProc2,Cherry - Red,F,9,,,100,6246,,,,,,,,,,StudyProc5
IS_JOL A,89,2,3,BlockProc2,Even - Revenge,B,27,,,30,11469,,,,,,,,,,StudyProc5
IS_JOL A,89,2,3,BlockProc2,Bad - Villain,B,23,,,90,5294,,,,,,,,,,StudyProc5
IS_JOL A,89,2,3,BlockProc2,Shears - Scissors,F,17,,,100,8396,,,,,,,,,,StudyProc5
IS_JOL A,89,2,3,BlockProc2,Dine - Eat,F,16,,,100,7027,,,,,,,,,,StudyProc5
IS_JOL A,89,2,3,BlockProc2,Pop - Balloon,B,28,,,100,5682,,,,,,,,,,StudyProc5
IS_JOL A,89,2,3,BlockProc2,Scalp - Head,F,10,,,100,6953,,,,,,,,,,StudyProc5
IS_JOL A,89,2,3,BlockProc2,Sleep - Nap,B,39,,,90,9355,,,,,,,,,,StudyProc5
IS_JOL A,89,2,3,BlockProc2,Extension - Long,F,1,,,100,6747,,,,,,,,,,StudyProc5
IS_JOL A,89,2,3,BlockProc2,Detective - Mystery,F,5,,,100,9846,,,,,,,,,,StudyProc5
IS_JOL A,89,2,3,BlockProc2,Shoelace - Tie,F,4,,,100,5665,,,,,,,,,,StudyProc5
IS_JOL A,89,2,3,BlockProc2,Feud - Fight,F,18,,,90,6792,,,,,,,,,,StudyProc5
IS_JOL A,89,2,3,BlockProc2,Cat - Panther,B,31,,,100,5705,,,,,,,,,,StudyProc5
IS_JOL A,89,2,3,BlockProc2,Star - Actress,B,25,,,100,5774,,,,,,,,,,StudyProc5
IS_JOL A,89,2,3,BlockProc2,Deaf - Hear,,3,,,,,,,,,,,,,,StudyProc6
IS_JOL A,89,2,3,BlockProc2,Contest - Competition,,5,,,,,,,,,,,,,,StudyProc6
IS_JOL A,89,2,3,BlockProc2,Magician - Magic,,4,,,,,,,,,,,,,,StudyProc6
IS_JOL A,89,2,3,BlockProc2,Mind - Matter,,2,,,,,,,,,,,,,,StudyProc6
IS_JOL A,89,2,3,BlockProc2,Deciet - Cheat,,1,,,,,,,,,,,,,,StudyProc6
IS_JOL A,89,2,3,BlockProc2,Rod - ?,,55,,,,,,,round,,,,,,,recallproc2
IS_JOL A,89,2,3,BlockProc2,Mason - ?,,43,,,,,,,jar,,,,,,,recallproc2
IS_JOL A,89,2,3,BlockProc2,Temperature - ?,,78,,,,,,,sun,,,,,,,recallproc2
IS_JOL A,89,2,3,BlockProc2,Loan - ?,,76,,,,,,,banker,,,,,,,recallproc2
IS_JOL A,89,2,3,BlockProc2,Fish - ?,,35,,,,,,,sardine,,,,,,,recallproc2
IS_JOL A,89,2,3,BlockProc2,Adjourn - ?,,6,,,,,,,end,,,,,,,recallproc2
IS_JOL A,89,2,3,BlockProc2,Shoelace - ?,,4,,,,,,,tie,,,,,,,recallproc2
IS_JOL A,89,2,3,BlockProc2,Money - ?,,37,,,,,,,allowane,,,,,,,recallproc2
IS_JOL A,89,2,3,BlockProc2,Both - ?,,77,,,,,,,same,,,,,,,recallproc2
IS_JOL A,89,2,3,BlockProc2,Earth - ?,,49,,,,,,,matter,,,,,,,recallproc2
IS_JOL A,89,2,3,BlockProc2,Maze - ?,,64,,,,,,,direction,,,,,,,recallproc2
IS_JOL A,89,2,3,BlockProc2,Mirror - ?,,79,,,,,,,image,,,,,,,recallproc2
IS_JOL A,89,2,3,BlockProc2,Name - ?,,72,,,,,,,person,,,,,,,recallproc2
IS_JOL A,89,2,3,BlockProc2,Loud - ?,,57,,,,,,,hear,,,,,,,recallproc2
IS_JOL A,89,2,3,BlockProc2,Cake - ?,,71,,,,,,,eat,,,,,,,recallproc2
IS_JOL A,89,2,3,BlockProc2,Phone - ?,,54,,,,,,,cell,,,,,,,recallproc2
IS_JOL A,89,2,3,BlockProc2,Wrist - ?,,45,,,,,,,bracelet,,,,,,,recallproc2
IS_JOL A,89,2,3,BlockProc2,Car - ?,,22,,,,,,,windsheild,,,,,,,recallproc2
IS_JOL A,89,2,3,BlockProc2,Gone - ?,,47,,,,,,,away,,,,,,,recallproc2
IS_JOL A,89,2,3,BlockProc2,Element - ?,,46,,,,,,,carbon,,,,,,,recallproc2
IS_JOL A,89,2,3,BlockProc2,Rights - ?,,42,,,,,,,law,,,,,,,recallproc2
IS_JOL A,89,2,3,BlockProc2,Give - ?,,63,,,,,,,take,,,,,,,recallproc2
IS_JOL A,89,2,3,BlockProc2,Chop - ?,,12,,,,,,,cut,,,,,,,recallproc2
IS_JOL A,89,2,3,BlockProc2,Cherry - ?,,9,,,,,,,red,,,,,,,recallproc2
IS_JOL A,89,2,3,BlockProc2,Cat - ?,,31,,,,,,,fur,,,,,,,recallproc2
IS_JOL A,89,2,3,BlockProc2,Furry - ?,,7,,,,,,,dog,,,,,,,recallproc2
IS_JOL A,89,2,3,BlockProc2,Incense - ?,,15,,,,,,,scent,,,,,,,recallproc2
IS_JOL A,89,2,3,BlockProc2,Main - ?,,80,,,,,,,street,,,,,,,recallproc2
IS_JOL A,89,2,3,BlockProc2,Keys - ?,,70,,,,,,,latch,,,,,,,recallproc2
IS_JOL A,89,2,3,BlockProc2,Extension - ?,,1,,,,,,,long,,,,,,,recallproc2
IS_JOL A,89,2,3,BlockProc2,Honest - ?,,38,,,,,,,truthful,,,,,,,recallproc2
IS_JOL A,89,2,3,BlockProc2,Mule - ?,,13,,,,,,,donkey,,,,,,,recallproc2
IS_JOL A,89,2,3,BlockProc2,Crackle - ?,,67,,,,,,,crack,,,,,,,recallproc2
IS_JOL A,89,2,3,BlockProc2,Meat - ?,,66,,,,,,,raw,,,,,,,recallproc2
IS_JOL A,89,2,3,BlockProc2,Turn - ?,,21,,,,,,,flip,,,,,,,recallproc2
IS_JOL A,89,2,3,BlockProc2,Litter - ?,,8,,,,,,,dump,,,,,,,recallproc2
IS_JOL A,89,2,3,BlockProc2,Star - ?,,25,,,,,,,earth,,,,,,,recallproc2
IS_JOL A,89,2,3,BlockProc2,Fruit - ?,,29,,,,,,,strawberry,,,,,,,recallproc2
IS_JOL A,89,2,3,BlockProc2,Driver - ?,,11,,,,,,,car,,,,,,,recallproc2
IS_JOL A,89,2,3,BlockProc2,Dry - ?,,51,,,,,,,wet,,,,,,,recallproc2
IS_JOL A,89,2,3,BlockProc2,Clue - ?,,2,,,,,,,hint,,,,,,,recallproc2
IS_JOL A,89,2,3,BlockProc2,Vehicle - ?,,65,,,,,,,transportation,,,,,,,recallproc2
IS_JOL A,89,2,3,BlockProc2,Detective - ?,,5,,,,,,,spy,,,,,,,recallproc2
IS_JOL A,89,2,3,BlockProc2,Plane - ?,,34,,,,,,,piolot,,,,,,,recallproc2
IS_JOL A,89,2,3,BlockProc2,Glass - ?,,32,,,,,,,breakable,,,,,,,recallproc2
IS_JOL A,89,2,3,BlockProc2,Listen - ?,,69,,,,,,,speak,,,,,,,recallproc2
IS_JOL A,89,2,3,BlockProc2,Justice - ?,,61,,,,,,,evidence,,,,,,,recallproc2
IS_JOL A,89,2,3,BlockProc2,Razor - ?,,41,,,,,,,cut,,,,,,,recallproc2
IS_JOL A,89,2,3,BlockProc2,Fight - ?,,40,,,,,,,brawl,,,,,,,recallproc2
IS_JOL A,89,2,3,BlockProc2,Candle - ?,,44,,,,,,,light,,,,,,,recallproc2
IS_JOL A,89,2,3,BlockProc2,Safety - ?,,52,,,,,,,tips,,,,,,,recallproc2
IS_JOL A,89,2,3,BlockProc2,Flea - ?,,56,,,,,,,town,,,,,,,recallproc2
IS_JOL A,89,2,3,BlockProc2,Tantrum - ?,,59,,,,,,,fit,,,,,,,recallproc2
IS_JOL A,89,2,3,BlockProc2,Dine - ?,,16,,,,,,,eat,,,,,,,recallproc2
IS_JOL A,89,2,3,BlockProc2,Feud - ?,,18,,,,,,,game,,,,,,,recallproc2
IS_JOL A,89,2,3,BlockProc2,Dead - ?,,33,,,,,,,coffin,,,,,,,recallproc2
IS_JOL A,89,2,3,BlockProc2,Stretch - ?,,62,,,,,,,jog,,,,,,,recallproc2
IS_JOL A,89,2,3,BlockProc2,Thread - ?,,26,,,,,,,needle,,,,,,,recallproc2
IS_JOL A,89,2,3,BlockProc2,Even - ?,,27,,,,,,,math,,,,,,,recallproc2
IS_JOL A,89,2,3,BlockProc2,Sun - ?,,60,,,,,,,stars,,,,,,,recallproc2
IS_JOL A,89,2,3,BlockProc2,Best - ?,,30,,,,,,,feature,,,,,,,recallproc2
IS_JOL A,89,2,3,BlockProc2,Document - ?,,14,,,,,,,file,,,,,,,recallproc2
IS_JOL A,89,2,3,BlockProc2,Scalp - ?,,10,,,,,,,hair,,,,,,,recallproc2
IS_JOL A,89,2,3,BlockProc2,Sleep - ?,,39,,,,,,,awake,,,,,,,recallproc2
IS_JOL A,89,2,3,BlockProc2,Lease - ?,,75,,,,,,,own,,,,,,,recallproc2
IS_JOL A,89,2,3,BlockProc2,Bird - ?,,24,,,,,,,pengiun,,,,,,,recallproc2
IS_JOL A,89,2,3,BlockProc2,Own - ?,,58,,,,,,,car,,,,,,,recallproc2
IS_JOL A,89,2,3,BlockProc2,Alone - ?,,50,,,,,,,without,,,,,,,recallproc2
IS_JOL A,89,2,3,BlockProc2,Moat - ?,,74,,,,,,,chocolate,,,,,,,recallproc2
IS_JOL A,89,2,3,BlockProc2,Baseball - ?,,36,,,,,,,picther,,,,,,,recallproc2
IS_JOL A,89,2,3,BlockProc2,Affection - ?,,20,,,,,,,love,,,,,,,recallproc2
IS_JOL A,89,2,3,BlockProc2,Chill - ?,,19,,,,,,,hot,,,,,,,recallproc2
IS_JOL A,89,2,3,BlockProc2,Fuzzy - ?,,73,,,,,,,cat,,,,,,,recallproc2
IS_JOL A,89,2,3,BlockProc2,Truth - ?,,53,,,,,,,honest,,,,,,,recallproc2
IS_JOL A,89,2,3,BlockProc2,Shears - ?,,17,,,,,,,scissors,,,,,,,recallproc2
IS_JOL A,89,2,3,BlockProc2,Shell - ?,,68,,,,,,,bird,,,,,,,recallproc2
IS_JOL A,89,2,3,BlockProc2,Bad - ?,,23,,,,,,,good,,,,,,,recallproc2
IS_JOL A,89,2,3,BlockProc2,Water - ?,,48,,,,,,,wet,,,,,,,recallproc2
IS_JOL A,89,2,3,BlockProc2,Cactus - ?,,3,,,,,,,plant,,,,,,,recallproc2
IS_JOL A,89,2,3,BlockProc2,Pop - ?,,28,,,,,,,soda,,,,,,,recallproc2
IS_JOL B,66,1,,BlockProc1,Deaf-Mute,,2,,,,,,,,,,,,,,Practice1
IS_JOL B,66,1,,BlockProc1,Fashion-Model,,10,,,,,,,,,,,,,,Practice1
IS_JOL B,66,1,,BlockProc1,Hinge-Swing,,5,,,,,,,,,,,,,,Practice1
IS_JOL B,66,1,,BlockProc1,Paddle-Row,,4,,,,,,,,,,,,,,Practice1
IS_JOL B,66,1,,BlockProc1,Aardvark-Zoo,,1,,,,,,,,,,,,,,Practice1
IS_JOL B,66,1,,BlockProc1,Chime-Music,,8,,,,,,,,,,,,,,Practice1
IS_JOL B,66,1,,BlockProc1,Disbelieve-Skeptic,,6,,,,,,,,,,,,,,Practice1
IS_JOL B,66,1,,BlockProc1,Ham-Bone,,3,,,,,,,,,,,,,,Practice1
IS_JOL B,66,1,,BlockProc1,Chocolate-Bar,,7,,,,,,,,,,,,,,Practice1
IS_JOL B,66,1,,BlockProc1,Behavior-Social,,9,,,,,,,,,,,,,,Practice1
IS_JOL B,66,1,3,BlockProc1,Snow - Ice,,3,,,,,,,,,,,,,,StudyProc1
IS_JOL B,66,1,3,BlockProc1,Haircut-Scissors,,1,,,,,,,,,,,,,,StudyProc1
IS_JOL B,66,1,3,BlockProc1,Curtain - Drapes,,2,,,,,,,,,,,,,,StudyProc1
IS_JOL B,66,1,3,BlockProc1,Member - Group,,5,,,,,,,,,,,,,,StudyProc1
IS_JOL B,66,1,3,BlockProc1,Shrimp - Fish,,4,,,,,,,,,,,,,,StudyProc1
IS_JOL B,66,1,3,BlockProc1,Star - Actress,B,25,100,10032,,,,,,,,,,,,StudyProc3
IS_JOL B,66,1,3,BlockProc1,Mule - Donkey,F,13,40,11196,,,,,,,,,,,,StudyProc3
IS_JOL B,66,1,3,BlockProc1,Fruit - Strawberry,B,29,100,14256,,,,,,,,,,,,StudyProc3
IS_JOL B,66,1,3,BlockProc1,Furry - Dog,F,7,50,15071,,,,,,,,,,,,StudyProc3
IS_JOL B,66,1,3,BlockProc1,Chill - Cold,F,19,50,17493,,,,,,,,,,,,StudyProc3
IS_JOL B,66,1,3,BlockProc1,Cactus - Plant,F,3,70,9423,,,,,,,,,,,,StudyProc3
IS_JOL B,66,1,3,BlockProc1,Chop - Cut,F,12,70,58300,,,,,,,,,,,,StudyProc3
IS_JOL B,66,1,3,BlockProc1,Feud - Fight,F,18,80,23223,,,,,,,,,,,,StudyProc3
IS_JOL B,66,1,3,BlockProc1,Bird - Penguin,B,24,100,11744,,,,,,,,,,,,StudyProc3
IS_JOL B,66,1,3,BlockProc1,Thread - Thimble,B,26,80,71990,,,,,,,,,,,,StudyProc3
IS_JOL B,66,1,3,BlockProc1,Detective - Mystery,F,5,80,79760,,,,,,,,,,,,StudyProc3
IS_JOL B,66,1,3,BlockProc1,Honest - Truthful,B,38,80,26972,,,,,,,,,,,,StudyProc3
IS_JOL B,66,1,3,BlockProc1,Fish - Sardine,B,35,100,13754,,,,,,,,,,,,StudyProc3
IS_JOL B,66,1,3,BlockProc1,Affection - Love,F,20,100,12518,,,,,,,,,,,,StudyProc3
IS_JOL B,66,1,3,BlockProc1,Turn - Flip,B,21,80,13180,,,,,,,,,,,,StudyProc3
IS_JOL B,66,1,3,BlockProc1,Sleep - Nap,B,39,100,9432,,,,,,,,,,,,StudyProc3
IS_JOL B,66,1,3,BlockProc1,Bad - Villain,B,23,90,39956,,,,,,,,,,,,StudyProc3
IS_JOL B,66,1,3,BlockProc1,Money - Banker,B,37,80,46039,,,,,,,,,,,,StudyProc3
IS_JOL B,66,1,3,BlockProc1,Document - Paper,F,14,70,25928,,,,,,,,,,,,StudyProc3
IS_JOL B,66,1,3,BlockProc1,Driver - Car,F,11,100,34553,,,,,,,,,,,,StudyProc3
IS_JOL B,66,1,3,BlockProc1,Car - Windshield,B,22,30,43408,,,,,,,,,,,,StudyProc3
IS_JOL B,66,1,3,BlockProc1,Extension - Long,F,1,30,58918,,,,,,,,,,,,StudyProc3
IS_JOL B,66,1,3,BlockProc1,Cherry - Red,F,9,100,33151,,,,,,,,,,,,StudyProc3
IS_JOL B,66,1,3,BlockProc1,Baseball - League,B,36,20,21280,,,,,,,,,,,,StudyProc3
IS_JOL B,66,1,3,BlockProc1,Even - Revenge,B,27,20,22616,,,,,,,,,,,,StudyProc3
IS_JOL B,66,1,3,BlockProc1,Shears - Scissors,F,17,70,20032,,,,,,,,,,,,StudyProc3
IS_JOL B,66,1,3,BlockProc1,Cat - Panther,B,31,60,8579,,,,,,,,,,,,StudyProc3
IS_JOL B,66,1,3,BlockProc1,Litter - Trash,F,8,60,14650,,,,,,,,,,,,StudyProc3
IS_JOL B,66,1,3,BlockProc1,Dine - Eat,F,16,40,20305,,,,,,,,,,,,StudyProc3
IS_JOL B,66,1,3,BlockProc1,Dead - Coffin,B,33,40,60712,,,,,,,,,,,,StudyProc3
IS_JOL B,66,1,3,BlockProc1,Shoelace - Tie,F,4,60,17560,,,,,,,,,,,,StudyProc3
IS_JOL B,66,1,3,BlockProc1,Best - Favorite,B,30,40,17528,,,,,,,,,,,,StudyProc3
IS_JOL B,66,1,3,BlockProc1,Plane - Aircraft,B,34,40,10345,,,,,,,,,,,,StudyProc3
IS_JOL B,66,1,3,BlockProc1,Incense - Smell,F,15,50,17312,,,,,,,,,,,,StudyProc3
IS_JOL B,66,1,3,BlockProc1,Pop - Balloon,B,28,60,49258,,,,,,,,,,,,StudyProc3
IS_JOL B,66,1,3,BlockProc1,Clue - Game,F,2,60,30487,,,,,,,,,,,,StudyProc3
IS_JOL B,66,1,3,BlockProc1,Scalp - Head,F,10,50,25550,,,,,,,,,,,,StudyProc3
IS_JOL B,66,1,3,BlockProc1,Adjourn - End,F,6,40,44591,,,,,,,,,,,,StudyProc3
IS_JOL B,66,1,3,BlockProc1,Glass - Breakable,B,32,30,20067,,,,,,,,,,,,StudyProc3
IS_JOL B,66,1,3,BlockProc1,Fight - Brawl,B,40,30,16580,,,,,,,,,,,,StudyProc3
IS_JOL B,66,1,3,BlockProc1,Phone - Communicatio,S,54,,,,,,,,70,17379,,,,,StudyProc7
IS_JOL B,66,1,3,BlockProc1,Safety - Seatbelt,S,52,,,,,,,,60,43539,,,,,StudyProc7
IS_JOL B,66,1,3,BlockProc1,Flea - Tick,S,56,,,,,,,,20,31339,,,,,StudyProc7
IS_JOL B,66,1,3,BlockProc1,Tantrum - Temper,S,59,,,,,,,,30,54118,,,,,StudyProc7
IS_JOL B,66,1,3,BlockProc1,Meat - Obtain,U,66,,,,,,,,30,27276,,,,,StudyProc7
IS_JOL B,66,1,3,BlockProc1,Element - Carbon,S,46,,,,,,,,60,46623,,,,,StudyProc7
IS_JOL B,66,1,3,BlockProc1,Maze - Election,U,64,,,,,,,,40,72880,,,,,StudyProc7
IS_JOL B,66,1,3,BlockProc1,Vehicle - Charm,U,65,,,,,,,,40,22190,,,,,StudyProc7
IS_JOL B,66,1,3,BlockProc1,Wrist - Bracelet,S,45,,,,,,,,30,35896,,,,,StudyProc7
IS_JOL B,66,1,3,BlockProc1,Main - Scar,U,80,,,,,,,,0,45921,,,,,StudyProc7
IS_JOL B,66,1,3,BlockProc1,Loan - Sign,U,76,,,,,,,,20,38935,,,,,StudyProc7
IS_JOL B,66,1,3,BlockProc1,Name - Hate,U,72,,,,,,,,20,72059,,,,,StudyProc7
IS_JOL B,66,1,3,BlockProc1,Justice - Maroon,U,61,,,,,,,,0,16562,,,,,StudyProc7
IS_JOL B,66,1,3,BlockProc1,Mirror - Children,U,79,,,,,,,,0,8995,,,,,StudyProc7
IS_JOL B,66,1,3,BlockProc1,Gone - Away,S,47,,,,,,,,30,20641,,,,,StudyProc7
IS_JOL B,66,1,3,BlockProc1,Sun - Tan,S,60,,,,,,,,80,26563,,,,,StudyProc7
IS_JOL B,66,1,3,BlockProc1,Shell - Shake,U,68,,,,,,,,20,12289,,,,,StudyProc7
IS_JOL B,66,1,3,BlockProc1,Dry - Wet,S,51,,,,,,,,60,14225,,,,,StudyProc7
IS_JOL B,66,1,3,BlockProc1,Rod - Reel,S,55,,,,,,,,60,27018,,,,,StudyProc7
IS_JOL B,66,1,3,BlockProc1,Stretch - Cloth,U,62,,,,,,,,30,17886,,,,,StudyProc7
IS_JOL B,66,1,3,BlockProc1,Rights - Equal,S,42,,,,,,,,50,30080,,,,,StudyProc7
IS_JOL B,66,1,3,BlockProc1,Lease - Toil,U,75,,,,,,,,0,51007,,,,,StudyProc7
IS_JOL B,66,1,3,BlockProc1,Truth - Lie,S,53,,,,,,,,80,7877,,,,,StudyProc7
IS_JOL B,66,1,3,BlockProc1,Temperature - Morning,U,78,,,,,,,,30,12457,,,,,StudyProc7
IS_JOL B,66,1,3,BlockProc1,Razor - Shave,S,41,,,,,,,,90,25138,,,,,StudyProc7
IS_JOL B,66,1,3,BlockProc1,Candle - Wax,S,44,,,,,,,,90,22283,,,,,StudyProc7
IS_JOL B,66,1,3,BlockProc1,Water - Drink,S,48,,,,,,,,100,17330,,,,,StudyProc7
IS_JOL B,66,1,3,BlockProc1,Earth - Ground,S,49,,,,,,,,20,30619,,,,,StudyProc7
IS_JOL B,66,1,3,BlockProc1,Crackle - Able,U,67,,,,,,,,0,18124,,,,,StudyProc7
IS_JOL B,66,1,3,BlockProc1,Fuzzy - Bang,U,73,,,,,,,,0,15724,,,,,StudyProc7
IS_JOL B,66,1,3,BlockProc1,Mason - Jar,S,43,,,,,,,,20,10919,,,,,StudyProc7
IS_JOL B,66,1,3,BlockProc1,Keys - Joke,U,70,,,,,,,,0,13575,,,,,StudyProc7
IS_JOL B,66,1,3,BlockProc1,Own - Have,S,58,,,,,,,,30,15074,,,,,StudyProc7
IS_JOL B,66,1,3,BlockProc1,Give - Steak,U,63,,,,,,,,0,18720,,,,,StudyProc7
IS_JOL B,66,1,3,BlockProc1,Moat - Clear,U,74,,,,,,,,0,10752,,,,,StudyProc7
IS_JOL B,66,1,3,BlockProc1,Cake - Clothes,U,71,,,,,,,,0,14270,,,,,StudyProc7
IS_JOL B,66,1,3,BlockProc1,Both - Ounce,U,77,,,,,,,,0,14749,,,,,StudyProc7
IS_JOL B,66,1,3,BlockProc1,Loud - Noise,S,57,,,,,,,,100,10840,,,,,StudyProc7
IS_JOL B,66,1,3,BlockProc1,Listen - Fiction,U,69,,,,,,,,0,13547,,,,,StudyProc7
IS_JOL B,66,1,3,BlockProc1,Alone - Lonely,S,50,,,,,,,,100,11471,,,,,StudyProc7
IS_JOL B,66,1,3,BlockProc1,Grab - Take,,2,,,,,,,,,,,,,,StudyProc2
IS_JOL B,66,1,3,BlockProc1,Catcher - Baseball,,4,,,,,,,,,,,,,,StudyProc2
IS_JOL B,66,1,3,BlockProc1,Trees - Green,,5,,,,,,,,,,,,,,StudyProc2
IS_JOL B,66,1,3,BlockProc1,Geese - Goose,,1,,,,,,,,,,,,,,StudyProc2
IS_JOL B,66,1,3,BlockProc1,Friendliness - Nice,,3,,,,,,,,,,,,,,StudyProc2
IS_JOL B,66,1,3,BlockProc1,Honest - ?,,38,,,,,truthful,4530,,,,,,,,recallproc1
IS_JOL B,66,1,3,BlockProc1,Justice - ?,,61,,,,,crime,8319,,,,,,,,recallproc1
IS_JOL B,66,1,3,BlockProc1,Fish - ?,,35,,,,,shrimp,3002,,,,,,,,recallproc1
IS_JOL B,66,1,3,BlockProc1,Phone - ?,,54,,,,,communication,4270,,,,,,,,recallproc1
IS_JOL B,66,1,3,BlockProc1,Shell - ?,,68,,,,,turtle,7110,,,,,,,,recallproc1
IS_JOL B,66,1,3,BlockProc1,Shoelace - ?,,4,,,,,tie,4234,,,,,,,,recallproc1
IS_JOL B,66,1,3,BlockProc1,Loud - ?,,57,,,,,noise,2276,,,,,,,,recallproc1
IS_JOL B,66,1,3,BlockProc1,Baseball - ?,,36,,,,,league,2869,,,,,,,,recallproc1
IS_JOL B,66,1,3,BlockProc1,Maze - ?,,64,,,,,election,8943,,,,,,,,recallproc1
IS_JOL B,66,1,3,BlockProc1,Detective - ?,,5,,,,,mystery,4503,,,,,,,,recallproc1
IS_JOL B,66,1,3,BlockProc1,Stretch - ?,,62,,,,,cloth,4750,,,,,,,,recallproc1
IS_JOL B,66,1,3,BlockProc1,Fuzzy - ?,,73,,,,,dog,3467,,,,,,,,recallproc1
IS_JOL B,66,1,3,BlockProc1,Keys - ?,,70,,,,,game,2644,,,,,,,,recallproc1
IS_JOL B,66,1,3,BlockProc1,Thread - ?,,26,,,,,thimble,4631,,,,,,,,recallproc1
IS_JOL B,66,1,3,BlockProc1,Temperature - ?,,78,,,,,morning,2464,,,,,,,,recallproc1
IS_JOL B,66,1,3,BlockProc1,Car - ?,,22,,,,,keys,7050,,,,,,,,recallproc1
IS_JOL B,66,1,3,BlockProc1,Money - ?,,37,,,,,banker,2648,,,,,,,,recallproc1
IS_JOL B,66,1,3,BlockProc1,Tantrum - ?,,59,,,,,temper,2627,,,,,,,,recallproc1
IS_JOL B,66,1,3,BlockProc1,Crackle - ?,,67,,,,,noise,5150,,,,,,,,recallproc1
IS_JOL B,66,1,3,BlockProc1,Fight - ?,,40,,,,,brawl,3059,,,,,,,,recallproc1
IS_JOL B,66,1,3,BlockProc1,Razor - ?,,41,,,,,shave,2212,,,,,,,,recallproc1
IS_JOL B,66,1,3,BlockProc1,Lease - ?,,75,,,,,toil,3665,,,,,,,,recallproc1
IS_JOL B,66,1,3,BlockProc1,Give - ?,,63,,,,,take,8818,,,,,,,,recallproc1
IS_JOL B,66,1,3,BlockProc1,Chop - ?,,12,,,,,cut,2039,,,,,,,,recallproc1
IS_JOL B,66,1,3,BlockProc1,Flea - ?,,56,,,,,tick,1883,,,,,,,,recallproc1
IS_JOL B,66,1,3,BlockProc1,Cat - ?,,31,,,,,panther,6525,,,,,,,,recallproc1
IS_JOL B,66,1,3,BlockProc1,Mule - ?,,13,,,,,donkey,2696,,,,,,,,recallproc1
IS_JOL B,66,1,3,BlockProc1,Candle - ?,,44,,,,,wax,2521,,,,,,,,recallproc1
IS_JOL B,66,1,3,BlockProc1,Vehicle - ?,,65,,,,,car,3040,,,,,,,,recallproc1
IS_JOL B,66,1,3,BlockProc1,Pop - ?,,28,,,,,balloon,2739,,,,,,,,recallproc1
IS_JOL B,66,1,3,BlockProc1,Document - ?,,14,,,,,paper,1625,,,,,,,,recallproc1
IS_JOL B,66,1,3,BlockProc1,Glass - ?,,32,,,,,breakable,3142,,,,,,,,recallproc1
IS_JOL B,66,1,3,BlockProc1,Affection - ?,,20,,,,,love,1900,,,,,,,,recallproc1
IS_JOL B,66,1,3,BlockProc1,Fruit - ?,,29,,,,,strawberry,3629,,,,,,,,recallproc1
IS_JOL B,66,1,3,BlockProc1,Chill - ?,,19,,,,,cold,1767,,,,,,,,recallproc1
IS_JOL B,66,1,3,BlockProc1,Alone - ?,,50,,,,,lonely,1926,,,,,,,,recallproc1
IS_JOL B,66,1,3,BlockProc1,Adjourn - ?,,6,,,,,end,3142,,,,,,,,recallproc1
IS_JOL B,66,1,3,BlockProc1,Name - ?,,72,,,,,hate,1861,,,,,,,,recallproc1
IS_JOL B,66,1,3,BlockProc1,Loan - ?,,76,,,,,sign,2591,,,,,,,,recallproc1
IS_JOL B,66,1,3,BlockProc1,Star - ?,,25,,,,,actress,4220,,,,,,,,recallproc1
IS_JOL B,66,1,3,BlockProc1,Moat - ?,,74,,,,,river,7502,,,,,,,,recallproc1
IS_JOL B,66,1,3,BlockProc1,Litter - ?,,8,,,,,trash,3074,,,,,,,,recallproc1
IS_JOL B,66,1,3,BlockProc1,Mason - ?,,43,,,,,jar,3171,,,,,,,,recallproc1
IS_JOL B,66,1,3,BlockProc1,Rod - ?,,55,,,,,reel,1856,,,,,,,,recallproc1
IS_JOL B,66,1,3,BlockProc1,Cactus - ?,,3,,,,,plant,1979,,,,,,,,recallproc1
IS_JOL B,66,1,3,BlockProc1,Even - ?,,27,,,,,revenge,4641,,,,,,,,recallproc1
IS_JOL B,66,1,3,BlockProc1,Rights - ?,,42,,,,,equal,3777,,,,,,,,recallproc1
IS_JOL B,66,1,3,BlockProc1,Cake - ?,,71,,,,,birthday,5582,,,,,,,,recallproc1
IS_JOL B,66,1,3,BlockProc1,Driver - ?,,11,,,,,car,1577,,,,,,,,recallproc1
IS_JOL B,66,1,3,BlockProc1,Earth - ?,,49,,,,,ground,2222,,,,,,,,recallproc1
IS_JOL B,66,1,3,BlockProc1,Best - ?,,30,,,,,favorite,3090,,,,,,,,recallproc1
IS_JOL B,66,1,3,BlockProc1,Scalp - ?,,10,,,,,head,1867,,,,,,,,recallproc1
IS_JOL B,66,1,3,BlockProc1,Dry - ?,,51,,,,,wet,1565,,,,,,,,recallproc1
IS_JOL B,66,1,3,BlockProc1,Both - ?,,77,,,,,same,9228,,,,,,,,recallproc1
IS_JOL B,66,1,3,BlockProc1,Wrist - ?,,45,,,,,bracelet,2961,,,,,,,,recallproc1
IS_JOL B,66,1,3,BlockProc1,Incense - ?,,15,,,,,smell,1743,,,,,,,,recallproc1
IS_JOL B,66,1,3,BlockProc1,Bad - ?,,23,,,,,villian,4422,,,,,,,,recallproc1
IS_JOL B,66,1,3,BlockProc1,Meat - ?,,66,,,,,food,4776,,,,,,,,recallproc1
IS_JOL B,66,1,3,BlockProc1,Bird - ?,,24,,,,,penguin,3459,,,,,,,,recallproc1
IS_JOL B,66,1,3,BlockProc1,Own - ?,,58,,,,,have,1980,,,,,,,,recallproc1
IS_JOL B,66,1,3,BlockProc1,Gone - ?,,47,,,,,away,4242,,,,,,,,recallproc1
IS_JOL B,66,1,3,BlockProc1,Extension - ?,,1,,,,,long,1819,,,,,,,,recallproc1
IS_JOL B,66,1,3,BlockProc1,Listen - ?,,69,,,,,hear,3511,,,,,,,,recallproc1
IS_JOL B,66,1,3,BlockProc1,Truth - ?,,53,,,,,lie,3759,,,,,,,,recallproc1
IS_JOL B,66,1,3,BlockProc1,Cherry - ?,,9,,,,,re,2843,,,,,,,,recallproc1
IS_JOL B,66,1,3,BlockProc1,Feud - ?,,18,,,,,fight,2782,,,,,,,,recallproc1
IS_JOL B,66,1,3,BlockProc1,Clue - ?,,2,,,,,game,1763,,,,,,,,recallproc1
IS_JOL B,66,1,3,BlockProc1,Sun - ?,,60,,,,,tan,1826,,,,,,,,recallproc1
IS_JOL B,66,1,3,BlockProc1,Dine - ?,,16,,,,,eat,1590,,,,,,,,recallproc1
IS_JOL B,66,1,3,BlockProc1,Safety - ?,,52,,,,,seatbelty,3124,,,,,,,,recallproc1
IS_JOL B,66,1,3,BlockProc1,Water - ?,,48,,,,,drink,3419,,,,,,,,recallproc1
IS_JOL B,66,1,3,BlockProc1,Sleep - ?,,39,,,,,nap,1750,,,,,,,,recallproc1
IS_JOL B,66,1,3,BlockProc1,Furry - ?,,7,,,,,dog,2949,,,,,,,,recallproc1
IS_JOL B,66,1,3,BlockProc1,Plane - ?,,34,,,,,aircraft,6396,,,,,,,,recallproc1
IS_JOL B,66,1,3,BlockProc1,Dead - ?,,33,,,,,coffin,2429,,,,,,,,recallproc1
IS_JOL B,66,1,3,BlockProc1,Main - ?,,80,,,,,scar,3024,,,,,,,,recallproc1
IS_JOL B,66,1,3,BlockProc1,Turn - ?,,21,,,,,flp,6043,,,,,,,,recallproc1
IS_JOL B,66,1,3,BlockProc1,Element - ?,,46,,,,,carbon,3954,,,,,,,,recallproc1
IS_JOL B,66,1,3,BlockProc1,Mirror - ?,,79,,,,,children,2791,,,,,,,,recallproc1
IS_JOL B,66,1,3,BlockProc1,Shears - ?,,17,,,,,scissors,5404,,,,,,,,recallproc1
IS_JOL B,66,2,3,BlockProc2,Hide - Scare,,2,,,,,,,,,,,,,,StudyProc4
IS_JOL B,66,2,3,BlockProc2,Disintegrate - Disappear,,3,,,,,,,,,,,,,,StudyProc4
IS_JOL B,66,2,3,BlockProc2,Sheriff - Police,,1,,,,,,,,,,,,,,StudyProc4
IS_JOL B,66,2,3,BlockProc2,Malt - Chocolate,,5,,,,,,,,,,,,,,StudyProc4
IS_JOL B,66,2,3,BlockProc2,Essay - Write,,4,,,,,,,,,,,,,,StudyProc4
IS_JOL B,66,2,3,BlockProc2,Chisel - Hammer,F,4,,,70,44000,,,,,,,,,,StudyProc5
IS_JOL B,66,2,3,BlockProc2,Discussion - Talk,F,16,,,100,6468,,,,,,,,,,StudyProc5
IS_JOL B,66,2,3,BlockProc2,Wage - Money,F,3,,,100,2610,,,,,,,,,,StudyProc5
IS_JOL B,66,2,3,BlockProc2,Hornet - Sting,F,6,,,100,3878,,,,,,,,,,StudyProc5
IS_JOL B,66,2,3,BlockProc2,Orchid - Flower,F,19,,,100,3079,,,,,,,,,,StudyProc5
IS_JOL B,66,2,3,BlockProc2,Hunger - Famine,B,35,,,100,31583,,,,,,,,,,StudyProc5
IS_JOL B,66,2,3,BlockProc2,Sentence - Word,B,26,,,100,6633,,,,,,,,,,StudyProc5
IS_JOL B,66,2,3,BlockProc2,Bitter - Cold,F,7,,,40,9896,,,,,,,,,,StudyProc5
IS_JOL B,66,2,3,BlockProc2,Hot - Chili,B,32,,,100,8193,,,,,,,,,,StudyProc5
IS_JOL B,66,2,3,BlockProc2,Geology - Rock,F,14,,,100,8656,,,,,,,,,,StudyProc5
IS_JOL B,66,2,3,BlockProc2,Paw - Dog,F,10,,,100,12925,,,,,,,,,,StudyProc5
IS_JOL B,66,2,3,BlockProc2,Drink - Sip,B,22,,,100,4619,,,,,,,,,,StudyProc5
IS_JOL B,66,2,3,BlockProc2,Sleep - Drowsy,B,36,,,100,5893,,,,,,,,,,StudyProc5
IS_JOL B,66,2,3,BlockProc2,Law - Attorney,B,29,,,100,2874,,,,,,,,,,StudyProc5
IS_JOL B,66,2,3,BlockProc2,Math - Division,B,28,,,100,6739,,,,,,,,,,StudyProc5
IS_JOL B,66,2,3,BlockProc2,Fire - Blaze,B,40,,,100,3839,,,,,,,,,,StudyProc5
IS_JOL B,66,2,3,BlockProc2,Bug - Wasp,B,27,,,100,5296,,,,,,,,,,StudyProc5
IS_JOL B,66,2,3,BlockProc2,Bridge - Water,F,13,,,100,16390,,,,,,,,,,StudyProc5
IS_JOL B,66,2,3,BlockProc2,Editor - News,F,5,,,100,25246,,,,,,,,,,StudyProc5
IS_JOL B,66,2,3,BlockProc2,Tuna - Fish,F,20,,,100,4938,,,,,,,,,,StudyProc5
IS_JOL B,66,2,3,BlockProc2,Delinquent - Bad,F,1,,,60,7527,,,,,,,,,,StudyProc5
IS_JOL B,66,2,3,BlockProc2,Credit - Card,F,18,,,100,5034,,,,,,,,,,StudyProc5
IS_JOL B,66,2,3,BlockProc2,Plane - Pilot,B,39,,,100,5987,,,,,,,,,,StudyProc5
IS_JOL B,66,2,3,BlockProc2,Height - Growth,B,25,,,60,6557,,,,,,,,,,StudyProc5
IS_JOL B,66,2,3,BlockProc2,Clothes - Attire,B,38,,,100,5335,,,,,,,,,,StudyProc5
IS_JOL B,66,2,3,BlockProc2,Great - Fantastic,B,30,,,100,4884,,,,,,,,,,StudyProc5
IS_JOL B,66,2,3,BlockProc2,Root - Plant,F,8,,,70,41571,,,,,,,,,,StudyProc5
IS_JOL B,66,2,3,BlockProc2,Smell - Stench,B,37,,,70,12859,,,,,,,,,,StudyProc5
IS_JOL B,66,2,3,BlockProc2,Key - Latch,B,31,,,70,5780,,,,,,,,,,StudyProc5
IS_JOL B,66,2,3,BlockProc2,Herd - Cow,F,17,,,100,6766,,,,,,,,,,StudyProc5
IS_JOL B,66,2,3,BlockProc2,Dark - Cave,B,23,,,70,10928,,,,,,,,,,StudyProc5
IS_JOL B,66,2,3,BlockProc2,Swan - Bird,F,9,,,100,4735,,,,,,,,,,StudyProc5
IS_JOL B,66,2,3,BlockProc2,Revolution - War,F,15,,,150,7965,,,,,,,,,,StudyProc5
IS_JOL B,66,2,3,BlockProc2,Take - Seize,B,24,,,50,24285,,,,,,,,,,StudyProc5
IS_JOL B,66,2,3,BlockProc2,Ball - Racket,B,33,,,70,4514,,,,,,,,,,StudyProc5
IS_JOL B,66,2,3,BlockProc2,Digestion - Stomach,F,2,,,100,8952,,,,,,,,,,StudyProc5
IS_JOL B,66,2,3,BlockProc2,Work - Chore,B,34,,,50,20728,,,,,,,,,,StudyProc5
IS_JOL B,66,2,3,BlockProc2,Full - Enough,B,21,,,60,31894,,,,,,,,,,StudyProc5
IS_JOL B,66,2,3,BlockProc2,Way - Out,F,11,,,70,15747,,,,,,,,,,StudyProc5
IS_JOL B,66,2,3,BlockProc2,Hygiene - Clean,F,12,,,60,27485,,,,,,,,,,StudyProc5
IS_JOL B,66,2,3,BlockProc2,Dietary - Slacking,U,62,,,,,,,,,,0,15850,,,StudyProc8
IS_JOL B,66,2,3,BlockProc2,Circle - Round,S,60,,,,,,,,,,100,27207,,,StudyProc8
IS_JOL B,66,2,3,BlockProc2,Blow - Wind,S,50,,,,,,,,,,100,13340,,,StudyProc8
IS_JOL B,66,2,3,BlockProc2,Due - Assignment,S,41,,,,,,,,,,70,12176,,,StudyProc8
IS_JOL B,66,2,3,BlockProc2,Art - Lion,U,74,,,,,,,,,,0,6725,,,StudyProc8
IS_JOL B,66,2,3,BlockProc2,Valley - Add,U,77,,,,,,,,,,0,8784,,,StudyProc8
IS_JOL B,66,2,3,BlockProc2,Begin - End,S,49,,,,,,,,,,100,3967,,,StudyProc8
IS_JOL B,66,2,3,BlockProc2,Happy - Car,U,72,,,,,,,,,,0,7164,,,StudyProc8
IS_JOL B,66,2,3,BlockProc2,Kidney - Liver,S,48,,,,,,,,,,50,9174,,,StudyProc8
IS_JOL B,66,2,3,BlockProc2,Bathroom - Toilet,S,53,,,,,,,,,,80,17269,,,StudyProc8
IS_JOL B,66,2,3,BlockProc2,Choice - Decision,S,57,,,,,,,,,,100,10232,,,StudyProc8
IS_JOL B,66,2,3,BlockProc2,Pusher - Clutter,U,61,,,,,,,,,,0,11941,,,StudyProc8
IS_JOL B,66,2,3,BlockProc2,Past - Future,S,56,,,,,,,,,,100,4490,,,StudyProc8
IS_JOL B,66,2,3,BlockProc2,Lift - Woman,U,64,,,,,,,,,,0,8521,,,StudyProc8
IS_JOL B,66,2,3,BlockProc2,Wine - Cheese,S,52,,,,,,,,,,50,7475,,,StudyProc8
IS_JOL B,66,2,3,BlockProc2,Allow - Tuck,U,73,,,,,,,,,,0,16200,,,StudyProc8
IS_JOL B,66,2,3,BlockProc2,Cash - Would,U,78,,,,,,,,,,0,8576,,,StudyProc8
IS_JOL B,66,2,3,BlockProc2,Hide - Sick,U,79,,,,,,,,,,0,13247,,,StudyProc8
IS_JOL B,66,2,3,BlockProc2,Death - Business,U,67,,,,,,,,,,0,19159,,,StudyProc8
IS_JOL B,66,2,3,BlockProc2,Number - Amount,S,42,,,,,,,,,,0,13173,,,StudyProc8
IS_JOL B,66,2,3,BlockProc2,Fix - Hand,U,70,,,,,,,,,,40,10097,,,StudyProc8
IS_JOL B,66,2,3,BlockProc2,Baby - Child,S,59,,,,,,,,,,90,7211,,,StudyProc8
IS_JOL B,66,2,3,BlockProc2,King - Vase,U,80,,,,,,,,,,0,9985,,,StudyProc8
IS_JOL B,66,2,3,BlockProc2,Park - Hungry,U,63,,,,,,,,,,0,11031,,,StudyProc8
IS_JOL B,66,2,3,BlockProc2,Artery - Bronze,U,69,,,,,,,,,,0,7586,,,StudyProc8
IS_JOL B,66,2,3,BlockProc2,Discover - Floor,U,66,,,,,,,,,,0,9906,,,StudyProc8
IS_JOL B,66,2,3,BlockProc2,Architecture - Design,S,46,,,,,,,,,,60,16004,,,StudyProc8
IS_JOL B,66,2,3,BlockProc2,Location - Site,S,43,,,,,,,,,,60,12435,,,StudyProc8
IS_JOL B,66,2,3,BlockProc2,Pop - Soda,S,51,,,,,,,,,,50,6301,,,StudyProc8
IS_JOL B,66,2,3,BlockProc2,Strong - Accident,U,75,,,,,,,,,,0,18234,,,StudyProc8
IS_JOL B,66,2,3,BlockProc2,Sugar - Riddle,U,76,,,,,,,,,,0,9822,,,StudyProc8
IS_JOL B,66,2,3,BlockProc2,Shoe - Foot,S,55,,,,,,,,,,100,14852,,,StudyProc8
IS_JOL B,66,2,3,BlockProc2,Soon - Belt,U,65,,,,,,,,,,0,13833,,,StudyProc8
IS_JOL B,66,2,3,BlockProc2,Debate - Sight,U,68,,,,,,,,,,0,8890,,,StudyProc8
IS_JOL B,66,2,3,BlockProc2,Honey - Bee,S,58,,,,,,,,,,100,10053,,,StudyProc8
IS_JOL B,66,2,3,BlockProc2,Dump - Waste,S,44,,,,,,,,,,60,18848,,,StudyProc8
IS_JOL B,66,2,3,BlockProc2,Lettuce - Salad,S,54,,,,,,,,,,100,16251,,,StudyProc8
IS_JOL B,66,2,3,BlockProc2,Machine - Position,U,71,,,,,,,,,,0,23185,,,StudyProc8
IS_JOL B,66,2,3,BlockProc2,Trial - Jury,S,45,,,,,,,,,,90,11427,,,StudyProc8
IS_JOL B,66,2,3,BlockProc2,Grill - Bar,S,47,,,,,,,,,,40,13942,,,StudyProc8
IS_JOL B,66,2,3,BlockProc2,Contest - Competition,,5,,,,,,,,,,,,,,StudyProc6
IS_JOL B,66,2,3,BlockProc2,Magician - Magic,,4,,,,,,,,,,,,,,StudyProc6
IS_JOL B,66,2,3,BlockProc2,Mind - Matter,,2,,,,,,,,,,,,,,StudyProc6
IS_JOL B,66,2,3,BlockProc2,Deciet - Cheat,,1,,,,,,,,,,,,,,StudyProc6
IS_JOL B,66,2,3,BlockProc2,Deaf - Hear,,3,,,,,,,,,,,,,,StudyProc6
IS_JOL B,66,2,3,BlockProc2,Hunger - ?,,35,,,,,,,famine,,,,,,,recallproc2
IS_JOL B,66,2,3,BlockProc2,Choice - ?,,57,,,,,,,decision,,,,,,,recallproc2
IS_JOL B,66,2,3,BlockProc2,Trial - ?,,45,,,,,,,jury,,,,,,,recallproc2
IS_JOL B,66,2,3,BlockProc2,Dump - ?,,44,,,,,,,waste,,,,,,,recallproc2
IS_JOL B,66,2,3,BlockProc2,Location - ?,,43,,,,,,,position,,,,,,,recallproc2
IS_JOL B,66,2,3,BlockProc2,Bug - ?,,27,,,,,,,wasp,,,,,,,recallproc2
IS_JOL B,66,2,3,BlockProc2,Editor - ?,,5,,,,,,,news,,,,,,,recallproc2
IS_JOL B,66,2,3,BlockProc2,Tuna - ?,,20,,,,,,,fish,,,,,,,recallproc2
IS_JOL B,66,2,3,BlockProc2,Wage - ?,,3,,,,,,,money,,,,,,,recallproc2
IS_JOL B,66,2,3,BlockProc2,Pusher - ?,,61,,,,,,,clutter,,,,,,,recallproc2
IS_JOL B,66,2,3,BlockProc2,Ball - ?,,33,,,,,,,racket,,,,,,,recallproc2
IS_JOL B,66,2,3,BlockProc2,Take - ?,,24,,,,,,,give,,,,,,,recallproc2
IS_JOL B,66,2,3,BlockProc2,Honey - ?,,58,,,,,,,bee,,,,,,,recallproc2
