Username,ID,ExperimentName,Session,Trial,Date,TimeDif,"Condition Number","Stimuli File","Order File","Condition Description","Condition Notes",Stimuli*Cue,Stimuli*Answer,Stimuli*Shuffle,"Stimuli*Stimuli Notes",Stimuli*Value,Procedure*Item,"Procedure*Trial Type","Procedure*Max Time","Procedure*Min Time",Procedure*Text,"Procedure*Procedure Notes",Procedure*Shuffle,Response*RT,Response*Response,Response*Accuracy,Response*RTfirst,Response*RTlast,Response*strictAcc,Response*lenientAcc,Response*focus,Response*Focus
23232,5tuijfzxun,Collector,1,1,2020-03-24T18:44:29+00:00,11.430025100708,15,versionA_stim.csv,VersionA.csv,"Version A","Dissertation, read only version A",,,,,,0,Instruct,-,10,"Please study each of the following word pairs. Remember that your memory will be tested! When finished, press Enter to move to the next pair.",Initial_Instruct,Instruct1,11129,,,-1,-1,,,,1
23232,5tuijfzxun,Collector,1,2,2020-03-24T18:44:30+00:00,1.317440032959,15,versionA_stim.csv,VersionA.csv,"Version A","Dissertation, read only version A",SPACE,JAM,OFF,Buffer,5,6,Study,User,-,,Study/JOL,BUFFER,1090,,,-1,-1,,,,1
23232,5tuijfzxun,Collector,1,3,2020-03-24T18:44:30+00:00,0.44659876823425,15,versionA_stim.csv,VersionA.csv,"Version A","Dissertation, read only version A",BASEBALL,CATCHER,OFF,Buffer,2,3,Study,User,-,,Study/JOL,BUFFER,235,,,-1,-1,,,,1
23232,5tuijfzxun,Collector,1,4,2020-03-24T18:44:31+00:00,0.41711115837097,15,versionA_stim.csv,VersionA.csv,"Version A","Dissertation, read only version A",PEANUT,BUTTER,OFF,Buffer,3,4,Study,User,-,,Study/JOL,BUFFER,198,,,-1,-1,,,,1
23232,5tuijfzxun,Collector,1,5,2020-03-24T18:44:31+00:00,0.43108201026917,15,versionA_stim.csv,VersionA.csv,"Version A","Dissertation, read only version A",TREES,GREEN,OFF,Buffer,1,2,Study,User,-,,Study/JOL,BUFFER,213,,,-1,-1,,,,1
23232,5tuijfzxun,Collector,1,6,2020-03-24T18:44:32+00:00,0.37374901771545,15,versionA_stim.csv,VersionA.csv,"Version A","Dissertation, read only version A",SCARE,HIDE,OFF,Buffer,4,5,Study,User,-,,Study/JOL,BUFFER,140,,,-1,-1,,,,1
23232,5tuijfzxun,Collector,1,7,2020-03-24T18:44:32+00:00,0.35081100463867,15,versionA_stim.csv,VersionA.csv,"Version A","Dissertation, read only version A",PAST,FUTURE,ON,S,61,26,Study,User,-,,Study/JOL,"Study Phase",129,,,-1,-1,,,,1
23232,5tuijfzxun,Collector,1,8,2020-03-24T18:44:32+00:00,0.34494280815125,15,versionA_stim.csv,VersionA.csv,"Version A","Dissertation, read only version A",DIETARY,SACKING,ON,U,67,30,Study,User,-,,Study/JOL,"Study Phase",100,,,-1,-1,,,,1
23232,5tuijfzxun,Collector,1,9,2020-03-24T18:44:33+00:00,0.34791803359985,15,versionA_stim.csv,VersionA.csv,"Version A","Dissertation, read only version A",ART,LION,ON,U,79,54,Study,User,-,,Study/JOL,"Study Phase",139,,,-1,-1,,,,1
23232,5tuijfzxun,Collector,1,10,2020-03-24T18:44:33+00:00,0.33256196975708,15,versionA_stim.csv,VersionA.csv,"Version A","Dissertation, read only version A",LOUD,NOISE,ON,S,152,83,Study,User,-,,Study/JOL,"Study Phase",121,,,-1,-1,,,,1
23232,5tuijfzxun,Collector,1,11,2020-03-24T18:44:33+00:00,0.35767316818237,15,versionA_stim.csv,VersionA.csv,"Version A","Dissertation, read only version A",HONEST,TRUTHFUL,ON,B,133,17,Study,User,-,,Study/JOL,"Study Phase",141,,,-1,-1,,,,1
23232,5tuijfzxun,Collector,1,12,2020-03-24T18:44:34+00:00,0.33737683296204,15,versionA_stim.csv,VersionA.csv,"Version A","Dissertation, read only version A",ALLOW,TUCK,ON,U,78,77,Study,User,-,,Study/JOL,"Study Phase",142,,,-1,-1,,,,1
23232,5tuijfzxun,Collector,1,13,2020-03-24T18:44:34+00:00,0.34746813774109,15,versionA_stim.csv,VersionA.csv,"Version A","Dissertation, read only version A",FULL,ENOUGH,ON,B,26,55,Study,User,-,,Study/JOL,"Study Phase",141,,,-1,-1,,,,1
23232,5tuijfzxun,Collector,1,14,2020-03-24T18:44:34+00:00,0.34082007408142,15,versionA_stim.csv,VersionA.csv,"Version A","Dissertation, read only version A",ARTERY,BRONZE,ON,U,74,33,Study,User,-,,Study/JOL,"Study Phase",134,,,-1,-1,,,,1
23232,5tuijfzxun,Collector,1,15,2020-03-24T18:44:35+00:00,0.35732078552246,15,versionA_stim.csv,VersionA.csv,"Version A","Dissertation, read only version A",RAZOR,SHAVE,ON,S,136,58,Study,User,-,,Study/JOL,"Study Phase",156,,,-1,-1,,,,1
23232,5tuijfzxun,Collector,1,16,2020-03-24T18:44:35+00:00,0.35269904136658,15,versionA_stim.csv,VersionA.csv,"Version A","Dissertation, read only version A",KIDNEY,LIVER,ON,S,53,9,Study,User,-,,Study/JOL,"Study Phase",145,,,-1,-1,,,,1
23232,5tuijfzxun,Collector,1,17,2020-03-24T18:44:35+00:00,0.34945201873779,15,versionA_stim.csv,VersionA.csv,"Version A","Dissertation, read only version A",RIGHTS,EQUAL,ON,S,137,21,Study,User,-,,Study/JOL,"Study Phase",149,,,-1,-1,,,,1
23232,5tuijfzxun,Collector,1,18,2020-03-24T18:44:36+00:00,0.3879451751709,15,versionA_stim.csv,VersionA.csv,"Version A","Dissertation, read only version A",FRUIT,STRAWBERRY,ON,B,124,78,Study,User,-,,Study/JOL,"Study Phase",181,,,-1,-1,,,,1
23232,5tuijfzxun,Collector,1,19,2020-03-24T18:44:37+00:00,0.69115591049194,15,versionA_stim.csv,VersionA.csv,"Version A","Dissertation, read only version A",ALONE,LONELY,ON,S,145,56,Study,User,-,,Study/JOL,"Study Phase",459,,,-1,-1,,,,1
23232,5tuijfzxun,Collector,1,20,2020-03-24T18:44:37+00:00,0.627769947052,15,versionA_stim.csv,VersionA.csv,"Version A","Dissertation, read only version A",WORK,CHORE,ON,B,39,20,Study,User,-,,Study/JOL,"Study Phase",403,,,-1,-1,,,,1
23232,5tuijfzxun,Collector,1,21,2020-03-24T18:44:38+00:00,0.4229519367218,15,versionA_stim.csv,VersionA.csv,"Version A","Dissertation, read only version A",BAD,VILLAIN,ON,B,118,11,Study,User,-,,Study/JOL,"Study Phase",215,,,-1,-1,,,,1
23232,5tuijfzxun,Collector,1,22,2020-03-24T18:44:38+00:00,0.41586017608643,15,versionA_stim.csv,VersionA.csv,"Version A","Dissertation, read only version A",TURN,FLIP,ON,B,116,85,Study,User,-,,Study/JOL,"Study Phase",220,,,-1,-1,,,,1
23232,5tuijfzxun,Collector,1,23,2020-03-24T18:44:38+00:00,0.4176869392395,15,versionA_stim.csv,VersionA.csv,"Version A","Dissertation, read only version A",DOCUMENT,PAPER,ON,F,109,7,Study,User,-,,Study/JOL,"Study Phase",204,,,-1,-1,,,,1
23232,5tuijfzxun,Collector,1,24,2020-03-24T18:44:39+00:00,0.41765999794006,15,versionA_stim.csv,VersionA.csv,"Version A","Dissertation, read only version A",THREAD,THIMBLE,ON,B,121,49,Study,User,-,,Study/JOL,"Study Phase",211,,,-1,-1,,,,1
23232,5tuijfzxun,Collector,1,25,2020-03-24T18:44:39+00:00,0.4151599407196,15,versionA_stim.csv,VersionA.csv,"Version A","Dissertation, read only version A",KING,VASE,ON,U,85,61,Study,User,-,,Study/JOL,"Study Phase",208,,,-1,-1,,,,1
23232,5tuijfzxun,Collector,1,26,2020-03-24T18:44:40+00:00,0.38446593284607,15,versionA_stim.csv,VersionA.csv,"Version A","Dissertation, read only version A",ADJOURN,END,ON,F,101,76,Study,User,-,,Study/JOL,"Study Phase",192,,,-1,-1,,,,1
23232,5tuijfzxun,Collector,1,27,2020-03-24T18:44:40+00:00,0.40844821929932,15,versionA_stim.csv,VersionA.csv,"Version A","Dissertation, read only version A",DRINK,SIP,ON,B,27,86,Study,User,-,,Study/JOL,"Study Phase",209,,,-1,-1,,,,1
23232,5tuijfzxun,Collector,1,28,2020-03-24T18:44:40+00:00,0.41327595710754,15,versionA_stim.csv,VersionA.csv,"Version A","Dissertation, read only version A",DUMP,WASTE,ON,S,49,84,Study,User,-,,Study/JOL,"Study Phase",131,,,-1,-1,,,,1
23232,5tuijfzxun,Collector,1,29,2020-03-24T18:44:41+00:00,0.4502968788147,15,versionA_stim.csv,VersionA.csv,"Version A","Dissertation, read only version A",DISCUSSION,TALK,ON,F,21,67,Study,User,-,,Study/JOL,"Study Phase",209,,,-1,-1,,,,1
23232,5tuijfzxun,Collector,1,30,2020-03-24T18:44:41+00:00,0.4034571647644,15,versionA_stim.csv,VersionA.csv,"Version A","Dissertation, read only version A",POP,SODA,ON,S,56,39,Study,User,-,,Study/JOL,"Study Phase",189,,,-1,-1,,,,1
23232,5tuijfzxun,Collector,1,31,2020-03-24T18:44:42+00:00,0.39103078842163,15,versionA_stim.csv,VersionA.csv,"Version A","Dissertation, read only version A",SAFETY,SEATBELT,ON,S,147,70,Study,User,-,,Study/JOL,"Study Phase",188,,,-1,-1,,,,1
23232,5tuijfzxun,Collector,1,32,2020-03-24T18:44:42+00:00,0.44822216033936,15,versionA_stim.csv,VersionA.csv,"Version A","Dissertation, read only version A",CAKE,CLOTHES,ON,U,166,75,Study,User,-,,Study/JOL,"Study Phase",251,,,-1,-1,,,,1
23232,5tuijfzxun,Collector,1,33,2020-03-24T18:44:43+00:00,0.41687893867493,15,versionA_stim.csv,VersionA.csv,"Version A","Dissertation, read only version A",LAW,ATTORNEY,ON,B,34,10,Study,User,-,,Study/JOL,"Study Phase",217,,,-1,-1,,,,1
23232,5tuijfzxun,Collector,1,34,2020-03-24T18:44:43+00:00,0.42668890953064,15,versionA_stim.csv,VersionA.csv,"Version A","Dissertation, read only version A",BUG,WASP,ON,B,32,36,Study,User,-,,Study/JOL,"Study Phase",217,,,-1,-1,,,,1
23232,5tuijfzxun,Collector,1,35,2020-03-24T18:44:43+00:00,0.41655707359314,15,versionA_stim.csv,VersionA.csv,"Version A","Dissertation, read only version A",WAGE,MONEY,ON,F,8,38,Study,User,-,,Study/JOL,"Study Phase",201,,,-1,-1,,,,1
23232,5tuijfzxun,Collector,1,36,2020-03-24T18:44:44+00:00,0.43928694725037,15,versionA_stim.csv,VersionA.csv,"Version A","Dissertation, read only version A",AFFECTION,LOVE,ON,F,115,60,Study,User,-,,Study/JOL,"Study Phase",241,,,-1,-1,,,,1
23232,5tuijfzxun,Collector,1,37,2020-03-24T18:44:44+00:00,0.46257400512695,15,versionA_stim.csv,VersionA.csv,"Version A","Dissertation, read only version A",DEBATE,SIGHT,ON,U,73,35,Study,User,-,,Study/JOL,"Study Phase",222,,,-1,-1,,,,1
23232,5tuijfzxun,Collector,1,38,2020-03-24T18:44:45+00:00,0.37164402008057,15,versionA_stim.csv,VersionA.csv,"Version A","Dissertation, read only version A",MATH,DIVISION,ON,B,33,57,Study,User,-,,Study/JOL,"Study Phase",121,,,-1,-1,,,,1
23232,5tuijfzxun,Collector,1,39,2020-03-24T18:44:45+00:00,0.42191600799561,15,versionA_stim.csv,VersionA.csv,"Version A","Dissertation, read only version A",REVOLUTION,WAR,ON,F,20,65,Study,User,-,,Study/JOL,"Study Phase",228,,,-1,-1,,,,1
23232,5tuijfzxun,Collector,1,40,2020-03-24T18:44:46+00:00,0.46377992630005,15,versionA_stim.csv,VersionA.csv,"Version A","Dissertation, read only version A",DUE,ASSIGNMENT,ON,S,46,34,Study,User,-,,Study/JOL,"Study Phase",258,,,-1,-1,,,,1
23232,5tuijfzxun,Collector,1,41,2020-03-24T18:44:46+00:00,0.35314106941223,15,versionA_stim.csv,VersionA.csv,"Version A","Dissertation, read only version A",EARTH,GROUND,ON,S,144,71,Study,User,-,,Study/JOL,"Study Phase",120,,,-1,-1,,,,1
23232,5tuijfzxun,Collector,1,42,2020-03-24T18:44:46+00:00,0.4174599647522,15,versionA_stim.csv,VersionA.csv,"Version A","Dissertation, read only version A",GIVE,STEAK,ON,U,158,18,Study,User,-,,Study/JOL,"Study Phase",195,,,-1,-1,,,,1
23232,5tuijfzxun,Collector,1,43,2020-03-24T18:44:47+00:00,0.37449812889099,15,versionA_stim.csv,VersionA.csv,"Version A","Dissertation, read only version A",DRY,WET,ON,S,146,69,Study,User,-,,Study/JOL,"Study Phase",164,,,-1,-1,,,,1
23232,5tuijfzxun,Collector,1,44,2020-03-24T18:44:47+00:00,0.40761399269104,15,versionA_stim.csv,VersionA.csv,"Version A","Dissertation, read only version A",BRIDGE,WATER,ON,F,18,62,Study,User,-,,Study/JOL,"Study Phase",192,,,-1,-1,,,,1
23232,5tuijfzxun,Collector,1,45,2020-03-24T18:44:48+00:00,0.38392686843872,15,versionA_stim.csv,VersionA.csv,"Version A","Dissertation, read only version A",MACHINE,POSITION,ON,U,76,72,Study,User,-,,Study/JOL,"Study Phase",192,,,-1,-1,,,,1
23232,5tuijfzxun,Collector,1,46,2020-03-24T18:44:48+00:00,0.4055449962616,15,versionA_stim.csv,VersionA.csv,"Version A","Dissertation, read only version A",DISCOVER,FLOOR,ON,U,71,12,Study,User,-,,Study/JOL,"Study Phase",189,,,-1,-1,,,,1
23232,5tuijfzxun,Collector,1,47,2020-03-24T18:44:48+00:00,0.40362596511841,15,versionA_stim.csv,VersionA.csv,"Version A","Dissertation, read only version A",DELINQUENT,BAD,ON,F,6,42,Study,User,-,,Study/JOL,"Study Phase",209,,,-1,-1,,,,1
23232,5tuijfzxun,Collector,1,48,2020-03-24T18:44:49+00:00,0.4087700843811,15,versionA_stim.csv,VersionA.csv,"Version A","Dissertation, read only version A",WATER,DRINK,ON,S,143,31,Study,User,-,,Study/JOL,"Study Phase",201,,,-1,-1,,,,1
23232,5tuijfzxun,Collector,1,49,2020-03-24T18:44:49+00:00,0.39874005317688,15,versionA_stim.csv,VersionA.csv,"Version A","Dissertation, read only version A",DRIVER,CAR,ON,F,106,24,Study,User,-,,Study/JOL,"Study Phase",125,,,-1,-1,,,,1
23232,5tuijfzxun,Collector,1,50,2020-03-24T18:44:50+00:00,0.39294791221619,15,versionA_stim.csv,VersionA.csv,"Version A","Dissertation, read only version A",SMELL,STENCH,ON,B,42,66,Study,User,-,,Study/JOL,"Study Phase",194,,,-1,-1,,,,1
23232,5tuijfzxun,Collector,1,51,2020-03-24T18:44:50+00:00,0.41181111335754,15,versionA_stim.csv,VersionA.csv,"Version A","Dissertation, read only version A",BEST,FAVORITE,ON,B,125,44,Study,User,-,,Study/JOL,"Study Phase",209,,,-1,-1,,,,1
23232,5tuijfzxun,Collector,1,52,2020-03-24T18:44:53+00:00,2.5368978977203,15,versionA_stim.csv,VersionA.csv,"Version A","Dissertation, read only version A",HONEY,BEE,ON,S,63,59,Study,User,-,,Study/JOL,"Study Phase",365,,,-1,-1,,,,1
23232,5tuijfzxun,Collector,1,53,2020-03-24T18:44:53+00:00,0.48629212379456,15,versionA_stim.csv,VersionA.csv,"Version A","Dissertation, read only version A",PLANE,PILOT,ON,B,44,13,Study,User,-,,Study/JOL,"Study Phase",252,,,-1,-1,,,,1
23232,5tuijfzxun,Collector,1,54,2020-03-24T18:44:53+00:00,0.41918897628784,15,versionA_stim.csv,VersionA.csv,"Version A","Dissertation, read only version A",PHONE,COMMUNICATION,ON,S,149,19,Study,User,-,,Study/JOL,"Study Phase",169,,,-1,-1,,,,1
23232,5tuijfzxun,Collector,1,55,2020-03-24T18:44:54+00:00,0.44511103630066,15,versionA_stim.csv,VersionA.csv,"Version A","Dissertation, read only version A",BIRD,PENGUIN,ON,B,119,50,Study,User,-,,Study/JOL,"Study Phase",244,,,-1,-1,,,,1
23232,5tuijfzxun,Collector,1,56,2020-03-24T18:44:54+00:00,0.42630696296692,15,versionA_stim.csv,VersionA.csv,"Version A","Dissertation, read only version A",SHEARS,SCISSORS,ON,F,112,46,Study,User,-,,Study/JOL,"Study Phase",231,,,-1,-1,,,,1
23232,5tuijfzxun,Collector,1,57,2020-03-24T18:44:55+00:00,0.45153784751892,15,versionA_stim.csv,VersionA.csv,"Version A","Dissertation, read only version A",ARCHITECTURE,DESIGN,ON,S,51,14,Study,User,-,,Study/JOL,"Study Phase",248,,,-1,-1,,,,1
23232,5tuijfzxun,Collector,1,58,2020-03-24T18:44:55+00:00,0.44524908065796,15,versionA_stim.csv,VersionA.csv,"Version A","Dissertation, read only version A",FURRY,DOG,ON,F,102,37,Study,User,-,,Study/JOL,"Study Phase",234,,,-1,-1,,,,1
23232,5tuijfzxun,Collector,1,59,2020-03-24T18:44:56+00:00,0.44253301620483,15,versionA_stim.csv,VersionA.csv,"Version A","Dissertation, read only version A",PAW,DOG,ON,F,15,79,Study,User,-,,Study/JOL,"Study Phase",192,,,-1,-1,,,,1
23232,5tuijfzxun,Collector,1,60,2020-03-24T18:44:56+00:00,0.45656800270081,15,versionA_stim.csv,VersionA.csv,"Version A","Dissertation, read only version A",HEIGHT,GROWTH,ON,B,30,82,Study,User,-,,Study/JOL,"Study Phase",216,,,-1,-1,,,,1
23232,5tuijfzxun,Collector,1,61,2020-03-24T18:44:57+00:00,0.44349908828735,15,versionA_stim.csv,VersionA.csv,"Version A","Dissertation, read only version A",BATHROOM,TOILET,ON,S,58,28,Study,User,-,,Study/JOL,"Study Phase",211,,,-1,-1,,,,1
23232,5tuijfzxun,Collector,1,62,2020-03-24T18:44:57+00:00,0.4544939994812,15,versionA_stim.csv,VersionA.csv,"Version A","Dissertation, read only version A",FIRE,BLAZE,ON,B,45,16,Study,User,-,,Study/JOL,"Study Phase",231,,,-1,-1,,,,1
23232,5tuijfzxun,Collector,1,63,2020-03-24T18:44:57+00:00,0.43564295768738,15,versionA_stim.csv,VersionA.csv,"Version A","Dissertation, read only version A",INCENSE,SMELL,ON,F,110,45,Study,User,-,,Study/JOL,"Study Phase",198,,,-1,-1,,,,1
23232,5tuijfzxun,Collector,1,64,2020-03-24T18:44:58+00:00,0.42462205886841,15,versionA_stim.csv,VersionA.csv,"Version A","Dissertation, read only version A",MASON,JAR,ON,S,138,27,Study,User,-,,Study/JOL,"Study Phase",148,,,-1,-1,,,,1
23232,5tuijfzxun,Collector,1,65,2020-03-24T18:44:58+00:00,0.41654682159424,15,versionA_stim.csv,VersionA.csv,"Version A","Dissertation, read only version A",PLANE,AIRCRAFT,ON,B,129,25,Study,User,-,,Study/JOL,"Study Phase",189,,,-1,-1,,,,1
23232,5tuijfzxun,Collector,1,66,2020-03-24T18:44:59+00:00,0.44048619270325,15,versionA_stim.csv,VersionA.csv,"Version A","Dissertation, read only version A",MIRROR,CHILDREN,ON,U,174,40,Study,User,-,,Study/JOL,"Study Phase",241,,,-1,-1,,,,1
23232,5tuijfzxun,Collector,1,67,2020-03-24T18:44:59+00:00,0.44447779655457,15,versionA_stim.csv,VersionA.csv,"Version A","Dissertation, read only version A",SENTENCE,WORD,ON,B,31,41,Study,User,-,,Study/JOL,"Study Phase",238,,,-1,-1,,,,1
23232,5tuijfzxun,Collector,1,68,2020-03-24T18:45:00+00:00,0.42969608306885,15,versionA_stim.csv,VersionA.csv,"Version A","Dissertation, read only version A",CAR,WINDSHIELD,ON,B,117,8,Study,User,-,,Study/JOL,"Study Phase",207,,,-1,-1,,,,1
23232,5tuijfzxun,Collector,1,69,2020-03-24T18:45:00+00:00,0.45430111885071,15,versionA_stim.csv,VersionA.csv,"Version A","Dissertation, read only version A",STAR,ACTRESS,ON,B,120,80,Study,User,-,,Study/JOL,"Study Phase",231,,,-1,-1,,,,1
23232,5tuijfzxun,Collector,1,70,2020-03-24T18:45:00+00:00,0.43727898597717,15,versionA_stim.csv,VersionA.csv,"Version A","Dissertation, read only version A",VEHICLE,CHARM,ON,U,160,22,Study,User,-,,Study/JOL,"Study Phase",211,,,-1,-1,,,,1
23232,5tuijfzxun,Collector,1,71,2020-03-24T18:45:01+00:00,0.42247486114502,15,versionA_stim.csv,VersionA.csv,"Version A","Dissertation, read only version A",CACTUS,PLANT,ON,F,98,64,Study,User,-,,Study/JOL,"Study Phase",198,,,-1,-1,,,,1
23232,5tuijfzxun,Collector,1,72,2020-03-24T18:45:01+00:00,0.45815706253052,15,versionA_stim.csv,VersionA.csv,"Version A","Dissertation, read only version A",BALL,RACKET,ON,B,38,23,Study,User,-,,Study/JOL,"Study Phase",257,,,-1,-1,,,,1
23232,5tuijfzxun,Collector,1,73,2020-03-24T18:45:02+00:00,0.40904188156128,15,versionA_stim.csv,VersionA.csv,"Version A","Dissertation, read only version A",LOAN,SIGN,ON,U,171,47,Study,User,-,,Study/JOL,"Study Phase",191,,,-1,-1,,,,1
23232,5tuijfzxun,Collector,1,74,2020-03-24T18:45:02+00:00,0.45563721656799,15,versionA_stim.csv,VersionA.csv,"Version A","Dissertation, read only version A",SCALP,HEAD,ON,F,105,48,Study,User,-,,Study/JOL,"Study Phase",178,,,-1,-1,,,,1
23232,5tuijfzxun,Collector,1,75,2020-03-24T18:45:03+00:00,0.40101099014282,15,versionA_stim.csv,VersionA.csv,"Version A","Dissertation, read only version A",DETECTIVE,MYSTERY,ON,F,100,81,Study,User,-,,Study/JOL,"Study Phase",160,,,-1,-1,,,,1
23232,5tuijfzxun,Collector,1,76,2020-03-24T18:45:03+00:00,0.43259692192078,15,versionA_stim.csv,VersionA.csv,"Version A","Dissertation, read only version A",CHERRY,RED,ON,F,104,43,Study,User,-,,Study/JOL,"Study Phase",204,,,-1,-1,,,,1
23232,5tuijfzxun,Collector,1,77,2020-03-24T18:45:03+00:00,0.39715003967285,15,versionA_stim.csv,VersionA.csv,"Version A","Dissertation, read only version A",LITTER,TRASH,ON,F,103,29,Study,User,-,,Study/JOL,"Study Phase",165,,,-1,-1,,,,1
23232,5tuijfzxun,Collector,1,78,2020-03-24T18:45:04+00:00,0.46326494216919,15,versionA_stim.csv,VersionA.csv,"Version A","Dissertation, read only version A",TAKE,SEIZE,ON,B,29,15,Study,User,-,,Study/JOL,"Study Phase",253,,,-1,-1,,,,1
23232,5tuijfzxun,Collector,1,79,2020-03-24T18:45:04+00:00,0.43563508987427,15,versionA_stim.csv,VersionA.csv,"Version A","Dissertation, read only version A",SUN,TAN,ON,S,155,74,Study,User,-,,Study/JOL,"Study Phase",223,,,-1,-1,,,,1
23232,5tuijfzxun,Collector,1,80,2020-03-24T18:45:05+00:00,0.41947984695435,15,versionA_stim.csv,VersionA.csv,"Version A","Dissertation, read only version A",Shell,SHAKE,ON,U,163,53,Study,User,-,,Study/JOL,"Study Phase",203,,,-1,-1,,,,1
23232,5tuijfzxun,Collector,1,81,2020-03-24T18:45:05+00:00,0.41479802131653,15,versionA_stim.csv,VersionA.csv,"Version A","Dissertation, read only version A",CLOTHES,ATTIRE,ON,B,43,51,Study,User,-,,Study/JOL,"Study Phase",201,,,-1,-1,,,,1
23232,5tuijfzxun,Collector,1,82,2020-03-24T18:45:06+00:00,0.42415404319763,15,versionA_stim.csv,VersionA.csv,"Version A","Dissertation, read only version A",LIFT,WOMAN,ON,U,69,68,Study,User,-,,Study/JOL,"Study Phase",211,,,-1,-1,,,,1
23232,5tuijfzxun,Collector,1,83,2020-03-24T18:45:06+00:00,0.42193388938904,15,versionA_stim.csv,VersionA.csv,"Version A","Dissertation, read only version A",STRONG,ACCIDENT,ON,U,80,73,Study,User,-,,Study/JOL,"Study Phase",201,,,-1,-1,,,,1
23232,5tuijfzxun,Collector,1,84,2020-03-24T18:45:06+00:00,0.46714019775391,15,versionA_stim.csv,VersionA.csv,"Version A","Dissertation, read only version A",SLEEP,NAP,ON,B,134,52,Study,User,-,,Study/JOL,"Study Phase",258,,,-1,-1,,,,1
23232,5tuijfzxun,Collector,1,85,2020-03-24T18:45:07+00:00,0.41712498664856,15,versionA_stim.csv,VersionA.csv,"Version A","Dissertation, read only version A",DEAD,COFFIN,ON,B,128,32,Study,User,-,,Study/JOL,"Study Phase",189,,,-1,-1,,,,1
23232,5tuijfzxun,Collector,1,86,2020-03-24T18:45:07+00:00,0.46940302848816,15,versionA_stim.csv,VersionA.csv,"Version A","Dissertation, read only version A",ELEMENT,CARBON,ON,S,141,63,Study,User,-,,Study/JOL,"Study Phase",244,,,-1,-1,,,,1
23232,5tuijfzxun,Collector,1,87,2020-03-24T18:45:08+00:00,0.48914694786072,15,versionA_stim.csv,VersionA.csv,"Version A","Dissertation, read only version A",MOON,SPACE,OFF,Buffer,89,90,Study,User,-,,Study/JOL,BUFFER2,267,,,-1,-1,,,,1
23232,5tuijfzxun,Collector,1,88,2020-03-24T18:45:08+00:00,0.44217801094055,15,versionA_stim.csv,VersionA.csv,"Version A","Dissertation, read only version A",SHERRIF,POLICE,OFF,Buffer,87,88,Study,User,-,,Study/JOL,BUFFER2,222,,,-1,-1,,,,1
23232,5tuijfzxun,Collector,1,89,2020-03-24T18:45:09+00:00,0.48682594299316,15,versionA_stim.csv,VersionA.csv,"Version A","Dissertation, read only version A",MALT,CHOCOLATE,OFF,Buffer,88,89,Study,User,-,,Study/JOL,BUFFER2,261,,,-1,-1,,,,1
23232,5tuijfzxun,Collector,1,90,2020-03-24T18:45:09+00:00,0.46456503868103,15,versionA_stim.csv,VersionA.csv,"Version A","Dissertation, read only version A",THING,STUFF,OFF,Buffer,90,91,Study,User,-,,Study/JOL,BUFFER2,248,,,-1,-1,,,,1
23232,5tuijfzxun,Collector,1,91,2020-03-24T18:45:10+00:00,0.47265601158142,15,versionA_stim.csv,VersionA.csv,"Version A","Dissertation, read only version A",GEESE,GOOSE,OFF,Buffer,86,87,Study,User,-,,Study/JOL,BUFFER2,268,,,-1,-1,,,,1
23232,5tuijfzxun,Collector,1,92,2020-03-24T18:45:15+00:00,4.8355128765106,15,versionA_stim.csv,VersionA.csv,"Version A","Dissertation, read only version A",,,,,,0,Instruct,User,-,"You have completed this section. Please press Enter.",Filler_Instruction,Instruct2,4611,,,-1,-1,,,,1
23232,5tuijfzxun,Collector,1,93,2020-03-24T18:47:15+00:00,120.51098799706,15,versionA_stim.csv,VersionA.csv,"Version A","Dissertation, read only version A",,,,,,0,FreeRecall,120,120,"Please list the 50 US states in alphabetical order. The task will automatically advance to the next screen after two minutes.",,Filler1,120275,,0,-1,-1,0,0,,0.148
23232,5tuijfzxun,Collector,1,94,2020-03-24T18:48:48+00:00,92.633785009384,15,versionA_stim.csv,VersionA.csv,"Version A","Dissertation, read only version A",,,,,,0,Instruct,-,10,"You will now be presented with the first word from each of the previously studied item pairs. Please type the missing word. If you do not know the word, you may guess or press Enter to skip forward to the next pair.",,Instruct3,91953,,,-1,-1,,,,0.343
23232,5tuijfzxun,Collector,1,95,2020-03-24T18:48:49+00:00,1.2890260219574,15,versionA_stim.csv,VersionA.csv,"Version A","Dissertation, read only version A",DUMP,WASTE,ON,S,49,84,Test,User,-,,Recall,Recall1,1038,,0,-1,-1,0,0,,1
23232,5tuijfzxun,Collector,1,96,2020-03-24T18:48:49+00:00,0.48496699333191,15,versionA_stim.csv,VersionA.csv,"Version A","Dissertation, read only version A",STRONG,ACCIDENT,ON,U,80,73,Test,User,-,,Recall,Recall1,266,,0,-1,-1,0,0,,1
23232,5tuijfzxun,Collector,1,97,2020-03-24T18:48:50+00:00,0.44615793228149,15,versionA_stim.csv,VersionA.csv,"Version A","Dissertation, read only version A",VEHICLE,CHARM,ON,U,160,22,Test,User,-,,Recall,Recall1,229,,0,-1,-1,0,0,,1
23232,5tuijfzxun,Collector,1,98,2020-03-24T18:48:50+00:00,0.36199021339417,15,versionA_stim.csv,VersionA.csv,"Version A","Dissertation, read only version A",SMELL,STENCH,ON,B,42,66,Test,User,-,,Recall,Recall1,117,,0,-1,-1,0,0,,1
23232,5tuijfzxun,Collector,1,99,2020-03-24T18:48:51+00:00,0.39556884765625,15,versionA_stim.csv,VersionA.csv,"Version A","Dissertation, read only version A",ALLOW,TUCK,ON,U,78,77,Test,User,-,,Recall,Recall1,168,,0,-1,-1,0,0,,1
23232,5tuijfzxun,Collector,1,100,2020-03-24T18:48:51+00:00,0.41993999481201,15,versionA_stim.csv,VersionA.csv,"Version A","Dissertation, read only version A",MATH,DIVISION,ON,B,33,57,Test,User,-,,Recall,Recall1,179,,0,-1,-1,0,0,,1
23232,5tuijfzxun,Collector,1,101,2020-03-24T18:48:52+00:00,0.47393798828125,15,versionA_stim.csv,VersionA.csv,"Version A","Dissertation, read only version A",DRINK,SIP,ON,B,27,86,Test,User,-,,Recall,Recall1,246,,0,-1,-1,0,0,,1
23232,5tuijfzxun,Collector,1,102,2020-03-24T18:48:52+00:00,0.41914415359497,15,versionA_stim.csv,VersionA.csv,"Version A","Dissertation, read only version A",BRIDGE,WATER,ON,F,18,62,Test,User,-,,Recall,Recall1,212,,0,-1,-1,0,0,,1
23232,5tuijfzxun,Collector,1,103,2020-03-24T18:48:52+00:00,0.40721702575684,15,versionA_stim.csv,VersionA.csv,"Version A","Dissertation, read only version A",EARTH,GROUND,ON,S,144,71,Test,User,-,,Recall,Recall1,190,,0,-1,-1,0,0,,1
23232,5tuijfzxun,Collector,1,104,2020-03-24T18:48:53+00:00,0.46931791305542,15,versionA_stim.csv,VersionA.csv,"Version A","Dissertation, read only version A",HONEY,BEE,ON,S,63,59,Test,User,-,,Recall,Recall1,254,,0,-1,-1,0,0,,1
23232,5tuijfzxun,Collector,1,105,2020-03-24T18:48:53+00:00,0.42189908027649,15,versionA_stim.csv,VersionA.csv,"Version A","Dissertation, read only version A",SHEARS,SCISSORS,ON,F,112,46,Test,User,-,,Recall,Recall1,205,,0,-1,-1,0,0,,1
23232,5tuijfzxun,Collector,1,106,2020-03-24T18:48:54+00:00,0.3956937789917,15,versionA_stim.csv,VersionA.csv,"Version A","Dissertation, read only version A",DUE,ASSIGNMENT,ON,S,46,34,Test,User,-,,Recall,Recall1,175,,0,-1,-1,0,0,,1
23232,5tuijfzxun,Collector,1,107,2020-03-24T18:48:54+00:00,0.47944808006287,15,versionA_stim.csv,VersionA.csv,"Version A","Dissertation, read only version A",LAW,ATTORNEY,ON,B,34,10,Test,User,-,,Recall,Recall1,260,,0,-1,-1,0,0,,1
23232,5tuijfzxun,Collector,1,108,2020-03-24T18:48:55+00:00,0.40383505821228,15,versionA_stim.csv,VersionA.csv,"Version A","Dissertation, read only version A",MIRROR,CHILDREN,ON,U,174,40,Test,User,-,,Recall,Recall1,159,,0,-1,-1,0,0,,1
23232,5tuijfzxun,Collector,1,109,2020-03-24T18:48:55+00:00,0.43799185752869,15,versionA_stim.csv,VersionA.csv,"Version A","Dissertation, read only version A",RAZOR,SHAVE,ON,S,136,58,Test,User,-,,Recall,Recall1,220,,0,-1,-1,0,0,,1
23232,5tuijfzxun,Collector,1,110,2020-03-24T18:48:55+00:00,0.434002161026,15,versionA_stim.csv,VersionA.csv,"Version A","Dissertation, read only version A",PAW,DOG,ON,F,15,79,Test,User,-,,Recall,Recall1,226,,0,-1,-1,0,0,,1
23232,5tuijfzxun,Collector,1,111,2020-03-24T18:48:56+00:00,0.48479390144348,15,versionA_stim.csv,VersionA.csv,"Version A","Dissertation, read only version A",TURN,FLIP,ON,B,116,85,Test,User,-,,Recall,Recall1,264,,0,-1,-1,0,0,,1
23232,5tuijfzxun,Collector,1,112,2020-03-24T18:48:56+00:00,0.40977716445923,15,versionA_stim.csv,VersionA.csv,"Version A","Dissertation, read only version A",ELEMENT,CARBON,ON,S,141,63,Test,User,-,,Recall,Recall1,194,,0,-1,-1,0,0,,1
23232,5tuijfzxun,Collector,1,113,2020-03-24T18:48:57+00:00,0.45981478691101,15,versionA_stim.csv,VersionA.csv,"Version A","Dissertation, read only version A",FIRE,BLAZE,ON,B,45,16,Test,User,-,,Recall,Recall1,222,,0,-1,-1,0,0,,1
23232,5tuijfzxun,Collector,1,114,2020-03-24T18:48:57+00:00,0.4024760723114,15,versionA_stim.csv,VersionA.csv,"Version A","Dissertation, read only version A",FURRY,DOG,ON,F,102,37,Test,User,-,,Recall,Recall1,179,,0,-1,-1,0,0,,1
23232,5tuijfzxun,Collector,1,115,2020-03-24T18:48:58+00:00,0.44394898414612,15,versionA_stim.csv,VersionA.csv,"Version A","Dissertation, read only version A",LITTER,TRASH,ON,F,103,29,Test,User,-,,Recall,Recall1,217,,0,-1,-1,0,0,,1
23232,5tuijfzxun,Collector,1,116,2020-03-24T18:48:58+00:00,0.42280411720276,15,versionA_stim.csv,VersionA.csv,"Version A","Dissertation, read only version A",MACHINE,POSITION,ON,U,76,72,Test,User,-,,Recall,Recall1,207,,0,-1,-1,0,0,,1
23232,5tuijfzxun,Collector,1,117,2020-03-24T18:48:59+00:00,0.44199085235596,15,versionA_stim.csv,VersionA.csv,"Version A","Dissertation, read only version A",DRY,WET,ON,S,146,69,Test,User,-,,Recall,Recall1,145,,0,-1,-1,0,0,,1
23232,5tuijfzxun,Collector,1,118,2020-03-24T18:48:59+00:00,0.42763113975525,15,versionA_stim.csv,VersionA.csv,"Version A","Dissertation, read only version A",BIRD,PENGUIN,ON,B,119,50,Test,User,-,,Recall,Recall1,198,,0,-1,-1,0,0,,1
23232,5tuijfzxun,Collector,1,119,2020-03-24T18:48:59+00:00,0.40545988082886,15,versionA_stim.csv,VersionA.csv,"Version A","Dissertation, read only version A",ARTERY,BRONZE,ON,U,74,33,Test,User,-,,Recall,Recall1,193,,0,-1,-1,0,0,,1
23232,5tuijfzxun,Collector,1,120,2020-03-24T18:49:00+00:00,0.43587899208069,15,versionA_stim.csv,VersionA.csv,"Version A","Dissertation, read only version A",DEAD,COFFIN,ON,B,128,32,Test,User,-,,Recall,Recall1,229,,0,-1,-1,0,0,,1
23232,5tuijfzxun,Collector,1,121,2020-03-24T18:49:00+00:00,0.4546639919281,15,versionA_stim.csv,VersionA.csv,"Version A","Dissertation, read only version A",CACTUS,PLANT,ON,F,98,64,Test,User,-,,Recall,Recall1,182,,0,-1,-1,0,0,,1
23232,5tuijfzxun,Collector,1,122,2020-03-24T18:49:01+00:00,0.41415500640869,15,versionA_stim.csv,VersionA.csv,"Version A","Dissertation, read only version A",KING,VASE,ON,U,85,61,Test,User,-,,Recall,Recall1,158,,0,-1,-1,0,0,,1
23232,5tuijfzxun,Collector,1,123,2020-03-24T18:49:01+00:00,0.42840504646301,15,versionA_stim.csv,VersionA.csv,"Version A","Dissertation, read only version A",HONEST,TRUTHFUL,ON,B,133,17,Test,User,-,,Recall,Recall1,177,,0,-1,-1,0,0,,1
23232,5tuijfzxun,Collector,1,124,2020-03-24T18:49:01+00:00,0.40605401992798,15,versionA_stim.csv,VersionA.csv,"Version A","Dissertation, read only version A",ARCHITECTURE,DESIGN,ON,S,51,14,Test,User,-,,Recall,Recall1,188,,0,-1,-1,0,0,,1
23232,5tuijfzxun,Collector,1,125,2020-03-24T18:49:02+00:00,0.40850591659546,15,versionA_stim.csv,VersionA.csv,"Version A","Dissertation, read only version A",INCENSE,SMELL,ON,F,110,45,Test,User,-,,Recall,Recall1,147,,0,-1,-1,0,0,,1
23232,5tuijfzxun,Collector,1,126,2020-03-24T18:49:02+00:00,0.38724207878113,15,versionA_stim.csv,VersionA.csv,"Version A","Dissertation, read only version A",REVOLUTION,WAR,ON,F,20,65,Test,User,-,,Recall,Recall1,132,,0,-1,-1,0,0,,1
23232,5tuijfzxun,Collector,1,127,2020-03-24T18:49:03+00:00,0.41712594032288,15,versionA_stim.csv,VersionA.csv,"Version A","Dissertation, read only version A",ALONE,LONELY,ON,S,145,56,Test,User,-,,Recall,Recall1,199,,0,-1,-1,0,0,,1
23232,5tuijfzxun,Collector,1,128,2020-03-24T18:49:03+00:00,0.44780516624451,15,versionA_stim.csv,VersionA.csv,"Version A","Dissertation, read only version A",POP,SODA,ON,S,56,39,Test,User,-,,Recall,Recall1,211,,0,-1,-1,0,0,,1
23232,5tuijfzxun,Collector,1,129,2020-03-24T18:49:04+00:00,0.49271082878113,15,versionA_stim.csv,VersionA.csv,"Version A","Dissertation, read only version A",PHONE,COMMUNICATION,ON,S,149,19,Test,User,-,,Recall,Recall1,272,,0,-1,-1,0,0,,1
23232,5tuijfzxun,Collector,1,130,2020-03-24T18:49:04+00:00,0.46382617950439,15,versionA_stim.csv,VersionA.csv,"Version A","Dissertation, read only version A",DISCOVER,FLOOR,ON,U,71,12,Test,User,-,,Recall,Recall1,250,,0,-1,-1,0,0,,1
23232,5tuijfzxun,Collector,1,131,2020-03-24T18:49:05+00:00,0.6904239654541,15,versionA_stim.csv,VersionA.csv,"Version A","Dissertation, read only version A",MASON,JAR,ON,S,138,27,Test,User,-,,Recall,Recall1,471,,0,-1,-1,0,0,,1
23232,5tuijfzxun,Collector,1,132,2020-03-24T18:49:05+00:00,0.43297100067139,15,versionA_stim.csv,VersionA.csv,"Version A","Dissertation, read only version A",CLOTHES,ATTIRE,ON,B,43,51,Test,User,-,,Recall,Recall1,209,,0,-1,-1,0,0,,1
23232,5tuijfzxun,Collector,1,133,2020-03-24T18:49:06+00:00,0.39128494262695,15,versionA_stim.csv,VersionA.csv,"Version A","Dissertation, read only version A",PLANE,AIRCRAFT,ON,B,129,25,Test,User,-,,Recall,Recall1,177,,0,-1,-1,0,0,,1
23232,5tuijfzxun,Collector,1,134,2020-03-24T18:49:06+00:00,0.40728998184204,15,versionA_stim.csv,VersionA.csv,"Version A","Dissertation, read only version A",BAD,VILLAIN,ON,B,118,11,Test,User,-,,Recall,Recall1,134,,0,-1,-1,0,0,,1
23232,5tuijfzxun,Collector,1,135,2020-03-24T18:49:06+00:00,0.40925598144531,15,versionA_stim.csv,VersionA.csv,"Version A","Dissertation, read only version A",ART,LION,ON,U,79,54,Test,User,-,,Recall,Recall1,170,,0,-1,-1,0,0,,1
23232,5tuijfzxun,Collector,1,136,2020-03-24T18:49:07+00:00,0.49512696266174,15,versionA_stim.csv,VersionA.csv,"Version A","Dissertation, read only version A",LOUD,NOISE,ON,S,152,83,Test,User,-,,Recall,Recall1,263,,0,-1,-1,0,0,,1
23232,5tuijfzxun,Collector,1,137,2020-03-24T18:49:07+00:00,0.35753607749939,15,versionA_stim.csv,VersionA.csv,"Version A","Dissertation, read only version A",DISCUSSION,TALK,ON,F,21,67,Test,User,-,,Recall,Recall1,112,,0,-1,-1,0,0,,1
23232,5tuijfzxun,Collector,1,138,2020-03-24T18:49:08+00:00,0.43667507171631,15,versionA_stim.csv,VersionA.csv,"Version A","Dissertation, read only version A",WORK,CHORE,ON,B,39,20,Test,User,-,,Recall,Recall1,219,,0,-1,-1,0,0,,1
23232,5tuijfzxun,Collector,1,139,2020-03-24T18:49:08+00:00,0.40120983123779,15,versionA_stim.csv,VersionA.csv,"Version A","Dissertation, read only version A",PLANE,PILOT,ON,B,44,13,Test,User,-,,Recall,Recall1,163,,0,-1,-1,0,0,,1
23232,5tuijfzxun,Collector,1,140,2020-03-24T18:49:09+00:00,0.43240714073181,15,versionA_stim.csv,VersionA.csv,"Version A","Dissertation, read only version A",CHERRY,RED,ON,F,104,43,Test,User,-,,Recall,Recall1,219,,0,-1,-1,0,0,,1
23232,5tuijfzxun,Collector,1,141,2020-03-24T18:49:09+00:00,0.4244589805603,15,versionA_stim.csv,VersionA.csv,"Version A","Dissertation, read only version A",DETECTIVE,MYSTERY,ON,F,100,81,Test,User,-,,Recall,Recall1,217,,0,-1,-1,0,0,,1
23232,5tuijfzxun,Collector,1,142,2020-03-24T18:49:09+00:00,0.44805192947388,15,versionA_stim.csv,VersionA.csv,"Version A","Dissertation, read only version A",GIVE,STEAK,ON,U,158,18,Test,User,-,,Recall,Recall1,232,,0,-1,-1,0,0,,1
23232,5tuijfzxun,Collector,1,143,2020-03-24T18:49:10+00:00,0.46143794059753,15,versionA_stim.csv,VersionA.csv,"Version A","Dissertation, read only version A",WATER,DRINK,ON,S,143,31,Test,User,-,,Recall,Recall1,255,,0,-1,-1,0,0,,1
23232,5tuijfzxun,Collector,1,144,2020-03-24T18:49:10+00:00,0.50774097442627,15,versionA_stim.csv,VersionA.csv,"Version A","Dissertation, read only version A",LIFT,WOMAN,ON,U,69,68,Test,User,-,,Recall,Recall1,230,,0,-1,-1,0,0,,1
23232,5tuijfzxun,Collector,1,145,2020-03-24T18:49:13+00:00,2.6303751468658,15,versionA_stim.csv,VersionA.csv,"Version A","Dissertation, read only version A",BUG,WASP,ON,B,32,36,Test,User,-,,Recall,Recall1,437,,0,-1,-1,0,0,,1
23232,5tuijfzxun,Collector,1,146,2020-03-24T18:49:13+00:00,0.43791890144348,15,versionA_stim.csv,VersionA.csv,"Version A","Dissertation, read only version A",WAGE,MONEY,ON,F,8,38,Test,User,-,,Recall,Recall1,198,,0,-1,-1,0,0,,1
23232,5tuijfzxun,Collector,1,147,2020-03-24T18:49:14+00:00,0.44674611091614,15,versionA_stim.csv,VersionA.csv,"Version A","Dissertation, read only version A",ADJOURN,END,ON,F,101,76,Test,User,-,,Recall,Recall1,202,,0,-1,-1,0,0,,1
23232,5tuijfzxun,Collector,1,148,2020-03-24T18:49:14+00:00,0.53082704544067,15,versionA_stim.csv,VersionA.csv,"Version A","Dissertation, read only version A",SAFETY,SEATBELT,ON,S,147,70,Test,User,-,,Recall,Recall1,221,,0,-1,-1,0,0,,1
23232,5tuijfzxun,Collector,1,149,2020-03-24T18:49:15+00:00,0.46115398406982,15,versionA_stim.csv,VersionA.csv,"Version A","Dissertation, read only version A",SLEEP,NAP,ON,B,134,52,Test,User,-,,Recall,Recall1,234,,0,-1,-1,0,0,,1
23232,5tuijfzxun,Collector,1,150,2020-03-24T18:49:15+00:00,0.42066884040833,15,versionA_stim.csv,VersionA.csv,"Version A","Dissertation, read only version A",THREAD,THIMBLE,ON,B,121,49,Test,User,-,,Recall,Recall1,209,,0,-1,-1,0,0,,1
23232,5tuijfzxun,Collector,1,151,2020-03-24T18:49:16+00:00,0.43013095855713,15,versionA_stim.csv,VersionA.csv,"Version A","Dissertation, read only version A",DEBATE,SIGHT,ON,U,73,35,Test,User,-,,Recall,Recall1,215,,0,-1,-1,0,0,,1
23232,5tuijfzxun,Collector,1,152,2020-03-24T18:49:16+00:00,0.47979211807251,15,versionA_stim.csv,VersionA.csv,"Version A","Dissertation, read only version A",AFFECTION,LOVE,ON,F,115,60,Test,User,-,,Recall,Recall1,262,,0,-1,-1,0,0,,1
23232,5tuijfzxun,Collector,1,153,2020-03-24T18:49:17+00:00,0.51350998878479,15,versionA_stim.csv,VersionA.csv,"Version A","Dissertation, read only version A",TAKE,SEIZE,ON,B,29,15,Test,User,-,,Recall,Recall1,260,,0,-1,-1,0,0,,1
23232,5tuijfzxun,Collector,1,154,2020-03-24T18:49:17+00:00,0.42880392074585,15,versionA_stim.csv,VersionA.csv,"Version A","Dissertation, read only version A",SCALP,HEAD,ON,F,105,48,Test,User,-,,Recall,Recall1,170,,0,-1,-1,0,0,,1
23232,5tuijfzxun,Collector,1,155,2020-03-24T18:49:18+00:00,0.46539711952209,15,versionA_stim.csv,VersionA.csv,"Version A","Dissertation, read only version A",CAR,WINDSHIELD,ON,B,117,8,Test,User,-,,Recall,Recall1,239,,0,-1,-1,0,0,,1
23232,5tuijfzxun,Collector,1,156,2020-03-24T18:49:18+00:00,0.40590286254883,15,versionA_stim.csv,VersionA.csv,"Version A","Dissertation, read only version A",DOCUMENT,PAPER,ON,F,109,7,Test,User,-,,Recall,Recall1,192,,0,-1,-1,0,0,,1
23232,5tuijfzxun,Collector,1,157,2020-03-24T18:49:18+00:00,0.42186522483826,15,versionA_stim.csv,VersionA.csv,"Version A","Dissertation, read only version A",DELINQUENT,BAD,ON,F,6,42,Test,User,-,,Recall,Recall1,196,,0,-1,-1,0,0,,1
23232,5tuijfzxun,Collector,1,158,2020-03-24T18:49:19+00:00,0.46181297302246,15,versionA_stim.csv,VersionA.csv,"Version A","Dissertation, read only version A",PAST,FUTURE,ON,S,61,26,Test,User,-,,Recall,Recall1,216,,0,-1,-1,0,0,,1
23232,5tuijfzxun,Collector,1,159,2020-03-24T18:49:19+00:00,0.4209578037262,15,versionA_stim.csv,VersionA.csv,"Version A","Dissertation, read only version A",FRUIT,STRAWBERRY,ON,B,124,78,Test,User,-,,Recall,Recall1,204,,0,-1,-1,0,0,,1
23232,5tuijfzxun,Collector,1,160,2020-03-24T18:49:20+00:00,0.50712203979492,15,versionA_stim.csv,VersionA.csv,"Version A","Dissertation, read only version A",CAKE,CLOTHES,ON,U,166,75,Test,User,-,,Recall,Recall1,294,,0,-1,-1,0,0,,1
23232,5tuijfzxun,Collector,1,161,2020-03-24T18:49:20+00:00,0.51527404785156,15,versionA_stim.csv,VersionA.csv,"Version A","Dissertation, read only version A",Shell,SHAKE,ON,U,163,53,Test,User,-,,Recall,Recall1,294,,0,-1,-1,0,0,,1
23232,5tuijfzxun,Collector,1,162,2020-03-24T18:49:21+00:00,0.45363712310791,15,versionA_stim.csv,VersionA.csv,"Version A","Dissertation, read only version A",LOAN,SIGN,ON,U,171,47,Test,User,-,,Recall,Recall1,175,,0,-1,-1,0,0,,1
23232,5tuijfzxun,Collector,1,163,2020-03-24T18:49:21+00:00,0.38550281524658,15,versionA_stim.csv,VersionA.csv,"Version A","Dissertation, read only version A",DRIVER,CAR,ON,F,106,24,Test,User,-,,Recall,Recall1,56,,0,-1,-1,0,0,,1
23232,5tuijfzxun,Collector,1,164,2020-03-24T18:49:22+00:00,0.4955461025238,15,versionA_stim.csv,VersionA.csv,"Version A","Dissertation, read only version A",SUN,TAN,ON,S,155,74,Test,User,-,,Recall,Recall1,259,,0,-1,-1,0,0,,1
23232,5tuijfzxun,Collector,1,165,2020-03-24T18:49:22+00:00,0.42006492614746,15,versionA_stim.csv,VersionA.csv,"Version A","Dissertation, read only version A",STAR,ACTRESS,ON,B,120,80,Test,User,-,,Recall,Recall1,185,,0,-1,-1,0,0,,1
23232,5tuijfzxun,Collector,1,166,2020-03-24T18:49:23+00:00,0.42537117004395,15,versionA_stim.csv,VersionA.csv,"Version A","Dissertation, read only version A",BALL,RACKET,ON,B,38,23,Test,User,-,,Recall,Recall1,187,,0,-1,-1,0,0,,1
23232,5tuijfzxun,Collector,1,167,2020-03-24T18:49:23+00:00,0.39647889137268,15,versionA_stim.csv,VersionA.csv,"Version A","Dissertation, read only version A",HEIGHT,GROWTH,ON,B,30,82,Test,User,-,,Recall,Recall1,120,,0,-1,-1,0,0,,1
23232,5tuijfzxun,Collector,1,168,2020-03-24T18:49:23+00:00,0.43605089187622,15,versionA_stim.csv,VersionA.csv,"Version A","Dissertation, read only version A",RIGHTS,EQUAL,ON,S,137,21,Test,User,-,,Recall,Recall1,213,,0,-1,-1,0,0,,1
23232,5tuijfzxun,Collector,1,169,2020-03-24T18:49:24+00:00,0.42113900184631,15,versionA_stim.csv,VersionA.csv,"Version A","Dissertation, read only version A",BEST,FAVORITE,ON,B,125,44,Test,User,-,,Recall,Recall1,216,,0,-1,-1,0,0,,1
23232,5tuijfzxun,Collector,1,170,2020-03-24T18:49:24+00:00,0.44913816452026,15,versionA_stim.csv,VersionA.csv,"Version A","Dissertation, read only version A",SENTENCE,WORD,ON,B,31,41,Test,User,-,,Recall,Recall1,228,,0,-1,-1,0,0,,1
23232,5tuijfzxun,Collector,1,171,2020-03-24T18:49:25+00:00,0.40546298027039,15,versionA_stim.csv,VersionA.csv,"Version A","Dissertation, read only version A",KIDNEY,LIVER,ON,S,53,9,Test,User,-,,Recall,Recall1,185,,0,-1,-1,0,0,,1
23232,5tuijfzxun,Collector,1,172,2020-03-24T18:49:25+00:00,0.42285990715027,15,versionA_stim.csv,VersionA.csv,"Version A","Dissertation, read only version A",DIETARY,SACKING,ON,U,67,30,Test,User,-,,Recall,Recall1,191,,0,-1,-1,0,0,,1
23232,5tuijfzxun,Collector,1,173,2020-03-24T18:49:25+00:00,0.41156411170959,15,versionA_stim.csv,VersionA.csv,"Version A","Dissertation, read only version A",FULL,ENOUGH,ON,B,26,55,Test,User,-,,Recall,Recall1,182,,0,-1,-1,0,0,,1
23232,5tuijfzxun,Collector,1,174,2020-03-24T18:49:26+00:00,0.42602181434631,15,versionA_stim.csv,VersionA.csv,"Version A","Dissertation, read only version A",BATHROOM,TOILET,ON,S,58,28,Test,User,-,,Recall,Recall1,174,,0,-1,-1,0,0,,1
23232,5tuijfzxun,Collector,1,175,2020-03-24T18:50:17+00:00,50.810448169708,15,versionA_stim.csv,VersionA.csv,"Version A","Dissertation, read only version A",,,,,,0,Instruct,-,10,"Please study each of the following word pairs. Remember that your memory will be tested! When finished, press Enter to move to the next pair.",Initial_Instruct,Instruct4,50527,,,-1,-1,,,,0.187
23232,5tuijfzxun,Collector,1,176,2020-03-24T18:50:17+00:00,0.70447492599487,15,versionA_stim.csv,VersionA.csv,"Version A","Dissertation, read only version A",NOODLE,STRING,OFF,Buffer,92,93,Study,User,-,,Study/JOL,BUFFER3,438,,,-1,-1,,,,1
23232,5tuijfzxun,Collector,1,177,2020-03-24T18:50:18+00:00,0.35600304603577,15,versionA_stim.csv,VersionA.csv,"Version A","Dissertation, read only version A",SHRIMP,FISH,OFF,Buffer,93,94,Study,User,-,,Study/JOL,BUFFER3,118,,,-1,-1,,,,1
23232,5tuijfzxun,Collector,1,178,2020-03-24T18:50:18+00:00,0.37113499641418,15,versionA_stim.csv,VersionA.csv,"Version A","Dissertation, read only version A",CAMP,ADVENTURE,OFF,Buffer,95,96,Study,User,-,,Study/JOL,BUFFER3,153,,,-1,-1,,,,1
23232,5tuijfzxun,Collector,1,179,2020-03-24T18:50:19+00:00,0.37674808502197,15,versionA_stim.csv,VersionA.csv,"Version A","Dissertation, read only version A",CARROT,POTATO,OFF,Buffer,91,92,Study,User,-,,Study/JOL,BUFFER3,145,,,-1,-1,,,,1
23232,5tuijfzxun,Collector,1,180,2020-03-24T18:50:19+00:00,0.36896395683289,15,versionA_stim.csv,VersionA.csv,"Version A","Dissertation, read only version A",ICE,FROZEN,OFF,Buffer,94,95,Study,User,-,,Study/JOL,BUFFER3,148,,,-1,-1,,,,1
23232,5tuijfzxun,Collector,1,181,2020-03-24T18:50:19+00:00,0.37278294563293,15,versionA_stim.csv,VersionA.csv,"Version A","Dissertation, read only version A",BABY,CHILD,ON,S,64,146,Study,User,-,,Study/JOL,"Study Phase2",166,,,-1,-1,,,,1
23232,5tuijfzxun,Collector,1,182,2020-03-24T18:50:20+00:00,0.38891005516052,15,versionA_stim.csv,VersionA.csv,"Version A","Dissertation, read only version A",GONE,AWAY,ON,S,142,112,Study,User,-,,Study/JOL,"Study Phase2",147,,,-1,-1,,,,1
23232,5tuijfzxun,Collector,1,183,2020-03-24T18:50:20+00:00,0.3824360370636,15,versionA_stim.csv,VersionA.csv,"Version A","Dissertation, read only version A",GEOLOGY,ROCK,ON,F,19,158,Study,User,-,,Study/JOL,"Study Phase2",128,,,-1,-1,,,,1
23232,5tuijfzxun,Collector,1,184,2020-03-24T18:50:20+00:00,0.41804885864258,15,versionA_stim.csv,VersionA.csv,"Version A","Dissertation, read only version A",NAME,HATE,ON,U,167,165,Study,User,-,,Study/JOL,"Study Phase2",172,,,-1,-1,,,,1
23232,5tuijfzxun,Collector,1,185,2020-03-24T18:50:21+00:00,0.39851093292236,15,versionA_stim.csv,VersionA.csv,"Version A","Dissertation, read only version A",KEY,LATCH,ON,B,36,107,Study,User,-,,Study/JOL,"Study Phase2",185,,,-1,-1,,,,1
23232,5tuijfzxun,Collector,1,186,2020-03-24T18:50:21+00:00,0.39464020729065,15,versionA_stim.csv,VersionA.csv,"Version A","Dissertation, read only version A",TEMPERATURE,Morning,ON,U,173,139,Study,User,-,,Study/JOL,"Study Phase2",185,,,-1,-1,,,,1
23232,5tuijfzxun,Collector,1,187,2020-03-24T18:50:22+00:00,0.41802096366882,15,versionA_stim.csv,VersionA.csv,"Version A","Dissertation, read only version A",TRUTH,LIE,ON,S,148,162,Study,User,-,,Study/JOL,"Study Phase2",172,,,-1,-1,,,,1
23232,5tuijfzxun,Collector,1,188,2020-03-24T18:50:22+00:00,0.36961197853088,15,versionA_stim.csv,VersionA.csv,"Version A","Dissertation, read only version A",SHOELACE,TIE,ON,F,99,117,Study,User,-,,Study/JOL,"Study Phase2",127,,,-1,-1,,,,1
23232,5tuijfzxun,Collector,1,189,2020-03-24T18:50:22+00:00,0.41043591499329,15,versionA_stim.csv,VersionA.csv,"Version A","Dissertation, read only version A",HERD,COW,ON,F,22,109,Study,User,-,,Study/JOL,"Study Phase2",197,,,-1,-1,,,,1
23232,5tuijfzxun,Collector,1,190,2020-03-24T18:50:23+00:00,0.38699102401733,15,versionA_stim.csv,VersionA.csv,"Version A","Dissertation, read only version A",CHILL,COLD,ON,F,114,133,Study,User,-,,Study/JOL,"Study Phase2",174,,,-1,-1,,,,1
23232,5tuijfzxun,Collector,1,191,2020-03-24T18:50:23+00:00,0.39752197265625,15,versionA_stim.csv,VersionA.csv,"Version A","Dissertation, read only version A",MONEY,BANKER,ON,B,132,121,Study,User,-,,Study/JOL,"Study Phase2",177,,,-1,-1,,,,1
23232,5tuijfzxun,Collector,1,192,2020-03-24T18:50:24+00:00,0.38651299476624,15,versionA_stim.csv,VersionA.csv,"Version A","Dissertation, read only version A",FIGHT,BRAWL,ON,B,135,161,Study,User,-,,Study/JOL,"Study Phase2",170,,,-1,-1,,,,1
23232,5tuijfzxun,Collector,1,193,2020-03-24T18:50:24+00:00,0.39974808692932,15,versionA_stim.csv,VersionA.csv,"Version A","Dissertation, read only version A",CASH,WOULD,ON,U,83,122,Study,User,-,,Study/JOL,"Study Phase2",190,,,-1,-1,,,,1
23232,5tuijfzxun,Collector,1,194,2020-03-24T18:50:24+00:00,0.41277289390564,15,versionA_stim.csv,VersionA.csv,"Version A","Dissertation, read only version A",BOTH,OUNCE,ON,U,172,110,Study,User,-,,Study/JOL,"Study Phase2",193,,,-1,-1,,,,1
23232,5tuijfzxun,Collector,1,195,2020-03-24T18:50:25+00:00,0.41066813468933,15,versionA_stim.csv,VersionA.csv,"Version A","Dissertation, read only version A",TANTRUM,TEMPER,ON,S,154,169,Study,User,-,,Study/JOL,"Study Phase2",207,,,-1,-1,,,,1
23232,5tuijfzxun,Collector,1,196,2020-03-24T18:50:25+00:00,0.37564396858215,15,versionA_stim.csv,VersionA.csv,"Version A","Dissertation, read only version A",HIDE,SICK,ON,U,84,123,Study,User,-,,Study/JOL,"Study Phase2",163,,,-1,-1,,,,1
23232,5tuijfzxun,Collector,1,197,2020-03-24T18:50:26+00:00,0.36946606636047,15,versionA_stim.csv,VersionA.csv,"Version A","Dissertation, read only version A",MEAT,OBTAIN,ON,U,161,129,Study,User,-,,Study/JOL,"Study Phase2",129,,,-1,-1,,,,1
23232,5tuijfzxun,Collector,1,198,2020-03-24T18:50:26+00:00,0.44808888435364,15,versionA_stim.csv,VersionA.csv,"Version A","Dissertation, read only version A",DINE,EAT,ON,F,111,159,Study,User,-,,Study/JOL,"Study Phase2",192,,,-1,-1,,,,1
23232,5tuijfzxun,Collector,1,199,2020-03-24T18:50:26+00:00,0.42293095588684,15,versionA_stim.csv,VersionA.csv,"Version A","Dissertation, read only version A",CANDLE,WAX,ON,S,139,170,Study,User,-,,Study/JOL,"Study Phase2",191,,,-1,-1,,,,1
23232,5tuijfzxun,Collector,1,200,2020-03-24T18:50:27+00:00,0.3495671749115,15,versionA_stim.csv,VersionA.csv,"Version A","Dissertation, read only version A",MOAT,CLEAR,ON,U,169,98,Study,User,-,,Study/JOL,"Study Phase2",88,,,-1,-1,,,,1
23232,5tuijfzxun,Collector,1,201,2020-03-24T18:50:27+00:00,0.41740489006042,15,versionA_stim.csv,VersionA.csv,"Version A","Dissertation, read only version A",GLASS,BREAKABLE,ON,B,127,114,Study,User,-,,Study/JOL,"Study Phase2",200,,,-1,-1,,,,1
23232,5tuijfzxun,Collector,1,202,2020-03-24T18:50:28+00:00,0.3894989490509,15,versionA_stim.csv,VersionA.csv,"Version A","Dissertation, read only version A",GRILL,BAR,ON,S,52,126,Study,User,-,,Study/JOL,"Study Phase2",167,,,-1,-1,,,,1
23232,5tuijfzxun,Collector,1,203,2020-03-24T18:50:28+00:00,0.50430202484131,15,versionA_stim.csv,VersionA.csv,"Version A","Dissertation, read only version A",CHISEL,HAMMER,ON,F,9,115,Study,User,-,,Study/JOL,"Study Phase2",296,,,-1,-1,,,,1
23232,5tuijfzxun,Collector,1,204,2020-03-24T18:50:29+00:00,0.43189907073975,15,versionA_stim.csv,VersionA.csv,"Version A","Dissertation, read only version A",DIGESTION,STOMACH,ON,F,7,172,Study,User,-,,Study/JOL,"Study Phase2",225,,,-1,-1,,,,1
23232,5tuijfzxun,Collector,1,205,2020-03-24T18:50:29+00:00,0.37722396850586,15,versionA_stim.csv,VersionA.csv,"Version A","Dissertation, read only version A",FLEA,TICK,ON,S,151,135,Study,User,-,,Study/JOL,"Study Phase2",152,,,-1,-1,,,,1
23232,5tuijfzxun,Collector,1,206,2020-03-24T18:50:29+00:00,0.4313108921051,15,versionA_stim.csv,VersionA.csv,"Version A","Dissertation, read only version A",MULE,DONKEY,ON,F,108,116,Study,User,-,,Study/JOL,"Study Phase2",222,,,-1,-1,,,,1
23232,5tuijfzxun,Collector,1,207,2020-03-24T18:50:30+00:00,0.38000202178955,15,versionA_stim.csv,VersionA.csv,"Version A","Dissertation, read only version A",CHOP,CUT,ON,F,107,174,Study,User,-,,Study/JOL,"Study Phase2",171,,,-1,-1,,,,1
23232,5tuijfzxun,Collector,1,208,2020-03-24T18:50:30+00:00,0.37419104576111,15,versionA_stim.csv,VersionA.csv,"Version A","Dissertation, read only version A",SWAN,BIRD,ON,F,14,127,Study,User,-,,Study/JOL,"Study Phase2",171,,,-1,-1,,,,1
23232,5tuijfzxun,Collector,1,209,2020-03-24T18:50:31+00:00,0.39024591445923,15,versionA_stim.csv,VersionA.csv,"Version A","Dissertation, read only version A",CREDIT,CARD,ON,F,23,97,Study,User,-,,Study/JOL,"Study Phase2",188,,,-1,-1,,,,1
23232,5tuijfzxun,Collector,1,210,2020-03-24T18:50:31+00:00,0.3718581199646,15,versionA_stim.csv,VersionA.csv,"Version A","Dissertation, read only version A",POP,BALLOON,ON,B,123,141,Study,User,-,,Study/JOL,"Study Phase2",168,,,-1,-1,,,,1
23232,5tuijfzxun,Collector,1,211,2020-03-24T18:50:31+00:00,0.43412494659424,15,versionA_stim.csv,VersionA.csv,"Version A","Dissertation, read only version A",CAT,PANTHER,ON,B,126,136,Study,User,-,,Study/JOL,"Study Phase2",218,,,-1,-1,,,,1
23232,5tuijfzxun,Collector,1,212,2020-03-24T18:50:32+00:00,0.38546514511108,15,versionA_stim.csv,VersionA.csv,"Version A","Dissertation, read only version A",TRIAL,JURY,ON,S,50,160,Study,User,-,,Study/JOL,"Study Phase2",102,,,-1,-1,,,,1
23232,5tuijfzxun,Collector,1,213,2020-03-24T18:50:32+00:00,0.4756817817688,15,versionA_stim.csv,VersionA.csv,"Version A","Dissertation, read only version A",KEYS,JOKE,ON,U,165,151,Study,User,-,,Study/JOL,"Study Phase2",195,,,-1,-1,,,,1
23232,5tuijfzxun,Collector,1,214,2020-03-24T18:50:33+00:00,0.48045516014099,15,versionA_stim.csv,VersionA.csv,"Version A","Dissertation, read only version A",EXTENSION,LONG,ON,F,96,125,Study,User,-,,Study/JOL,"Study Phase2",256,,,-1,-1,,,,1
23232,5tuijfzxun,Collector,1,215,2020-03-24T18:50:33+00:00,0.38443183898926,15,versionA_stim.csv,VersionA.csv,"Version A","Dissertation, read only version A",MAZE,ELECTION,ON,U,159,111,Study,User,-,,Study/JOL,"Study Phase2",131,,,-1,-1,,,,1
23232,5tuijfzxun,Collector,1,216,2020-03-24T18:50:33+00:00,0.36316108703613,15,versionA_stim.csv,VersionA.csv,"Version A","Dissertation, read only version A",PARK,HUNGRY,ON,U,68,143,Study,User,-,,Study/JOL,"Study Phase2",141,,,-1,-1,,,,1
23232,5tuijfzxun,Collector,1,217,2020-03-24T18:50:34+00:00,0.38701009750366,15,versionA_stim.csv,VersionA.csv,"Version A","Dissertation, read only version A",HYGIENE,CLEAN,ON,F,17,138,Study,User,-,,Study/JOL,"Study Phase2",150,,,-1,-1,,,,1
23232,5tuijfzxun,Collector,1,218,2020-03-24T18:50:34+00:00,0.41033697128296,15,versionA_stim.csv,VersionA.csv,"Version A","Dissertation, read only version A",HOT,CHILI,ON,B,37,142,Study,User,-,,Study/JOL,"Study Phase2",187,,,-1,-1,,,,1
23232,5tuijfzxun,Collector,1,219,2020-03-24T18:50:35+00:00,0.39398407936096,15,versionA_stim.csv,VersionA.csv,"Version A","Dissertation, read only version A",STRETCH,CLOTH,ON,U,157,155,Study,User,-,,Study/JOL,"Study Phase2",35,,,-1,-1,,,,1
23232,5tuijfzxun,Collector,1,220,2020-03-24T18:50:35+00:00,0.41105079650879,15,versionA_stim.csv,VersionA.csv,"Version A","Dissertation, read only version A",JUSTICE,MAROON,ON,U,156,130,Study,User,-,,Study/JOL,"Study Phase2",111,,,-1,-1,,,,1
23232,5tuijfzxun,Collector,1,221,2020-03-24T18:50:35+00:00,0.44542002677917,15,versionA_stim.csv,VersionA.csv,"Version A","Dissertation, read only version A",HUNGER,FAMINE,ON,B,40,164,Study,User,-,,Study/JOL,"Study Phase2",190,,,-1,-1,,,,1
23232,5tuijfzxun,Collector,1,222,2020-03-24T18:50:36+00:00,0.38945007324219,15,versionA_stim.csv,VersionA.csv,"Version A","Dissertation, read only version A",LOCATION,SITE,ON,S,48,145,Study,User,-,,Study/JOL,"Study Phase2",158,,,-1,-1,,,,1
23232,5tuijfzxun,Collector,1,223,2020-03-24T18:50:36+00:00,0.38410401344299,15,versionA_stim.csv,VersionA.csv,"Version A","Dissertation, read only version A",FISH,SARDINE,ON,B,130,144,Study,User,-,,Study/JOL,"Study Phase2",187,,,-1,-1,,,,1
23232,5tuijfzxun,Collector,1,224,2020-03-24T18:50:37+00:00,0.40886688232422,15,versionA_stim.csv,VersionA.csv,"Version A","Dissertation, read only version A",GREAT,FANTASTIC,ON,B,35,152,Study,User,-,,Study/JOL,"Study Phase2",185,,,-1,-1,,,,1
23232,5tuijfzxun,Collector,1,225,2020-03-24T18:50:37+00:00,0.36124515533447,15,versionA_stim.csv,VersionA.csv,"Version A","Dissertation, read only version A",DEATH,BUSINESS,ON,U,72,131,Study,User,-,,Study/JOL,"Study Phase2",125,,,-1,-1,,,,1
23232,5tuijfzxun,Collector,1,226,2020-03-24T18:50:40+00:00,2.5083978176117,15,versionA_stim.csv,VersionA.csv,"Version A","Dissertation, read only version A",BITTER,COLD,ON,F,12,102,Study,User,-,,Study/JOL,"Study Phase2",324,,,-1,-1,,,,1
23232,5tuijfzxun,Collector,1,227,2020-03-24T18:50:40+00:00,0.4113130569458,15,versionA_stim.csv,VersionA.csv,"Version A","Dissertation, read only version A",SHOE,FOOT,ON,S,60,132,Study,User,-,,Study/JOL,"Study Phase2",177,,,-1,-1,,,,1
23232,5tuijfzxun,Collector,1,228,2020-03-24T18:50:40+00:00,0.35284113883972,15,versionA_stim.csv,VersionA.csv,"Version A","Dissertation, read only version A",OWN,HAVE,ON,S,153,140,Study,User,-,,Study/JOL,"Study Phase2",145,,,-1,-1,,,,1
23232,5tuijfzxun,Collector,1,229,2020-03-24T18:50:41+00:00,0.37563586235046,15,versionA_stim.csv,VersionA.csv,"Version A","Dissertation, read only version A",SLEEP,DROWSY,ON,B,41,120,Study,User,-,,Study/JOL,"Study Phase2",140,,,-1,-1,,,,1
23232,5tuijfzxun,Collector,1,230,2020-03-24T18:50:41+00:00,0.42014002799988,15,versionA_stim.csv,VersionA.csv,"Version A","Dissertation, read only version A",WRIST,BRACELET,ON,S,140,149,Study,User,-,,Study/JOL,"Study Phase2",208,,,-1,-1,,,,1
23232,5tuijfzxun,Collector,1,231,2020-03-24T18:50:41+00:00,0.37947106361389,15,versionA_stim.csv,VersionA.csv,"Version A","Dissertation, read only version A",EDITOR,NEWS,ON,F,10,113,Study,User,-,,Study/JOL,"Study Phase2",155,,,-1,-1,,,,1
23232,5tuijfzxun,Collector,1,232,2020-03-24T18:50:42+00:00,0.39600801467896,15,versionA_stim.csv,VersionA.csv,"Version A","Dissertation, read only version A",LEASE,TOIL,ON,U,170,124,Study,User,-,,Study/JOL,"Study Phase2",141,,,-1,-1,,,,1
23232,5tuijfzxun,Collector,1,233,2020-03-24T18:50:42+00:00,0.39298105239868,15,versionA_stim.csv,VersionA.csv,"Version A","Dissertation, read only version A",FEUD,FIGHT,ON,F,113,99,Study,User,-,,Study/JOL,"Study Phase2",156,,,-1,-1,,,,1
23232,5tuijfzxun,Collector,1,234,2020-03-24T18:50:43+00:00,0.38913178443909,15,versionA_stim.csv,VersionA.csv,"Version A","Dissertation, read only version A",LETTUCE,SALAD,ON,S,59,163,Study,User,-,,Study/JOL,"Study Phase2",148,,,-1,-1,,,,1
23232,5tuijfzxun,Collector,1,235,2020-03-24T18:50:43+00:00,0.40004014968872,15,versionA_stim.csv,VersionA.csv,"Version A","Dissertation, read only version A",WAY,OUT,ON,F,16,137,Study,User,-,,Study/JOL,"Study Phase2",181,,,-1,-1,,,,1
23232,5tuijfzxun,Collector,1,236,2020-03-24T18:50:43+00:00,0.38375806808472,15,versionA_stim.csv,VersionA.csv,"Version A","Dissertation, read only version A",MAIN,SCAR,ON,U,175,128,Study,User,-,,Study/JOL,"Study Phase2",91,,,-1,-1,,,,1
23232,5tuijfzxun,Collector,1,237,2020-03-24T18:50:44+00:00,0.40016078948975,15,versionA_stim.csv,VersionA.csv,"Version A","Dissertation, read only version A",HORNET,STING,ON,F,11,105,Study,User,-,,Study/JOL,"Study Phase2",87,,,-1,-1,,,,1
23232,5tuijfzxun,Collector,1,238,2020-03-24T18:50:44+00:00,0.4316291809082,15,versionA_stim.csv,VersionA.csv,"Version A","Dissertation, read only version A",HAPPY,CAR,ON,U,77,171,Study,User,-,,Study/JOL,"Study Phase2",204,,,-1,-1,,,,1
23232,5tuijfzxun,Collector,1,239,2020-03-24T18:50:45+00:00,0.36735892295837,15,versionA_stim.csv,VersionA.csv,"Version A","Dissertation, read only version A",LISTEN,FICTION,ON,U,164,147,Study,User,-,,Study/JOL,"Study Phase2",138,,,-1,-1,,,,1
23232,5tuijfzxun,Collector,1,240,2020-03-24T18:50:45+00:00,0.34915089607239,15,versionA_stim.csv,VersionA.csv,"Version A","Dissertation, read only version A",BASEBALL,LEAGUE,ON,B,131,156,Study,User,-,,Study/JOL,"Study Phase2",139,,,-1,-1,,,,1
23232,5tuijfzxun,Collector,1,241,2020-03-24T18:50:45+00:00,0.51494121551514,15,versionA_stim.csv,VersionA.csv,"Version A","Dissertation, read only version A",ROOT,PLANT,ON,F,13,168,Study,User,-,,Study/JOL,"Study Phase2",295,,,-1,-1,,,,1
23232,5tuijfzxun,Collector,1,242,2020-03-24T18:50:46+00:00,0.45234298706055,15,versionA_stim.csv,VersionA.csv,"Version A","Dissertation, read only version A",TUNA,FISH,ON,F,25,173,Study,User,-,,Study/JOL,"Study Phase2",244,,,-1,-1,,,,1
23232,5tuijfzxun,Collector,1,243,2020-03-24T18:50:46+00:00,0.40277290344238,15,versionA_stim.csv,VersionA.csv,"Version A","Dissertation, read only version A",BLOW,WIND,ON,S,55,104,Study,User,-,,Study/JOL,"Study Phase2",184,,,-1,-1,,,,1
23232,5tuijfzxun,Collector,1,244,2020-03-24T18:50:47+00:00,1.1439099311829,15,versionA_stim.csv,VersionA.csv,"Version A","Dissertation, read only version A",WINE,CHEESE,ON,S,57,154,Study,User,-,,Study/JOL,"Study Phase2",926,,,-1,-1,,,,1
23232,5tuijfzxun,Collector,1,245,2020-03-24T18:50:49+00:00,2.0203039646149,15,versionA_stim.csv,VersionA.csv,"Version A","Dissertation, read only version A",SOON,BELT,ON,U,70,175,Study,User,-,,Study/JOL,"Study Phase2",1767,,,-1,-1,,,,1
23232,5tuijfzxun,Collector,1,246,2020-03-24T18:50:50+00:00,0.52063322067261,15,versionA_stim.csv,VersionA.csv,"Version A","Dissertation, read only version A",NUMBER,AMOUNT,ON,S,47,153,Study,User,-,,Study/JOL,"Study Phase2",310,,,-1,-1,,,,1
23232,5tuijfzxun,Collector,1,247,2020-03-24T18:50:50+00:00,0.42873287200928,15,versionA_stim.csv,VersionA.csv,"Version A","Dissertation, read only version A",CRACKLE,ABLE,ON,U,162,148,Study,User,-,,Study/JOL,"Study Phase2",208,,,-1,-1,,,,1
23232,5tuijfzxun,Collector,1,248,2020-03-24T18:50:51+00:00,0.54432606697083,15,versionA_stim.csv,VersionA.csv,"Version A","Dissertation, read only version A",CIRCLE,ROUND,ON,S,65,134,Study,User,-,,Study/JOL,"Study Phase2",270,,,-1,-1,,,,1
23232,5tuijfzxun,Collector,1,249,2020-03-24T18:50:52+00:00,0.52598190307617,15,versionA_stim.csv,VersionA.csv,"Version A","Dissertation, read only version A",ORCHID,FLOWER,ON,F,24,157,Study,User,-,,Study/JOL,"Study Phase2",298,,,-1,-1,,,,1
23232,5tuijfzxun,Collector,1,250,2020-03-24T18:50:52+00:00,0.46167302131653,15,versionA_stim.csv,VersionA.csv,"Version A","Dissertation, read only version A",ROD,REEL,ON,S,150,103,Study,User,-,,Study/JOL,"Study Phase2",250,,,-1,-1,,,,1
23232,5tuijfzxun,Collector,1,251,2020-03-24T18:50:52+00:00,0.43549609184265,15,versionA_stim.csv,VersionA.csv,"Version A","Dissertation, read only version A",VALLEY,ADD,ON,U,82,166,Study,User,-,,Study/JOL,"Study Phase2",181,,,-1,-1,,,,1
23232,5tuijfzxun,Collector,1,252,2020-03-24T18:50:53+00:00,0.56445288658142,15,versionA_stim.csv,VersionA.csv,"Version A","Dissertation, read only version A",FIX,HAND,ON,U,75,108,Study,User,-,,Study/JOL,"Study Phase2",323,,,-1,-1,,,,1
23232,5tuijfzxun,Collector,1,253,2020-03-24T18:50:53+00:00,0.46593809127808,15,versionA_stim.csv,VersionA.csv,"Version A","Dissertation, read only version A",FUZZY,BANG,ON,U,168,106,Study,User,-,,Study/JOL,"Study Phase2",252,,,-1,-1,,,,1
23232,5tuijfzxun,Collector,1,254,2020-03-24T18:50:54+00:00,0.45725584030151,15,versionA_stim.csv,VersionA.csv,"Version A","Dissertation, read only version A",DARK,CAVE,ON,B,28,150,Study,User,-,,Study/JOL,"Study Phase2",230,,,-1,-1,,,,1
23232,5tuijfzxun,Collector,1,255,2020-03-24T18:50:54+00:00,0.41561913490295,15,versionA_stim.csv,VersionA.csv,"Version A","Dissertation, read only version A",EVEN,REVENGE,ON,B,122,100,Study,User,-,,Study/JOL,"Study Phase2",222,,,-1,-1,,,,1
23232,5tuijfzxun,Collector,1,256,2020-03-24T18:50:55+00:00,0.47817301750183,15,versionA_stim.csv,VersionA.csv,"Version A","Dissertation, read only version A",MEANING,DEFINITION,ON,S,62,101,Study,User,-,,Study/JOL,"Study Phase2",252,,,-1,-1,,,,1
23232,5tuijfzxun,Collector,1,257,2020-03-24T18:50:55+00:00,0.44572806358337,15,versionA_stim.csv,VersionA.csv,"Version A","Dissertation, read only version A",PUSHER,CLUTTER,ON,U,66,119,Study,User,-,,Study/JOL,"Study Phase2",235,,,-1,-1,,,,1
23232,5tuijfzxun,Collector,1,258,2020-03-24T18:50:56+00:00,0.50694894790649,15,versionA_stim.csv,VersionA.csv,"Version A","Dissertation, read only version A",CLUE,GAME,ON,F,97,176,Study,User,-,,Study/JOL,"Study Phase2",274,,,-1,-1,,,,1
23232,5tuijfzxun,Collector,1,259,2020-03-24T18:50:56+00:00,0.43131899833679,15,versionA_stim.csv,VersionA.csv,"Version A","Dissertation, read only version A",SUGAR,RIDDLE,ON,U,81,167,Study,User,-,,Study/JOL,"Study Phase2",199,,,-1,-1,,,,1
23232,5tuijfzxun,Collector,1,260,2020-03-24T18:50:57+00:00,0.38191890716553,15,versionA_stim.csv,VersionA.csv,"Version A","Dissertation, read only version A",BEGIN,END,ON,S,54,118,Study,User,-,,Study/JOL,"Study Phase2",121,,,-1,-1,,,,1
23232,5tuijfzxun,Collector,1,261,2020-03-24T18:50:57+00:00,0.40029501914978,15,versionA_stim.csv,VersionA.csv,"Version A","Dissertation, read only version A",DAYS,WEAKS,OFF,Buffer,176,177,Study,User,-,,Study/JOL,BUFFER4,138,,,-1,-1,,,,1
23232,5tuijfzxun,Collector,1,262,2020-03-24T18:50:57+00:00,0.40749311447144,15,versionA_stim.csv,VersionA.csv,"Version A","Dissertation, read only version A",MONTH,YEAR,OFF,Buffer,177,178,Study,User,-,,Study/JOL,BUFFER4,168,,,-1,-1,,,,1
23232,5tuijfzxun,Collector,1,263,2020-03-24T18:50:58+00:00,0.43240094184875,15,versionA_stim.csv,VersionA.csv,"Version A","Dissertation, read only version A",SPRING,MARCH,OFF,Buffer,179,180,Study,User,-,,Study/JOL,BUFFER4,200,,,-1,-1,,,,1
23232,5tuijfzxun,Collector,1,264,2020-03-24T18:50:58+00:00,0.39771103858948,15,versionA_stim.csv,VersionA.csv,"Version A","Dissertation, read only version A",OCTOBER,SPOOKY,OFF,Buffer,180,181,Study,User,-,,Study/JOL,BUFFER4,184,,,-1,-1,,,,1
23232,5tuijfzxun,Collector,1,265,2020-03-24T18:50:59+00:00,0.48574495315552,15,versionA_stim.csv,VersionA.csv,"Version A","Dissertation, read only version A",TOOL,SHED,OFF,Buffer,178,179,Study,User,-,,Study/JOL,BUFFER4,230,,,-1,-1,,,,1
23232,5tuijfzxun,Collector,1,266,2020-03-24T18:51:04+00:00,5.2635939121246,15,versionA_stim.csv,VersionA.csv,"Version A","Dissertation, read only version A",,,,,,0,Instruct,User,-,"You have completed this section. Please press Enter.",Filler_Instruction,Instruct5,5020,,,-1,-1,,,,1
23232,5tuijfzxun,Collector,1,267,2020-03-24T18:53:04+00:00,120.29378414154,15,versionA_stim.csv,VersionA.csv,"Version A","Dissertation, read only version A",,,,,,0,FreeRecall,120,120,"Please list the 50 US states in reverse alphabetical order (z - a). The task will automatically advance to the next screen after two minutes.",,Filler2,120011,,0,-1,-1,0,0,,1
23232,5tuijfzxun,Collector,1,268,2020-03-24T18:54:16+00:00,71.43799495697,15,versionA_stim.csv,VersionA.csv,"Version A","Dissertation, read only version A",,,,,,0,Instruct,-,10,"You will now be presented with the first word from each of the previously studied item pairs. Please type the missing word. If you do not know the word, you may guess or press Enter to skip forward to the next pair.",,Instruct6,71147,,,-1,-1,,,,1
23232,5tuijfzxun,Collector,1,269,2020-03-24T18:54:16+00:00,0.81437301635742,15,versionA_stim.csv,VersionA.csv,"Version A","Dissertation, read only version A",SWAN,BIRD,ON,F,14,127,Test,User,-,,Recall,Recall2,581,,0,-1,-1,0,0,,1
23232,5tuijfzxun,Collector,1,270,2020-03-24T18:54:17+00:00,0.51521897315979,15,versionA_stim.csv,VersionA.csv,"Version A","Dissertation, read only version A",MULE,DONKEY,ON,F,108,116,Test,User,-,,Recall,Recall2,269,,0,-1,-1,0,0,,1
23232,5tuijfzxun,Collector,1,271,2020-03-24T18:54:17+00:00,0.42382788658142,15,versionA_stim.csv,VersionA.csv,"Version A","Dissertation, read only version A",NUMBER,AMOUNT,ON,S,47,153,Test,User,-,,Recall,Recall2,201,,0,-1,-1,0,0,,1
23232,5tuijfzxun,Collector,1,272,2020-03-24T18:54:18+00:00,0.48940515518188,15,versionA_stim.csv,VersionA.csv,"Version A","Dissertation, read only version A",KEY,LATCH,ON,B,36,107,Test,User,-,,Recall,Recall2,255,,0,-1,-1,0,0,,1
23232,5tuijfzxun,Collector,1,273,2020-03-24T18:54:18+00:00,0.47133493423462,15,versionA_stim.csv,VersionA.csv,"Version A","Dissertation, read only version A",MEANING,DEFINITION,ON,S,62,101,Test,User,-,,Recall,Recall2,244,,0,-1,-1,0,0,,1
23232,5tuijfzxun,Collector,1,274,2020-03-24T18:54:19+00:00,0.54560303688049,15,versionA_stim.csv,VersionA.csv,"Version A","Dissertation, read only version A",OWN,HAVE,ON,S,153,140,Test,User,-,,Recall,Recall2,315,,0,-1,-1,0,0,,1
23232,5tuijfzxun,Collector,1,275,2020-03-24T18:54:19+00:00,0.53875803947449,15,versionA_stim.csv,VersionA.csv,"Version A","Dissertation, read only version A",GONE,AWAY,ON,S,142,112,Test,User,-,,Recall,Recall2,307,,0,-1,-1,0,0,,1
23232,5tuijfzxun,Collector,1,276,2020-03-24T18:54:20+00:00,0.50557589530945,15,versionA_stim.csv,VersionA.csv,"Version A","Dissertation, read only version A",VALLEY,ADD,ON,U,82,166,Test,User,-,,Recall,Recall2,277,,0,-1,-1,0,0,,1
23232,5tuijfzxun,Collector,1,277,2020-03-24T18:54:21+00:00,1.4288320541382,15,versionA_stim.csv,VersionA.csv,"Version A","Dissertation, read only version A",ROD,REEL,ON,S,150,103,Test,User,-,,Recall,Recall2,1221,,0,-1,-1,0,0,,1
23232,5tuijfzxun,Collector,1,278,2020-03-24T18:54:22+00:00,0.41143298149109,15,versionA_stim.csv,VersionA.csv,"Version A","Dissertation, read only version A",NAME,HATE,ON,U,167,165,Test,User,-,,Recall,Recall2,197,,0,-1,-1,0,0,,1
23232,5tuijfzxun,Collector,1,279,2020-03-24T18:54:22+00:00,0.38836288452148,15,versionA_stim.csv,VersionA.csv,"Version A","Dissertation, read only version A",MEAT,OBTAIN,ON,U,161,129,Test,User,-,,Recall,Recall2,165,,0,-1,-1,0,0,,1
23232,5tuijfzxun,Collector,1,280,2020-03-24T18:54:23+00:00,1.1149260997772,15,versionA_stim.csv,VersionA.csv,"Version A","Dissertation, read only version A",GLASS,BREAKABLE,ON,B,127,114,Test,User,-,,Recall,Recall2,890,,0,-1,-1,0,0,,1
23232,5tuijfzxun,Collector,1,281,2020-03-24T18:54:24+00:00,0.51989197731018,15,versionA_stim.csv,VersionA.csv,"Version A","Dissertation, read only version A",LOCATION,SITE,ON,S,48,145,Test,User,-,,Recall,Recall2,293,,0,-1,-1,0,0,,1
23232,5tuijfzxun,Collector,1,282,2020-03-24T18:54:25+00:00,0.78954100608826,15,versionA_stim.csv,VersionA.csv,"Version A","Dissertation, read only version A",CAT,PANTHER,ON,B,126,136,Test,User,-,,Recall,Recall2,553,,0,-1,-1,0,0,,1
23232,5tuijfzxun,Collector,1,283,2020-03-24T18:54:25+00:00,0.47418308258057,15,versionA_stim.csv,VersionA.csv,"Version A","Dissertation, read only version A",HUNGER,FAMINE,ON,B,40,164,Test,User,-,,Recall,Recall2,217,,0,-1,-1,0,0,,1
23232,5tuijfzxun,Collector,1,284,2020-03-24T18:54:26+00:00,1.3424780368805,15,versionA_stim.csv,VersionA.csv,"Version A","Dissertation, read only version A",HERD,COW,ON,F,22,109,Test,User,-,,Recall,Recall2,1125,,0,-1,-1,0,0,,1
23232,5tuijfzxun,Collector,1,285,2020-03-24T18:54:27+00:00,0.59651184082031,15,versionA_stim.csv,VersionA.csv,"Version A","Dissertation, read only version A",HAPPY,CAR,ON,U,77,171,Test,User,-,,Recall,Recall2,386,,0,-1,-1,0,0,,1
23232,5tuijfzxun,Collector,1,286,2020-03-24T18:54:28+00:00,1.0478661060333,15,versionA_stim.csv,VersionA.csv,"Version A","Dissertation, read only version A",MOAT,CLEAR,ON,U,169,98,Test,User,-,,Recall,Recall2,836,,0,-1,-1,0,0,,1
23232,5tuijfzxun,Collector,1,287,2020-03-24T18:54:29+00:00,0.44171786308289,15,versionA_stim.csv,VersionA.csv,"Version A","Dissertation, read only version A",FLEA,TICK,ON,S,151,135,Test,User,-,,Recall,Recall2,184,,0,-1,-1,0,0,,1
23232,5tuijfzxun,Collector,1,288,2020-03-24T18:54:29+00:00,0.41162014007568,15,versionA_stim.csv,VersionA.csv,"Version A","Dissertation, read only version A",CREDIT,CARD,ON,F,23,97,Test,User,-,,Recall,Recall2,188,,0,-1,-1,0,0,,1
23232,5tuijfzxun,Collector,1,289,2020-03-24T18:54:29+00:00,0.30692601203918,15,versionA_stim.csv,VersionA.csv,"Version A","Dissertation, read only version A",EDITOR,NEWS,ON,F,10,113,Test,User,-,,Recall,Recall2,63,,0,-1,-1,0,0,,1
23232,5tuijfzxun,Collector,1,290,2020-03-24T18:54:30+00:00,0.30249094963074,15,versionA_stim.csv,VersionA.csv,"Version A","Dissertation, read only version A",ROOT,PLANT,ON,F,13,168,Test,User,-,,Recall,Recall2,68,,0,-1,-1,0,0,,1
23232,5tuijfzxun,Collector,1,291,2020-03-24T18:54:30+00:00,0.3041250705719,15,versionA_stim.csv,VersionA.csv,"Version A","Dissertation, read only version A",CIRCLE,ROUND,ON,S,65,134,Test,User,-,,Recall,Recall2,79,,0,-1,-1,0,0,,1
23232,5tuijfzxun,Collector,1,292,2020-03-24T18:54:30+00:00,0.25664401054382,15,versionA_stim.csv,VersionA.csv,"Version A","Dissertation, read only version A",WAY,OUT,ON,F,16,137,Test,User,-,,Recall,Recall2,44,,0,-1,-1,0,0,,1
23232,5tuijfzxun,Collector,1,293,2020-03-24T18:54:30+00:00,0.28449702262878,15,versionA_stim.csv,VersionA.csv,"Version A","Dissertation, read only version A",JUSTICE,MAROON,ON,U,156,130,Test,User,-,,Recall,Recall2,48,,0,-1,-1,0,0,,1
23232,5tuijfzxun,Collector,1,294,2020-03-24T18:54:31+00:00,0.28054094314575,15,versionA_stim.csv,VersionA.csv,"Version A","Dissertation, read only version A",SLEEP,DROWSY,ON,B,41,120,Test,User,-,,Recall,Recall2,24,,0,-1,-1,0,0,,1
23232,5tuijfzxun,Collector,1,295,2020-03-24T18:54:31+00:00,0.35637593269348,15,versionA_stim.csv,VersionA.csv,"Version A","Dissertation, read only version A",BLOW,WIND,ON,S,55,104,Test,User,-,,Recall,Recall2,140,,0,-1,-1,0,0,,1
23232,5tuijfzxun,Collector,1,296,2020-03-24T18:54:31+00:00,0.41869306564331,15,versionA_stim.csv,VersionA.csv,"Version A","Dissertation, read only version A",DARK,CAVE,ON,B,28,150,Test,User,-,,Recall,Recall2,209,,0,-1,-1,0,0,,1
23232,5tuijfzxun,Collector,1,297,2020-03-24T18:54:32+00:00,0.35190105438232,15,versionA_stim.csv,VersionA.csv,"Version A","Dissertation, read only version A",BABY,CHILD,ON,S,64,146,Test,User,-,,Recall,Recall2,143,,0,-1,-1,0,0,,1
23232,5tuijfzxun,Collector,1,298,2020-03-24T18:54:32+00:00,0.30205392837524,15,versionA_stim.csv,VersionA.csv,"Version A","Dissertation, read only version A",STRETCH,CLOTH,ON,U,157,155,Test,User,-,,Recall,Recall2,79,,0,-1,-1,0,0,,1
23232,5tuijfzxun,Collector,1,299,2020-03-24T18:54:32+00:00,0.30672097206116,15,versionA_stim.csv,VersionA.csv,"Version A","Dissertation, read only version A",BOTH,OUNCE,ON,U,172,110,Test,User,-,,Recall,Recall2,76,,0,-1,-1,0,0,,1
23232,5tuijfzxun,Collector,1,300,2020-03-24T18:54:33+00:00,0.33527088165283,15,versionA_stim.csv,VersionA.csv,"Version A","Dissertation, read only version A",WRIST,BRACELET,ON,S,140,149,Test,User,-,,Recall,Recall2,126,,0,-1,-1,0,0,,1
23232,5tuijfzxun,Collector,1,301,2020-03-24T18:54:33+00:00,0.43126106262207,15,versionA_stim.csv,VersionA.csv,"Version A","Dissertation, read only version A",CHISEL,HAMMER,ON,F,9,115,Test,User,-,,Recall,Recall2,187,,0,-1,-1,0,0,,1
23232,5tuijfzxun,Collector,1,302,2020-03-24T18:54:34+00:00,0.38744211196899,15,versionA_stim.csv,VersionA.csv,"Version A","Dissertation, read only version A",FIX,HAND,ON,U,75,108,Test,User,-,,Recall,Recall2,129,,0,-1,-1,0,0,,1
23232,5tuijfzxun,Collector,1,303,2020-03-24T18:54:34+00:00,0.41739797592163,15,versionA_stim.csv,VersionA.csv,"Version A","Dissertation, read only version A",LETTUCE,SALAD,ON,S,59,163,Test,User,-,,Recall,Recall2,165,,0,-1,-1,0,0,,1
23232,5tuijfzxun,Collector,1,304,2020-03-24T18:54:34+00:00,0.41564798355103,15,versionA_stim.csv,VersionA.csv,"Version A","Dissertation, read only version A",EXTENSION,LONG,ON,F,96,125,Test,User,-,,Recall,Recall2,177,,0,-1,-1,0,0,,1
23232,5tuijfzxun,Collector,1,305,2020-03-24T18:54:35+00:00,0.55211186408997,15,versionA_stim.csv,VersionA.csv,"Version A","Dissertation, read only version A",POP,BALLOON,ON,B,123,141,Test,User,-,,Recall,Recall2,310,,0,-1,-1,0,0,,1
23232,5tuijfzxun,Collector,1,306,2020-03-24T18:54:37+00:00,2.2196650505066,15,versionA_stim.csv,VersionA.csv,"Version A","Dissertation, read only version A",LEASE,TOIL,ON,U,170,124,Test,User,-,,Recall,Recall2,2009,,0,-1,-1,0,0,,1
23232,5tuijfzxun,Collector,1,307,2020-03-24T18:54:38+00:00,1.1188189983368,15,versionA_stim.csv,VersionA.csv,"Version A","Dissertation, read only version A",SUGAR,RIDDLE,ON,U,81,167,Test,User,-,,Recall,Recall2,904,,0,-1,-1,0,0,,1
23232,5tuijfzxun,Collector,1,308,2020-03-24T18:54:39+00:00,0.42467308044434,15,versionA_stim.csv,VersionA.csv,"Version A","Dissertation, read only version A",BEGIN,END,ON,S,54,118,Test,User,-,,Recall,Recall2,182,,0,-1,-1,0,0,,1
23232,5tuijfzxun,Collector,1,309,2020-03-24T18:54:39+00:00,0.56737589836121,15,versionA_stim.csv,VersionA.csv,"Version A","Dissertation, read only version A",HOT,CHILI,ON,B,37,142,Test,User,-,,Recall,Recall2,346,,0,-1,-1,0,0,,1
23232,5tuijfzxun,Collector,1,310,2020-03-24T18:54:40+00:00,0.4337420463562,15,versionA_stim.csv,VersionA.csv,"Version A","Dissertation, read only version A",FUZZY,BANG,ON,U,168,106,Test,User,-,,Recall,Recall2,206,,0,-1,-1,0,0,,1
23232,5tuijfzxun,Collector,1,311,2020-03-24T18:54:40+00:00,0.361328125,15,versionA_stim.csv,VersionA.csv,"Version A","Dissertation, read only version A",KEYS,JOKE,ON,U,165,151,Test,User,-,,Recall,Recall2,149,,0,-1,-1,0,0,,1
23232,5tuijfzxun,Collector,1,312,2020-03-24T18:54:41+00:00,0.57226300239563,15,versionA_stim.csv,VersionA.csv,"Version A","Dissertation, read only version A",PARK,HUNGRY,ON,U,68,143,Test,User,-,,Recall,Recall2,354,,0,-1,-1,0,0,,1
23232,5tuijfzxun,Collector,1,313,2020-03-24T18:54:41+00:00,0.39925289154053,15,versionA_stim.csv,VersionA.csv,"Version A","Dissertation, read only version A",DEATH,BUSINESS,ON,U,72,131,Test,User,-,,Recall,Recall2,186,,0,-1,-1,0,0,,1
23232,5tuijfzxun,Collector,1,314,2020-03-24T18:54:41+00:00,0.40177297592163,15,versionA_stim.csv,VersionA.csv,"Version A","Dissertation, read only version A",HIDE,SICK,ON,U,84,123,Test,User,-,,Recall,Recall2,181,,0,-1,-1,0,0,,1
23232,5tuijfzxun,Collector,1,315,2020-03-24T18:54:42+00:00,0.4145290851593,15,versionA_stim.csv,VersionA.csv,"Version A","Dissertation, read only version A",CANDLE,WAX,ON,S,139,170,Test,User,-,,Recall,Recall2,206,,0,-1,-1,0,0,,1
23232,5tuijfzxun,Collector,1,316,2020-03-24T18:54:42+00:00,0.41707301139832,15,versionA_stim.csv,VersionA.csv,"Version A","Dissertation, read only version A",CASH,WOULD,ON,U,83,122,Test,User,-,,Recall,Recall2,176,,0,-1,-1,0,0,,1
23232,5tuijfzxun,Collector,1,317,2020-03-24T18:54:43+00:00,0.38315486907959,15,versionA_stim.csv,VersionA.csv,"Version A","Dissertation, read only version A",SOON,BELT,ON,U,70,175,Test,User,-,,Recall,Recall2,130,,0,-1,-1,0,0,,1
23232,5tuijfzxun,Collector,1,318,2020-03-24T18:54:46+00:00,3.1564049720764,15,versionA_stim.csv,VersionA.csv,"Version A","Dissertation, read only version A",MONEY,BANKER,ON,B,132,121,Test,User,-,,Recall,Recall2,2930,,0,-1,-1,0,0,,1
23232,5tuijfzxun,Collector,1,319,2020-03-24T18:54:52+00:00,6.0020282268524,15,versionA_stim.csv,VersionA.csv,"Version A","Dissertation, read only version A",GREAT,FANTASTIC,ON,B,35,152,Test,User,-,,Recall,Recall2,3795,,0,-1,-1,0,0,,1
23232,5tuijfzxun,Collector,1,320,2020-03-24T18:54:52+00:00,0.53844881057739,15,versionA_stim.csv,VersionA.csv,"Version A","Dissertation, read only version A",LISTEN,FICTION,ON,U,164,147,Test,User,-,,Recall,Recall2,314,,0,-1,-1,0,0,,1
23232,5tuijfzxun,Collector,1,321,2020-03-24T18:54:53+00:00,0.31661915779114,15,versionA_stim.csv,VersionA.csv,"Version A","Dissertation, read only version A",DINE,EAT,ON,F,111,159,Test,User,-,,Recall,Recall2,90,,0,-1,-1,0,0,,1
23232,5tuijfzxun,Collector,1,322,2020-03-24T18:54:54+00:00,1.1326539516449,15,versionA_stim.csv,VersionA.csv,"Version A","Dissertation, read only version A",GEOLOGY,ROCK,ON,F,19,158,Test,User,-,,Recall,Recall2,909,,0,-1,-1,0,0,,1
23232,5tuijfzxun,Collector,1,323,2020-03-24T18:54:55+00:00,0.68495488166809,15,versionA_stim.csv,VersionA.csv,"Version A","Dissertation, read only version A",GRILL,BAR,ON,S,52,126,Test,User,-,,Recall,Recall2,455,,0,-1,-1,0,0,,1
23232,5tuijfzxun,Collector,1,324,2020-03-24T18:54:55+00:00,0.67150402069092,15,versionA_stim.csv,VersionA.csv,"Version A","Dissertation, read only version A",TRUTH,LIE,ON,S,148,162,Test,User,-,,Recall,Recall2,451,,0,-1,-1,0,0,,1
23232,5tuijfzxun,Collector,1,325,2020-03-24T18:54:56+00:00,0.94496417045593,15,versionA_stim.csv,VersionA.csv,"Version A","Dissertation, read only version A",BITTER,COLD,ON,F,12,102,Test,User,-,,Recall,Recall2,753,,0,-1,-1,0,0,,1
23232,5tuijfzxun,Collector,1,326,2020-03-24T18:54:58+00:00,1.718945980072,15,versionA_stim.csv,VersionA.csv,"Version A","Dissertation, read only version A",ORCHID,FLOWER,ON,F,24,157,Test,User,-,,Recall,Recall2,1504,,0,-1,-1,0,0,,1
23232,5tuijfzxun,Collector,1,327,2020-03-24T18:54:58+00:00,0.57874488830566,15,versionA_stim.csv,VersionA.csv,"Version A","Dissertation, read only version A",CHILL,COLD,ON,F,114,133,Test,User,-,,Recall,Recall2,362,,0,-1,-1,0,0,,1
23232,5tuijfzxun,Collector,1,328,2020-03-24T18:54:59+00:00,0.9804060459137,15,versionA_stim.csv,VersionA.csv,"Version A","Dissertation, read only version A",CLUE,GAME,ON,F,97,176,Test,User,-,,Recall,Recall2,769,,0,-1,-1,0,0,,1
23232,5tuijfzxun,Collector,1,329,2020-03-24T18:55:03+00:00,3.8037040233612,15,versionA_stim.csv,VersionA.csv,"Version A","Dissertation, read only version A",TANTRUM,TEMPER,ON,S,154,169,Test,User,-,,Recall,Recall2,3559,,0,-1,-1,0,0,,1
23232,5tuijfzxun,Collector,1,330,2020-03-24T18:55:04+00:00,0.49654698371887,15,versionA_stim.csv,VersionA.csv,"Version A","Dissertation, read only version A",HORNET,STING,ON,F,11,105,Test,User,-,,Recall,Recall2,234,,0,-1,-1,0,0,,1
23232,5tuijfzxun,Collector,1,331,2020-03-24T18:55:04+00:00,0.77871203422546,15,versionA_stim.csv,VersionA.csv,"Version A","Dissertation, read only version A",FIGHT,BRAWL,ON,B,135,161,Test,User,-,,Recall,Recall2,519,,0,-1,-1,0,0,,1
23232,5tuijfzxun,Collector,1,332,2020-03-24T18:55:05+00:00,0.67474389076233,15,versionA_stim.csv,VersionA.csv,"Version A","Dissertation, read only version A",FISH,SARDINE,ON,B,130,144,Test,User,-,,Recall,Recall2,450,,0,-1,-1,0,0,,1
23232,5tuijfzxun,Collector,1,333,2020-03-24T18:55:06+00:00,0.49878001213074,15,versionA_stim.csv,VersionA.csv,"Version A","Dissertation, read only version A",SHOE,FOOT,ON,S,60,132,Test,User,-,,Recall,Recall2,279,,0,-1,-1,0,0,,1
23232,5tuijfzxun,Collector,1,334,2020-03-24T18:55:06+00:00,0.82239508628845,15,versionA_stim.csv,VersionA.csv,"Version A","Dissertation, read only version A",DIGESTION,STOMACH,ON,F,7,172,Test,User,-,,Recall,Recall2,599,,0,-1,-1,0,0,,1
23232,5tuijfzxun,Collector,1,335,2020-03-24T18:55:07+00:00,0.46128392219543,15,versionA_stim.csv,VersionA.csv,"Version A","Dissertation, read only version A",SHOELACE,TIE,ON,F,99,117,Test,User,-,,Recall,Recall2,257,,0,-1,-1,0,0,,1
23232,5tuijfzxun,Collector,1,336,2020-03-24T18:55:07+00:00,0.49848103523254,15,versionA_stim.csv,VersionA.csv,"Version A","Dissertation, read only version A",HYGIENE,CLEAN,ON,F,17,138,Test,User,-,,Recall,Recall2,280,,0,-1,-1,0,0,,1
23232,5tuijfzxun,Collector,1,337,2020-03-24T18:55:09+00:00,1.4218909740448,15,versionA_stim.csv,VersionA.csv,"Version A","Dissertation, read only version A",MAZE,ELECTION,ON,U,159,111,Test,User,-,,Recall,Recall2,1197,,0,-1,-1,0,0,,1
23232,5tuijfzxun,Collector,1,338,2020-03-24T18:55:09+00:00,0.45260000228882,15,versionA_stim.csv,VersionA.csv,"Version A","Dissertation, read only version A",BASEBALL,LEAGUE,ON,B,131,156,Test,User,-,,Recall,Recall2,226,,0,-1,-1,0,0,,1
23232,5tuijfzxun,Collector,1,339,2020-03-24T18:55:14+00:00,4.3763880729675,15,versionA_stim.csv,VersionA.csv,"Version A","Dissertation, read only version A",TUNA,FISH,ON,F,25,173,Test,User,-,,Recall,Recall2,4138,,0,-1,-1,0,0,,1
23232,5tuijfzxun,Collector,1,340,2020-03-24T18:55:14+00:00,0.32012796401978,15,versionA_stim.csv,VersionA.csv,"Version A","Dissertation, read only version A",WINE,CHEESE,ON,S,57,154,Test,User,-,,Recall,Recall2,80,,0,-1,-1,0,0,,1
23232,5tuijfzxun,Collector,1,341,2020-03-24T18:55:14+00:00,0.46380305290222,15,versionA_stim.csv,VersionA.csv,"Version A","Dissertation, read only version A",CRACKLE,ABLE,ON,U,162,148,Test,User,-,,Recall,Recall2,254,,0,-1,-1,0,0,,1
23232,5tuijfzxun,Collector,1,342,2020-03-24T18:55:15+00:00,0.32184791564941,15,versionA_stim.csv,VersionA.csv,"Version A","Dissertation, read only version A",MAIN,SCAR,ON,U,175,128,Test,User,-,,Recall,Recall2,78,,0,-1,-1,0,0,,1
23232,5tuijfzxun,Collector,1,343,2020-03-24T18:55:15+00:00,0.41547107696533,15,versionA_stim.csv,VersionA.csv,"Version A","Dissertation, read only version A",CHOP,CUT,ON,F,107,174,Test,User,-,,Recall,Recall2,181,,0,-1,-1,0,0,,1
23232,5tuijfzxun,Collector,1,344,2020-03-24T18:55:16+00:00,0.29591298103333,15,versionA_stim.csv,VersionA.csv,"Version A","Dissertation, read only version A",EVEN,REVENGE,ON,B,122,100,Test,User,-,,Recall,Recall2,63,,0,-1,-1,0,0,,1
23232,5tuijfzxun,Collector,1,345,2020-03-24T18:55:16+00:00,0.4342679977417,15,versionA_stim.csv,VersionA.csv,"Version A","Dissertation, read only version A",FEUD,FIGHT,ON,F,113,99,Test,User,-,,Recall,Recall2,211,,0,-1,-1,0,0,,1
23232,5tuijfzxun,Collector,1,346,2020-03-24T18:55:16+00:00,0.40267586708069,15,versionA_stim.csv,VersionA.csv,"Version A","Dissertation, read only version A",PUSHER,CLUTTER,ON,U,66,119,Test,User,-,,Recall,Recall2,192,,0,-1,-1,0,0,,1
23232,5tuijfzxun,Collector,1,347,2020-03-24T18:55:17+00:00,0.39841604232788,15,versionA_stim.csv,VersionA.csv,"Version A","Dissertation, read only version A",TRIAL,JURY,ON,S,50,160,Test,User,-,,Recall,Recall2,109,,0,-1,-1,0,0,,1
23232,5tuijfzxun,Collector,1,348,2020-03-24T18:55:17+00:00,0.4419469833374,15,versionA_stim.csv,VersionA.csv,"Version A","Dissertation, read only version A",TEMPERATURE,Morning,ON,U,173,139,Test,User,-,,Recall,Recall2,171,,0,-1,-1,0,0,,1
23232,5tuijfzxun,Collector,1,349,2020-03-24T18:55:18+00:00,0.38903117179871,15,versionA_stim.csv,VersionA.csv,"Version A","Dissertation, read only version A",,,,,,0,Instruct,User,-,"You have completed this section. Please press Enter.",,Instruct7,162,,,-1,-1,,,,1
23232,5tuijfzxun,Collector,1,350,2020-03-24T18:55:20+00:00,1.9429159164429,15,versionA_stim.csv,VersionA.csv,"Version A","Dissertation, read only version A",,,,,,0,Instruct,User,-,"The following screen will ask you a few questions abour your experience today.",,Instruct8,1695,,,-1,-1,,,,1
