Username,ID,ExperimentName,Session,Trial,Date,TimeDif,"Condition Number","Stimuli File","Order File","Condition Description","Condition Notes",Stimuli*Cue,Stimuli*Answer,Stimuli*Shuffle,"Stimuli*Stimuli Notes",Stimuli*Value,Procedure*Item,"Procedure*Trial Type","Procedure*Max Time","Procedure*Min Time",Procedure*Text,"Procedure*Procedure Notes",Procedure*Shuffle,Response*RT,Response*Response,Response*Accuracy,Response*RTfirst,Response*RTlast,Response*strictAcc,Response*lenientAcc,Response*focus,Response*JOL,Response*Focus
w10013152_klj,tuhg6bpbzb,Emily_Honors_Thesis_Part_2,1,1,2020-05-05T17:16:13-07:00,13.317897081375,4,versionC_stim.csv,READ_JOLVersionD.csv,"READ Version D",OLD,,,,,,0,Instruct,-,10,"In this section, you will be presented with a series of word pairs. As you study, you will be asked to rate your ability to remember the second item in the pair if you were only shown the first at test. You will make these ratings using a 0 to 100 Scale.",,Instruct13,13051,,,-1,-1,,,,,1
w10013152_klj,tuhg6bpbzb,Emily_Honors_Thesis_Part_2,1,2,2020-05-05T17:16:29-07:00,16.20314002037,4,versionC_stim.csv,READ_JOLVersionD.csv,"READ Version D",OLD,,,,,,0,Instruct,-,10,"For example, if you are given the pair CAT - DOG, a rating of 0 indicates that you would not remember DOG at test, while a rating of 100 indicates full certainty that you would remember the word DOG at test.",,Instruct14,15820,,,-1,-1,,,,,1
w10013152_klj,tuhg6bpbzb,Emily_Honors_Thesis_Part_2,1,3,2020-05-05T17:16:43-07:00,14.130364894867,4,versionC_stim.csv,READ_JOLVersionD.csv,"READ Version D",OLD,,,,,,0,Instruct,-,10,"When making your ratings, it is criticial that you use the full range of the scale. You will be disqualified for only giving ratings of 0 or 100! After making your rating, press Enter to advance to the next pair.",,Instruct15,13734,,,-1,-1,,,,,1
w10013152_klj,tuhg6bpbzb,Emily_Honors_Thesis_Part_2,1,4,2020-05-05T17:16:50-07:00,6.8686981201172,4,versionC_stim.csv,READ_JOLVersionD.csv,"READ Version D",OLD,,,,,,0,Instruct,-,5,"You will now complete a practice session. Please study the following items and rate your ability to remember them.",,Instruct17,6467,,,-1,-1,,,,,1
w10013152_klj,tuhg6bpbzb,Emily_Honors_Thesis_Part_2,1,5,2020-05-05T17:16:56-07:00,6.0519700050354,4,versionC_stim.csv,READ_JOLVersionD.csv,"READ Version D",OLD,FASHION,MODEL,PRACTICE,PRACTICE,190,185,JOL,User,-,"How likely are you to correctly recall the second item in the pair?|Type your response on a scale from 0-100 and then press Enter.",Study/JOL,PRACTICE,5645,,,4384,4797,,,,100,1
w10013152_klj,tuhg6bpbzb,Emily_Honors_Thesis_Part_2,1,6,2020-05-05T17:17:00-07:00,4.1357808113098,4,versionC_stim.csv,READ_JOLVersionD.csv,"READ Version D",OLD,BEHAVIOR,SOCIAL,PRACTICE,PRACTICE,189,183,JOL,User,-,"How likely are you to correctly recall the second item in the pair?|Type your response on a scale from 0-100 and then press Enter.",Study/JOL,PRACTICE,3780,,,3131,3314,,,,80,1
w10013152_klj,tuhg6bpbzb,Emily_Honors_Thesis_Part_2,1,7,2020-05-05T17:17:04-07:00,3.1217839717865,4,versionC_stim.csv,READ_JOLVersionD.csv,"READ Version D",OLD,DEAF,MUTE,PRACTICE,PRACTICE,182,190,JOL,User,-,"How likely are you to correctly recall the second item in the pair?|Type your response on a scale from 0-100 and then press Enter.",Study/JOL,PRACTICE,2751,,,1834,2230,,,,100,1
w10013152_klj,tuhg6bpbzb,Emily_Honors_Thesis_Part_2,1,8,2020-05-05T17:17:10-07:00,6.3398320674896,4,versionC_stim.csv,READ_JOLVersionD.csv,"READ Version D",OLD,AARDVARK,ZOO,PRACTICE,PRACTICE,181,188,JOL,User,-,"How likely are you to correctly recall the second item in the pair?|Type your response on a scale from 0-100 and then press Enter.",Study/JOL,PRACTICE,5980,,,3223,4245,,,,30,1
w10013152_klj,tuhg6bpbzb,Emily_Honors_Thesis_Part_2,1,9,2020-05-05T17:17:14-07:00,3.6769189834595,4,versionC_stim.csv,READ_JOLVersionD.csv,"READ Version D",OLD,DISBELIEVE,SKEPTIC,PRACTICE,PRACTICE,186,186,JOL,User,-,"How likely are you to correctly recall the second item in the pair?|Type your response on a scale from 0-100 and then press Enter.",Study/JOL,PRACTICE,3302,,,2508,2859,,,,100,1
w10013152_klj,tuhg6bpbzb,Emily_Honors_Thesis_Part_2,1,10,2020-05-05T17:17:16-07:00,2.8851001262665,4,versionC_stim.csv,READ_JOLVersionD.csv,"READ Version D",OLD,PADDLE,ROW,PRACTICE,PRACTICE,184,187,JOL,User,-,"How likely are you to correctly recall the second item in the pair?|Type your response on a scale from 0-100 and then press Enter.",Study/JOL,PRACTICE,2522,,,1880,2211,,,,100,1
w10013152_klj,tuhg6bpbzb,Emily_Honors_Thesis_Part_2,1,11,2020-05-05T17:17:20-07:00,3.6624038219452,4,versionC_stim.csv,READ_JOLVersionD.csv,"READ Version D",OLD,HINGE,SWING,PRACTICE,PRACTICE,185,189,JOL,User,-,"How likely are you to correctly recall the second item in the pair?|Type your response on a scale from 0-100 and then press Enter.",Study/JOL,PRACTICE,3299,,,2528,2620,,,,20,1
w10013152_klj,tuhg6bpbzb,Emily_Honors_Thesis_Part_2,1,12,2020-05-05T17:17:22-07:00,2.2694871425629,4,versionC_stim.csv,READ_JOLVersionD.csv,"READ Version D",OLD,CHIME,MUSIC,PRACTICE,PRACTICE,188,191,JOL,User,-,"How likely are you to correctly recall the second item in the pair?|Type your response on a scale from 0-100 and then press Enter.",Study/JOL,PRACTICE,1886,,,1414,1559,,,,20,1
w10013152_klj,tuhg6bpbzb,Emily_Honors_Thesis_Part_2,1,13,2020-05-05T17:17:25-07:00,2.3798060417175,4,versionC_stim.csv,READ_JOLVersionD.csv,"READ Version D",OLD,CHOCOLATE,BAR,PRACTICE,PRACTICE,187,184,JOL,User,-,"How likely are you to correctly recall the second item in the pair?|Type your response on a scale from 0-100 and then press Enter.",Study/JOL,PRACTICE,2003,,,1303,1665,,,,100,1
w10013152_klj,tuhg6bpbzb,Emily_Honors_Thesis_Part_2,1,14,2020-05-05T17:17:28-07:00,3.7828149795532,4,versionC_stim.csv,READ_JOLVersionD.csv,"READ Version D",OLD,HAM,BONE,PRACTICE,PRACTICE,183,182,JOL,User,-,"How likely are you to correctly recall the second item in the pair?|Type your response on a scale from 0-100 and then press Enter.",Study/JOL,PRACTICE,3416,,,2958,3108,,,,50,1
w10013152_klj,tuhg6bpbzb,Emily_Honors_Thesis_Part_2,1,15,2020-05-05T17:17:30-07:00,1.5682878494263,4,versionC_stim.csv,READ_JOLVersionD.csv,"READ Version D",OLD,,,,,,0,Instruct,User,-,"You have completed this section. Please press Enter to continue.",,Instruct18,1277,,,-1,-1,,,,,1
w10013152_klj,tuhg6bpbzb,Emily_Honors_Thesis_Part_2,1,16,2020-05-05T17:17:32-07:00,1.4584782123566,4,versionC_stim.csv,READ_JOLVersionD.csv,"READ Version D",OLD,,,,,,0,Instruct,User,-,"You will now begin the study. Press Enter when you are ready to begin.",,Instruct16,1174,,,-1,-1,,,,,1
w10013152_klj,tuhg6bpbzb,Emily_Honors_Thesis_Part_2,1,17,2020-05-05T17:17:35-07:00,3.9419679641724,4,versionC_stim.csv,READ_JOLVersionD.csv,"READ Version D",OLD,SHED,TOOL,Buffer3,Buffer,178,93,JOL,User,-,"How likely are you to correctly recall the second item in the pair?|Type your response on a scale from 0-100 and then press Enter.",Study/JOL,BUFFER,3582,,,2705,2977,,,,100,1
w10013152_klj,tuhg6bpbzb,Emily_Honors_Thesis_Part_2,1,18,2020-05-05T17:17:43-07:00,7.0587959289551,4,versionC_stim.csv,READ_JOLVersionD.csv,"READ Version D",OLD,WEAKS,DAYS,Buffer3,Buffer,176,96,JOL,User,-,"How likely are you to correctly recall the second item in the pair?|Type your response on a scale from 0-100 and then press Enter.",Study/JOL,BUFFER,6683,,,6161,6299,,,,80,1
w10013152_klj,tuhg6bpbzb,Emily_Honors_Thesis_Part_2,1,19,2020-05-05T17:17:46-07:00,3.2317099571228,4,versionC_stim.csv,READ_JOLVersionD.csv,"READ Version D",OLD,POTATO,CARROT,Buffer3,Buffer,91,94,JOL,User,-,"How likely are you to correctly recall the second item in the pair?|Type your response on a scale from 0-100 and then press Enter.",Study/JOL,BUFFER,2860,,,2445,2578,,,,10,1
w10013152_klj,tuhg6bpbzb,Emily_Honors_Thesis_Part_2,1,20,2020-05-05T17:17:50-07:00,4.1278300285339,4,versionC_stim.csv,READ_JOLVersionD.csv,"READ Version D",OLD,ADVENTURE,CAMP,Buffer3,Buffer,95,92,JOL,User,-,"How likely are you to correctly recall the second item in the pair?|Type your response on a scale from 0-100 and then press Enter.",Study/JOL,BUFFER,3743,,,3269,3270,,,,0,1
w10013152_klj,tuhg6bpbzb,Emily_Honors_Thesis_Part_2,1,21,2020-05-05T17:17:53-07:00,3.3815140724182,4,versionC_stim.csv,READ_JOLVersionD.csv,"READ Version D",OLD,STRING,NOODLE,Buffer3,Buffer,92,95,JOL,User,-,"How likely are you to correctly recall the second item in the pair?|Type your response on a scale from 0-100 and then press Enter.",Study/JOL,BUFFER,3024,,,2298,2404,,,,10,1
w10013152_klj,tuhg6bpbzb,Emily_Honors_Thesis_Part_2,1,22,2020-05-05T17:17:59-07:00,5.5370919704437,4,versionC_stim.csv,READ_JOLVersionD.csv,"READ Version D",OLD,ACTRESS,STAR,ON2,F,120,130,JOL,User,-,"How likely are you to correctly recall the second item in the pair?|Type your response on a scale from 0-100 and then press Enter.",Study/JOL,"Study Phase",5182,,,1426,4796,,,,60,1
w10013152_klj,tuhg6bpbzb,Emily_Honors_Thesis_Part_2,1,23,2020-05-05T17:18:02-07:00,3.3975210189819,4,versionC_stim.csv,READ_JOLVersionD.csv,"READ Version D",OLD,SIGN,LOAN,ON2,U,171,160,JOL,User,-,"How likely are you to correctly recall the second item in the pair?|Type your response on a scale from 0-100 and then press Enter.",Study/JOL,"Study Phase",3017,,,2548,2691,,,,10,1
w10013152_klj,tuhg6bpbzb,Emily_Honors_Thesis_Part_2,1,24,2020-05-05T17:18:04-07:00,1.9737930297852,4,versionC_stim.csv,READ_JOLVersionD.csv,"READ Version D",OLD,STEAK,GIVE,ON2,U,158,173,JOL,User,-,"How likely are you to correctly recall the second item in the pair?|Type your response on a scale from 0-100 and then press Enter.",Study/JOL,"Study Phase",1666,,,1362,1362,,,,0,1
w10013152_klj,tuhg6bpbzb,Emily_Honors_Thesis_Part_2,1,25,2020-05-05T17:18:06-07:00,2.0528228282928,4,versionC_stim.csv,READ_JOLVersionD.csv,"READ Version D",OLD,HATE,NAME,ON2,U,167,140,JOL,User,-,"How likely are you to correctly recall the second item in the pair?|Type your response on a scale from 0-100 and then press Enter.",Study/JOL,"Study Phase",1756,,,1420,1420,,,,0,1
w10013152_klj,tuhg6bpbzb,Emily_Honors_Thesis_Part_2,1,26,2020-05-05T17:18:09-07:00,2.7918770313263,4,versionC_stim.csv,READ_JOLVersionD.csv,"READ Version D",OLD,TICK,FLEA,ON2,S,151,107,JOL,User,-,"How likely are you to correctly recall the second item in the pair?|Type your response on a scale from 0-100 and then press Enter.",Study/JOL,"Study Phase",2465,,,1805,2085,,,,100,1
w10013152_klj,tuhg6bpbzb,Emily_Honors_Thesis_Part_2,1,27,2020-05-05T17:18:12-07:00,2.8275401592255,4,versionC_stim.csv,READ_JOLVersionD.csv,"READ Version D",OLD,STRAWBERRY,FRUIT,ON2,F,124,138,JOL,User,-,"How likely are you to correctly recall the second item in the pair?|Type your response on a scale from 0-100 and then press Enter.",Study/JOL,"Study Phase",2461,,,1838,2146,,,,100,1
w10013152_klj,tuhg6bpbzb,Emily_Honors_Thesis_Part_2,1,28,2020-05-05T17:18:14-07:00,2.3111689090729,4,versionC_stim.csv,READ_JOLVersionD.csv,"READ Version D",OLD,LIE,TRUTH,ON2,S,148,136,JOL,User,-,"How likely are you to correctly recall the second item in the pair?|Type your response on a scale from 0-100 and then press Enter.",Study/JOL,"Study Phase",1954,,,1364,1662,,,,100,1
w10013152_klj,tuhg6bpbzb,Emily_Honors_Thesis_Part_2,1,29,2020-05-05T17:18:17-07:00,2.898864030838,4,versionC_stim.csv,READ_JOLVersionD.csv,"READ Version D",OLD,ABLE,CRACKLE,ON2,U,162,155,JOL,User,-,"How likely are you to correctly recall the second item in the pair?|Type your response on a scale from 0-100 and then press Enter.",Study/JOL,"Study Phase",2532,,,2259,2259,,,,0,1
w10013152_klj,tuhg6bpbzb,Emily_Honors_Thesis_Part_2,1,30,2020-05-05T17:18:19-07:00,2.284677028656,4,versionC_stim.csv,READ_JOLVersionD.csv,"READ Version D",OLD,SEATBELT,SAFETY,ON2,S,147,126,JOL,User,-,"How likely are you to correctly recall the second item in the pair?|Type your response on a scale from 0-100 and then press Enter.",Study/JOL,"Study Phase",1907,,,1365,1632,,,,100,1
w10013152_klj,tuhg6bpbzb,Emily_Honors_Thesis_Part_2,1,31,2020-05-05T17:18:23-07:00,3.5097668170929,4,versionC_stim.csv,READ_JOLVersionD.csv,"READ Version D",OLD,PLANT,CACTUS,ON2,B,98,133,JOL,User,-,"How likely are you to correctly recall the second item in the pair?|Type your response on a scale from 0-100 and then press Enter.",Study/JOL,"Study Phase",3144,,,2299,2619,,,,100,1
w10013152_klj,tuhg6bpbzb,Emily_Honors_Thesis_Part_2,1,32,2020-05-05T17:18:25-07:00,2.4981920719147,4,versionC_stim.csv,READ_JOLVersionD.csv,"READ Version D",OLD,BALLOON,POP,ON2,F,123,158,JOL,User,-,"How likely are you to correctly recall the second item in the pair?|Type your response on a scale from 0-100 and then press Enter.",Study/JOL,"Study Phase",2131,,,1514,1844,,,,100,1
w10013152_klj,tuhg6bpbzb,Emily_Honors_Thesis_Part_2,1,33,2020-05-05T17:18:28-07:00,2.3010261058807,4,versionC_stim.csv,READ_JOLVersionD.csv,"READ Version D",OLD,SARDINE,FISH,ON2,F,130,135,JOL,User,-,"How likely are you to correctly recall the second item in the pair?|Type your response on a scale from 0-100 and then press Enter.",Study/JOL,"Study Phase",1952,,,1371,1675,,,,100,1
w10013152_klj,tuhg6bpbzb,Emily_Honors_Thesis_Part_2,1,34,2020-05-05T17:18:30-07:00,1.919469833374,4,versionC_stim.csv,READ_JOLVersionD.csv,"READ Version D",OLD,NAP,SLEEP,ON2,F,134,159,JOL,User,-,"How likely are you to correctly recall the second item in the pair?|Type your response on a scale from 0-100 and then press Enter.",Study/JOL,"Study Phase",1625,,,975,1288,,,,100,1
w10013152_klj,tuhg6bpbzb,Emily_Honors_Thesis_Part_2,1,35,2020-05-05T17:18:32-07:00,2.4990131855011,4,versionC_stim.csv,READ_JOLVersionD.csv,"READ Version D",OLD,PANTHER,CAT,ON2,F,126,141,JOL,User,-,"How likely are you to correctly recall the second item in the pair?|Type your response on a scale from 0-100 and then press Enter.",Study/JOL,"Study Phase",2134,,,1583,1873,,,,100,1
w10013152_klj,tuhg6bpbzb,Emily_Honors_Thesis_Part_2,1,36,2020-05-05T17:18:34-07:00,2.3802378177643,4,versionC_stim.csv,READ_JOLVersionD.csv,"READ Version D",OLD,FIGHT,FEUD,ON2,B,113,163,JOL,User,-,"How likely are you to correctly recall the second item in the pair?|Type your response on a scale from 0-100 and then press Enter.",Study/JOL,"Study Phase",2017,,,1784,1784,,,,0,1
w10013152_klj,tuhg6bpbzb,Emily_Honors_Thesis_Part_2,1,37,2020-05-05T17:18:37-07:00,2.2763960361481,4,versionC_stim.csv,READ_JOLVersionD.csv,"READ Version D",OLD,DRINK,WATER,ON2,S,143,113,JOL,User,-,"How likely are you to correctly recall the second item in the pair?|Type your response on a scale from 0-100 and then press Enter.",Study/JOL,"Study Phase",1823,,,1277,1565,,,,100,1
w10013152_klj,tuhg6bpbzb,Emily_Honors_Thesis_Part_2,1,38,2020-05-05T17:18:43-07:00,6.4480111598969,4,versionC_stim.csv,READ_JOLVersionD.csv,"READ Version D",OLD,DONKEY,MULE,ON2,B,108,128,JOL,User,-,"How likely are you to correctly recall the second item in the pair?|Type your response on a scale from 0-100 and then press Enter.",Study/JOL,"Study Phase",6078,,,4433,5733,,,,90,1
w10013152_klj,tuhg6bpbzb,Emily_Honors_Thesis_Part_2,1,39,2020-05-05T17:18:45-07:00,2.1381177902222,4,versionC_stim.csv,READ_JOLVersionD.csv,"READ Version D",OLD,MAROON,JUSTICE,ON2,U,156,170,JOL,User,-,"How likely are you to correctly recall the second item in the pair?|Type your response on a scale from 0-100 and then press Enter.",Study/JOL,"Study Phase",1838,,,1588,1588,,,,0,1
w10013152_klj,tuhg6bpbzb,Emily_Honors_Thesis_Part_2,1,40,2020-05-05T17:18:48-07:00,2.5017352104187,4,versionC_stim.csv,READ_JOLVersionD.csv,"READ Version D",OLD,CLOTH,STRETCH,ON2,U,157,146,JOL,User,-,"How likely are you to correctly recall the second item in the pair?|Type your response on a scale from 0-100 and then press Enter.",Study/JOL,"Study Phase",2141,,,1839,1840,,,,0,1
w10013152_klj,tuhg6bpbzb,Emily_Honors_Thesis_Part_2,1,41,2020-05-05T17:18:53-07:00,4.7462809085846,4,versionC_stim.csv,READ_JOLVersionD.csv,"READ Version D",OLD,PAPER,DOCUMENT,ON2,B,109,166,JOL,User,-,"How likely are you to correctly recall the second item in the pair?|Type your response on a scale from 0-100 and then press Enter.",Study/JOL,"Study Phase",4387,,,1209,4049,,,,50,1
w10013152_klj,tuhg6bpbzb,Emily_Honors_Thesis_Part_2,1,42,2020-05-05T17:18:55-07:00,2.0781309604645,4,versionC_stim.csv,READ_JOLVersionD.csv,"READ Version D",OLD,CAR,DRIVER,ON2,B,106,125,JOL,User,-,"How likely are you to correctly recall the second item in the pair?|Type your response on a scale from 0-100 and then press Enter.",Study/JOL,"Study Phase",1775,,,1152,1485,,,,100,1
w10013152_klj,tuhg6bpbzb,Emily_Honors_Thesis_Part_2,1,43,2020-05-05T17:18:56-07:00,1.7699129581451,4,versionC_stim.csv,READ_JOLVersionD.csv,"READ Version D",OLD,END,ADJOURN,ON2,B,101,157,JOL,User,-,"How likely are you to correctly recall the second item in the pair?|Type your response on a scale from 0-100 and then press Enter.",Study/JOL,"Study Phase",1457,,,1176,1176,,,,0,1
w10013152_klj,tuhg6bpbzb,Emily_Honors_Thesis_Part_2,1,44,2020-05-05T17:18:59-07:00,2.4234809875488,4,versionC_stim.csv,READ_JOLVersionD.csv,"READ Version D",OLD,GAME,CLUE,ON2,B,97,129,JOL,User,-,"How likely are you to correctly recall the second item in the pair?|Type your response on a scale from 0-100 and then press Enter.",Study/JOL,"Study Phase",2059,,,1810,1810,,,,0,1
w10013152_klj,tuhg6bpbzb,Emily_Honors_Thesis_Part_2,1,45,2020-05-05T17:19:01-07:00,2.4571399688721,4,versionC_stim.csv,READ_JOLVersionD.csv,"READ Version D",OLD,LEAGUE,BASEBALL,ON2,F,131,123,JOL,User,-,"How likely are you to correctly recall the second item in the pair?|Type your response on a scale from 0-100 and then press Enter.",Study/JOL,"Study Phase",2085,,,1484,1809,,,,100,1
w10013152_klj,tuhg6bpbzb,Emily_Honors_Thesis_Part_2,1,46,2020-05-05T17:19:04-07:00,3.0267782211304,4,versionC_stim.csv,READ_JOLVersionD.csv,"READ Version D",OLD,PENGUIN,BIRD,ON2,F,119,101,JOL,User,-,"How likely are you to correctly recall the second item in the pair?|Type your response on a scale from 0-100 and then press Enter.",Study/JOL,"Study Phase",2539,,,1180,2328,,,,100,1
w10013152_klj,tuhg6bpbzb,Emily_Honors_Thesis_Part_2,1,47,2020-05-05T17:19:06-07:00,1.9196429252625,4,versionC_stim.csv,READ_JOLVersionD.csv,"READ Version D",OLD,SHAVE,RAZOR,ON2,S,136,147,JOL,User,-,"How likely are you to correctly recall the second item in the pair?|Type your response on a scale from 0-100 and then press Enter.",Study/JOL,"Study Phase",1606,,,1005,1351,,,,100,1
w10013152_klj,tuhg6bpbzb,Emily_Honors_Thesis_Part_2,1,48,2020-05-05T17:19:08-07:00,1.7819519042969,4,versionC_stim.csv,READ_JOLVersionD.csv,"READ Version D",OLD,WAX,CANDLE,ON2,S,139,144,JOL,User,-,"How likely are you to correctly recall the second item in the pair?|Type your response on a scale from 0-100 and then press Enter.",Study/JOL,"Study Phase",1478,,,888,1213,,,,100,1
w10013152_klj,tuhg6bpbzb,Emily_Honors_Thesis_Part_2,1,49,2020-05-05T17:19:10-07:00,2.1078541278839,4,versionC_stim.csv,READ_JOLVersionD.csv,"READ Version D",OLD,BANKER,MONEY,ON2,F,132,118,JOL,User,-,"How likely are you to correctly recall the second item in the pair?|Type your response on a scale from 0-100 and then press Enter.",Study/JOL,"Study Phase",1816,,,1569,1569,,,,0,1
w10013152_klj,tuhg6bpbzb,Emily_Honors_Thesis_Part_2,1,50,2020-05-05T17:19:13-07:00,2.635449886322,4,versionC_stim.csv,READ_JOLVersionD.csv,"READ Version D",OLD,EAT,DINE,ON2,B,111,153,JOL,User,-,"How likely are you to correctly recall the second item in the pair?|Type your response on a scale from 0-100 and then press Enter.",Study/JOL,"Study Phase",2284,,,1060,1431,,,,100,1
w10013152_klj,tuhg6bpbzb,Emily_Honors_Thesis_Part_2,1,51,2020-05-05T17:19:15-07:00,2.398530960083,4,versionC_stim.csv,READ_JOLVersionD.csv,"READ Version D",OLD,TOIL,LEASE,ON2,U,170,151,JOL,User,-,"How likely are you to correctly recall the second item in the pair?|Type your response on a scale from 0-100 and then press Enter.",Study/JOL,"Study Phase",2027,,,1729,1729,,,,0,1
w10013152_klj,tuhg6bpbzb,Emily_Honors_Thesis_Part_2,1,52,2020-05-05T17:19:18-07:00,2.3687860965729,4,versionC_stim.csv,READ_JOLVersionD.csv,"READ Version D",OLD,TEMPER,TANTRUM,ON2,S,154,156,JOL,User,-,"How likely are you to correctly recall the second item in the pair?|Type your response on a scale from 0-100 and then press Enter.",Study/JOL,"Study Phase",2000,,,1415,1723,,,,100,1
w10013152_klj,tuhg6bpbzb,Emily_Honors_Thesis_Part_2,1,53,2020-05-05T17:19:21-07:00,3.2000761032104,4,versionC_stim.csv,READ_JOLVersionD.csv,"READ Version D",OLD,TRASH,LITTER,ON2,B,103,143,JOL,User,-,"How likely are you to correctly recall the second item in the pair?|Type your response on a scale from 0-100 and then press Enter.",Study/JOL,"Study Phase",2826,,,2307,2569,,,,100,1
w10013152_klj,tuhg6bpbzb,Emily_Honors_Thesis_Part_2,1,54,2020-05-05T17:19:24-07:00,3.6840817928314,4,versionC_stim.csv,READ_JOLVersionD.csv,"READ Version D",OLD,ELECTION,MAZE,ON2,U,159,152,JOL,User,-,"How likely are you to correctly recall the second item in the pair?|Type your response on a scale from 0-100 and then press Enter.",Study/JOL,"Study Phase",3313,,,1180,3032,,,,0,1
w10013152_klj,tuhg6bpbzb,Emily_Honors_Thesis_Part_2,1,55,2020-05-05T17:19:26-07:00,2.0537750720978,4,versionC_stim.csv,READ_JOLVersionD.csv,"READ Version D",OLD,CUT,CHOP,ON2,B,107,103,JOL,User,-,"How likely are you to correctly recall the second item in the pair?|Type your response on a scale from 0-100 and then press Enter.",Study/JOL,"Study Phase",1750,,,1420,1420,,,,0,1
w10013152_klj,tuhg6bpbzb,Emily_Honors_Thesis_Part_2,1,56,2020-05-05T17:19:32-07:00,5.7777719497681,4,versionC_stim.csv,READ_JOLVersionD.csv,"READ Version D",OLD,CLOTHES,CAKE,ON2,U,166,127,JOL,User,-,"How likely are you to correctly recall the second item in the pair?|Type your response on a scale from 0-100 and then press Enter.",Study/JOL,"Study Phase",5407,,,4829,4829,,,,0,1
w10013152_klj,tuhg6bpbzb,Emily_Honors_Thesis_Part_2,1,57,2020-05-05T17:19:34-07:00,2.0377020835876,4,versionC_stim.csv,READ_JOLVersionD.csv,"READ Version D",OLD,TIE,SHOELACE,ON2,B,99,154,JOL,User,-,"How likely are you to correctly recall the second item in the pair?|Type your response on a scale from 0-100 and then press Enter.",Study/JOL,"Study Phase",1729,,,1182,1497,,,,100,1
w10013152_klj,tuhg6bpbzb,Emily_Honors_Thesis_Part_2,1,58,2020-05-05T17:19:37-07:00,2.3804399967194,4,versionC_stim.csv,READ_JOLVersionD.csv,"READ Version D",OLD,THIMBLE,THREAD,ON2,F,121,168,JOL,User,-,"How likely are you to correctly recall the second item in the pair?|Type your response on a scale from 0-100 and then press Enter.",Study/JOL,"Study Phase",1960,,,1379,1700,,,,100,1
w10013152_klj,tuhg6bpbzb,Emily_Honors_Thesis_Part_2,1,59,2020-05-05T17:19:39-07:00,1.8670599460602,4,versionC_stim.csv,READ_JOLVersionD.csv,"READ Version D",OLD,REVENGE,EVEN,ON2,F,122,119,JOL,User,-,"How likely are you to correctly recall the second item in the pair?|Type your response on a scale from 0-100 and then press Enter.",Study/JOL,"Study Phase",1577,,,1280,1281,,,,0,1
w10013152_klj,tuhg6bpbzb,Emily_Honors_Thesis_Part_2,1,60,2020-05-05T17:19:40-07:00,1.9374580383301,4,versionC_stim.csv,READ_JOLVersionD.csv,"READ Version D",OLD,TRUTHFUL,HONEST,ON2,F,133,162,JOL,User,-,"How likely are you to correctly recall the second item in the pair?|Type your response on a scale from 0-100 and then press Enter.",Study/JOL,"Study Phase",1637,,,1085,1389,,,,100,1
w10013152_klj,tuhg6bpbzb,Emily_Honors_Thesis_Part_2,1,61,2020-05-05T17:19:42-07:00,1.8806791305542,4,versionC_stim.csv,READ_JOLVersionD.csv,"READ Version D",OLD,WET,DRY,ON2,S,146,121,JOL,User,-,"How likely are you to correctly recall the second item in the pair?|Type your response on a scale from 0-100 and then press Enter.",Study/JOL,"Study Phase",1593,,,1036,1341,,,,100,1
w10013152_klj,tuhg6bpbzb,Emily_Honors_Thesis_Part_2,1,62,2020-05-05T17:19:46-07:00,3.2460289001465,4,versionC_stim.csv,READ_JOLVersionD.csv,"READ Version D",OLD,SCAR,MAIN,ON2,U,175,99,JOL,User,-,"How likely are you to correctly recall the second item in the pair?|Type your response on a scale from 0-100 and then press Enter.",Study/JOL,"Study Phase",2768,,,1317,2499,,,,0,1
w10013152_klj,tuhg6bpbzb,Emily_Honors_Thesis_Part_2,1,63,2020-05-05T17:19:48-07:00,1.9228909015656,4,versionC_stim.csv,READ_JOLVersionD.csv,"READ Version D",OLD,BREAKABLE,GLASS,ON2,F,127,171,JOL,User,-,"How likely are you to correctly recall the second item in the pair?|Type your response on a scale from 0-100 and then press Enter.",Study/JOL,"Study Phase",1638,,,1073,1398,,,,100,1
w10013152_klj,tuhg6bpbzb,Emily_Honors_Thesis_Part_2,1,64,2020-05-05T17:19:50-07:00,2.4274041652679,4,versionC_stim.csv,READ_JOLVersionD.csv,"READ Version D",OLD,TAN,SUN,ON2,S,155,112,JOL,User,-,"How likely are you to correctly recall the second item in the pair?|Type your response on a scale from 0-100 and then press Enter.",Study/JOL,"Study Phase",2036,,,1484,1772,,,,100,1
w10013152_klj,tuhg6bpbzb,Emily_Honors_Thesis_Part_2,1,65,2020-05-05T17:19:52-07:00,1.7495088577271,4,versionC_stim.csv,READ_JOLVersionD.csv,"READ Version D",OLD,BANG,FUZZY,ON2,U,168,98,JOL,User,-,"How likely are you to correctly recall the second item in the pair?|Type your response on a scale from 0-100 and then press Enter.",Study/JOL,"Study Phase",1461,,,1148,1149,,,,0,1
w10013152_klj,tuhg6bpbzb,Emily_Honors_Thesis_Part_2,1,66,2020-05-05T17:19:54-07:00,2.4393739700317,4,versionC_stim.csv,READ_JOLVersionD.csv,"READ Version D",OLD,COLD,CHILL,ON2,B,114,164,JOL,User,-,"How likely are you to correctly recall the second item in the pair?|Type your response on a scale from 0-100 and then press Enter.",Study/JOL,"Study Phase",2081,,,1159,1597,,,,100,1
w10013152_klj,tuhg6bpbzb,Emily_Honors_Thesis_Part_2,1,67,2020-05-05T17:19:57-07:00,3.2452130317688,4,versionC_stim.csv,READ_JOLVersionD.csv,"READ Version D",OLD,OUNCE,BOTH,ON2,U,172,137,JOL,User,-,"How likely are you to correctly recall the second item in the pair?|Type your response on a scale from 0-100 and then press Enter.",Study/JOL,"Study Phase",2886,,,1732,1732,,,,0,1
w10013152_klj,tuhg6bpbzb,Emily_Honors_Thesis_Part_2,1,68,2020-05-05T17:20:00-07:00,2.2709219455719,4,versionC_stim.csv,READ_JOLVersionD.csv,"READ Version D",OLD,COMMUNICATION,PHONE,ON2,S,149,117,JOL,User,-,"How likely are you to correctly recall the second item in the pair?|Type your response on a scale from 0-100 and then press Enter.",Study/JOL,"Study Phase",1895,,,1234,1575,,,,100,1
w10013152_klj,tuhg6bpbzb,Emily_Honors_Thesis_Part_2,1,69,2020-05-05T17:20:02-07:00,2.3424620628357,4,versionC_stim.csv,READ_JOLVersionD.csv,"READ Version D",OLD,BRACELET,WRIST,ON2,S,140,148,JOL,User,-,"How likely are you to correctly recall the second item in the pair?|Type your response on a scale from 0-100 and then press Enter.",Study/JOL,"Study Phase",1955,,,1369,1651,,,,100,1
w10013152_klj,tuhg6bpbzb,Emily_Honors_Thesis_Part_2,1,70,2020-05-05T17:20:04-07:00,1.9664480686188,4,versionC_stim.csv,READ_JOLVersionD.csv,"READ Version D",OLD,LOVE,AFFECTION,ON2,B,115,165,JOL,User,-,"How likely are you to correctly recall the second item in the pair?|Type your response on a scale from 0-100 and then press Enter.",Study/JOL,"Study Phase",1661,,,960,1357,,,,100,1
w10013152_klj,tuhg6bpbzb,Emily_Honors_Thesis_Part_2,1,71,2020-05-05T17:20:06-07:00,2.0410070419312,4,versionC_stim.csv,READ_JOLVersionD.csv,"READ Version D",OLD,CHARM,VEHICLE,ON2,U,160,106,JOL,User,-,"How likely are you to correctly recall the second item in the pair?|Type your response on a scale from 0-100 and then press Enter.",Study/JOL,"Study Phase",1737,,,1345,1346,,,,0,1
w10013152_klj,tuhg6bpbzb,Emily_Honors_Thesis_Part_2,1,72,2020-05-05T17:20:08-07:00,2.1190319061279,4,versionC_stim.csv,READ_JOLVersionD.csv,"READ Version D",OLD,COFFIN,DEAD,ON2,F,128,149,JOL,User,-,"How likely are you to correctly recall the second item in the pair?|Type your response on a scale from 0-100 and then press Enter.",Study/JOL,"Study Phase",1814,,,1151,1442,,,,100,1
w10013152_klj,tuhg6bpbzb,Emily_Honors_Thesis_Part_2,1,73,2020-05-05T17:20:10-07:00,2.3011829853058,4,versionC_stim.csv,READ_JOLVersionD.csv,"READ Version D",OLD,EQUAL,RIGHTS,ON2,S,137,161,JOL,User,-,"How likely are you to correctly recall the second item in the pair?|Type your response on a scale from 0-100 and then press Enter.",Study/JOL,"Study Phase",1895,,,1250,1644,,,,100,1
w10013152_klj,tuhg6bpbzb,Emily_Honors_Thesis_Part_2,1,74,2020-05-05T17:20:12-07:00,1.7279591560364,4,versionC_stim.csv,READ_JOLVersionD.csv,"READ Version D",OLD,RED,CHERRY,ON2,B,104,175,JOL,User,-,"How likely are you to correctly recall the second item in the pair?|Type your response on a scale from 0-100 and then press Enter.",Study/JOL,"Study Phase",1434,,,764,1148,,,,100,1
w10013152_klj,tuhg6bpbzb,Emily_Honors_Thesis_Part_2,1,75,2020-05-05T17:20:15-07:00,2.8148307800293,4,versionC_stim.csv,READ_JOLVersionD.csv,"READ Version D",OLD,OBTAIN,MEAT,ON2,U,161,110,JOL,User,-,"How likely are you to correctly recall the second item in the pair?|Type your response on a scale from 0-100 and then press Enter.",Study/JOL,"Study Phase",2270,,,1881,1881,,,,0,1
w10013152_klj,tuhg6bpbzb,Emily_Honors_Thesis_Part_2,1,76,2020-05-05T17:20:18-07:00,2.6035151481628,4,versionC_stim.csv,READ_JOLVersionD.csv,"READ Version D",OLD,DOG,FURRY,ON2,B,102,100,JOL,User,-,"How likely are you to correctly recall the second item in the pair?|Type your response on a scale from 0-100 and then press Enter.",Study/JOL,"Study Phase",2251,,,934,1939,,,,100,1
w10013152_klj,tuhg6bpbzb,Emily_Honors_Thesis_Part_2,1,77,2020-05-05T17:20:20-07:00,2.2640378475189,4,versionC_stim.csv,READ_JOLVersionD.csv,"READ Version D",OLD,SHAKE,SHELL,ON2,U,163,120,JOL,User,-,"How likely are you to correctly recall the second item in the pair?|Type your response on a scale from 0-100 and then press Enter.",Study/JOL,"Study Phase",1871,,,1401,1402,,,,0,1
w10013152_klj,tuhg6bpbzb,Emily_Honors_Thesis_Part_2,1,78,2020-05-05T17:20:22-07:00,2.4340090751648,4,versionC_stim.csv,READ_JOLVersionD.csv,"READ Version D",OLD,WINDSHIELD,CAR,ON2,F,117,176,JOL,User,-,"How likely are you to correctly recall the second item in the pair?|Type your response on a scale from 0-100 and then press Enter.",Study/JOL,"Study Phase",2072,,,1504,1784,,,,100,1
w10013152_klj,tuhg6bpbzb,Emily_Honors_Thesis_Part_2,1,79,2020-05-05T17:20:24-07:00,2.018728017807,4,versionC_stim.csv,READ_JOLVersionD.csv,"READ Version D",OLD,MYSTERY,DETECTIVE,ON2,B,100,167,JOL,User,-,"How likely are you to correctly recall the second item in the pair?|Type your response on a scale from 0-100 and then press Enter.",Study/JOL,"Study Phase",1708,,,1019,1393,,,,100,1
w10013152_klj,tuhg6bpbzb,Emily_Honors_Thesis_Part_2,1,80,2020-05-05T17:20:27-07:00,3.1398429870605,4,versionC_stim.csv,READ_JOLVersionD.csv,"READ Version D",OLD,GROUND,EARTH,ON2,S,144,174,JOL,User,-,"How likely are you to correctly recall the second item in the pair?|Type your response on a scale from 0-100 and then press Enter.",Study/JOL,"Study Phase",2736,,,2446,2446,,,,0,1
w10013152_klj,tuhg6bpbzb,Emily_Honors_Thesis_Part_2,1,81,2020-05-05T17:20:30-07:00,2.659637928009,4,versionC_stim.csv,READ_JOLVersionD.csv,"READ Version D",OLD,AIRCRAFT,PLANE,ON2,F,129,150,JOL,User,-,"How likely are you to correctly recall the second item in the pair?|Type your response on a scale from 0-100 and then press Enter.",Study/JOL,"Study Phase",2304,,,1761,2055,,,,100,1
w10013152_klj,tuhg6bpbzb,Emily_Honors_Thesis_Part_2,1,82,2020-05-05T17:20:34-07:00,4.2778191566467,4,versionC_stim.csv,READ_JOLVersionD.csv,"READ Version D",OLD,LONG,EXTENSION,ON2,B,96,169,JOL,User,-,"How likely are you to correctly recall the second item in the pair?|Type your response on a scale from 0-100 and then press Enter.",Study/JOL,"Study Phase",3910,,,3314,3490,,,,70,1
w10013152_klj,tuhg6bpbzb,Emily_Honors_Thesis_Part_2,1,83,2020-05-05T17:20:38-07:00,3.9620418548584,4,versionC_stim.csv,READ_JOLVersionD.csv,"READ Version D",OLD,HEAD,SCALP,ON2,B,105,111,JOL,User,-,"How likely are you to correctly recall the second item in the pair?|Type your response on a scale from 0-100 and then press Enter.",Study/JOL,"Study Phase",3578,,,2589,2992,,,,100,1
w10013152_klj,tuhg6bpbzb,Emily_Honors_Thesis_Part_2,1,84,2020-05-05T17:20:40-07:00,2.0964322090149,4,versionC_stim.csv,READ_JOLVersionD.csv,"READ Version D",OLD,CLEAR,MOAT,ON2,U,169,145,JOL,User,-,"How likely are you to correctly recall the second item in the pair?|Type your response on a scale from 0-100 and then press Enter.",Study/JOL,"Study Phase",1801,,,1512,1512,,,,0,1
w10013152_klj,tuhg6bpbzb,Emily_Honors_Thesis_Part_2,1,85,2020-05-05T17:20:47-07:00,6.7768588066101,4,versionC_stim.csv,READ_JOLVersionD.csv,"READ Version D",OLD,FAVORITE,BEST,ON2,F,125,108,JOL,User,-,"How likely are you to correctly recall the second item in the pair?|Type your response on a scale from 0-100 and then press Enter.",Study/JOL,"Study Phase",6337,,,5926,6050,,,,80,1
w10013152_klj,tuhg6bpbzb,Emily_Honors_Thesis_Part_2,1,86,2020-05-05T17:20:50-07:00,2.816682100296,4,versionC_stim.csv,READ_JOLVersionD.csv,"READ Version D",OLD,VILLAIN,BAD,ON2,F,118,109,JOL,User,-,"How likely are you to correctly recall the second item in the pair?|Type your response on a scale from 0-100 and then press Enter.",Study/JOL,"Study Phase",2449,,,1715,2187,,,,100,1
w10013152_klj,tuhg6bpbzb,Emily_Honors_Thesis_Part_2,1,87,2020-05-05T17:20:52-07:00,2.2814018726349,4,versionC_stim.csv,READ_JOLVersionD.csv,"READ Version D",OLD,JOKE,KEYS,ON2,U,165,114,JOL,User,-,"How likely are you to correctly recall the second item in the pair?|Type your response on a scale from 0-100 and then press Enter.",Study/JOL,"Study Phase",1890,,,1492,1492,,,,0,1
w10013152_klj,tuhg6bpbzb,Emily_Honors_Thesis_Part_2,1,88,2020-05-05T17:20:57-07:00,4.8792860507965,4,versionC_stim.csv,READ_JOLVersionD.csv,"READ Version D",OLD,AWAY,GONE,ON2,S,142,102,JOL,User,-,"How likely are you to correctly recall the second item in the pair?|Type your response on a scale from 0-100 and then press Enter.",Study/JOL,"Study Phase",4516,,,2548,4210,,,,40,1
w10013152_klj,tuhg6bpbzb,Emily_Honors_Thesis_Part_2,1,89,2020-05-05T17:21:02-07:00,5.1913659572601,4,versionC_stim.csv,READ_JOLVersionD.csv,"READ Version D",OLD,HAVE,OWN,ON2,S,153,172,JOL,User,-,"How likely are you to correctly recall the second item in the pair?|Type your response on a scale from 0-100 and then press Enter.",Study/JOL,"Study Phase",4829,,,1617,4418,,,,80,1
w10013152_klj,tuhg6bpbzb,Emily_Honors_Thesis_Part_2,1,90,2020-05-05T17:21:05-07:00,2.6739411354065,4,versionC_stim.csv,READ_JOLVersionD.csv,"READ Version D",OLD,CHILDREN,MIRROR,ON2,U,174,134,JOL,User,-,"How likely are you to correctly recall the second item in the pair?|Type your response on a scale from 0-100 and then press Enter.",Study/JOL,"Study Phase",2320,,,1671,1671,,,,0,1
w10013152_klj,tuhg6bpbzb,Emily_Honors_Thesis_Part_2,1,91,2020-05-05T17:21:09-07:00,4.2871859073639,4,versionC_stim.csv,READ_JOLVersionD.csv,"READ Version D",OLD,LONELY,ALONE,ON2,S,145,131,JOL,User,-,"How likely are you to correctly recall the second item in the pair?|Type your response on a scale from 0-100 and then press Enter.",Study/JOL,"Study Phase",3898,,,2960,3318,,,,100,1
w10013152_klj,tuhg6bpbzb,Emily_Honors_Thesis_Part_2,1,92,2020-05-05T17:21:11-07:00,2.128191947937,4,versionC_stim.csv,READ_JOLVersionD.csv,"READ Version D",OLD,FLIP,TURN,ON2,F,116,115,JOL,User,-,"How likely are you to correctly recall the second item in the pair?|Type your response on a scale from 0-100 and then press Enter.",Study/JOL,"Study Phase",1828,,,1211,1502,,,,100,1
w10013152_klj,tuhg6bpbzb,Emily_Honors_Thesis_Part_2,1,93,2020-05-05T17:21:14-07:00,2.4289472103119,4,versionC_stim.csv,READ_JOLVersionD.csv,"READ Version D",OLD,SMELL,INCENSE,ON2,B,110,97,JOL,User,-,"How likely are you to correctly recall the second item in the pair?|Type your response on a scale from 0-100 and then press Enter.",Study/JOL,"Study Phase",2069,,,994,1368,,,,100,1
w10013152_klj,tuhg6bpbzb,Emily_Honors_Thesis_Part_2,1,94,2020-05-05T17:21:16-07:00,2.2709319591522,4,versionC_stim.csv,READ_JOLVersionD.csv,"READ Version D",OLD,SCISSORS,SHEARS,ON2,B,112,122,JOL,User,-,"How likely are you to correctly recall the second item in the pair?|Type your response on a scale from 0-100 and then press Enter.",Study/JOL,"Study Phase",1895,,,1074,1596,,,,100,1
w10013152_klj,tuhg6bpbzb,Emily_Honors_Thesis_Part_2,1,95,2020-05-05T17:21:21-07:00,4.3986339569092,4,versionC_stim.csv,READ_JOLVersionD.csv,"READ Version D",OLD,MORNING,TEMPERATURE,ON2,U,173,132,JOL,User,-,"How likely are you to correctly recall the second item in the pair?|Type your response on a scale from 0-100 and then press Enter.",Study/JOL,"Study Phase",4013,,,2103,2626,,,,100,1
w10013152_klj,tuhg6bpbzb,Emily_Honors_Thesis_Part_2,1,96,2020-05-05T17:21:23-07:00,2.3395428657532,4,versionC_stim.csv,READ_JOLVersionD.csv,"READ Version D",OLD,JAR,MASON,ON2,S,138,142,JOL,User,-,"How likely are you to correctly recall the second item in the pair?|Type your response on a scale from 0-100 and then press Enter.",Study/JOL,"Study Phase",1991,,,1270,1698,,,,100,1
w10013152_klj,tuhg6bpbzb,Emily_Honors_Thesis_Part_2,1,97,2020-05-05T17:21:28-07:00,4.6104590892792,4,versionC_stim.csv,READ_JOLVersionD.csv,"READ Version D",OLD,CARBON,ELEMENT,ON2,S,141,124,JOL,User,-,"How likely are you to correctly recall the second item in the pair?|Type your response on a scale from 0-100 and then press Enter.",Study/JOL,"Study Phase",4243,,,2127,3929,,,,40,1
w10013152_klj,tuhg6bpbzb,Emily_Honors_Thesis_Part_2,1,98,2020-05-05T17:21:30-07:00,2.6037359237671,4,versionC_stim.csv,READ_JOLVersionD.csv,"READ Version D",OLD,FICTION,LISTEN,ON2,U,164,105,JOL,User,-,"How likely are you to correctly recall the second item in the pair?|Type your response on a scale from 0-100 and then press Enter.",Study/JOL,"Study Phase",2238,,,1169,1349,,,,30,1
w10013152_klj,tuhg6bpbzb,Emily_Honors_Thesis_Part_2,1,99,2020-05-05T17:21:34-07:00,4.1339380741119,4,versionC_stim.csv,READ_JOLVersionD.csv,"READ Version D",OLD,BRAWL,FIGHT,ON2,F,135,116,JOL,User,-,"How likely are you to correctly recall the second item in the pair?|Type your response on a scale from 0-100 and then press Enter.",Study/JOL,"Study Phase",3743,,,3180,3416,,,,20,1
w10013152_klj,tuhg6bpbzb,Emily_Honors_Thesis_Part_2,1,100,2020-05-05T17:21:36-07:00,2.0960199832916,4,versionC_stim.csv,READ_JOLVersionD.csv,"READ Version D",OLD,NOISE,LOUD,ON2,S,152,104,JOL,User,-,"How likely are you to correctly recall the second item in the pair?|Type your response on a scale from 0-100 and then press Enter.",Study/JOL,"Study Phase",1790,,,1252,1387,,,,10,1
w10013152_klj,tuhg6bpbzb,Emily_Honors_Thesis_Part_2,1,101,2020-05-05T17:21:39-07:00,2.2773439884186,4,versionC_stim.csv,READ_JOLVersionD.csv,"READ Version D",OLD,REEL,ROD,ON2,S,150,139,JOL,User,-,"How likely are you to correctly recall the second item in the pair?|Type your response on a scale from 0-100 and then press Enter.",Study/JOL,"Study Phase",1854,,,1374,1529,,,,20,1
w10013152_klj,tuhg6bpbzb,Emily_Honors_Thesis_Part_2,1,102,2020-05-05T17:21:41-07:00,2.3854141235352,4,versionC_stim.csv,READ_JOLVersionD.csv,"READ Version D",OLD,YEAR,MONTH,Buffer3,Buffer,177,179,JOL,User,-,"How likely are you to correctly recall the second item in the pair?|Type your response on a scale from 0-100 and then press Enter.",Study/JOL,BUFFER2,1995,,,1101,1662,,,,100,1
w10013152_klj,tuhg6bpbzb,Emily_Honors_Thesis_Part_2,1,103,2020-05-05T17:21:43-07:00,1.7683868408203,4,versionC_stim.csv,READ_JOLVersionD.csv,"READ Version D",OLD,FROZEN,ICE,Buffer3,Buffer,94,178,JOL,User,-,"How likely are you to correctly recall the second item in the pair?|Type your response on a scale from 0-100 and then press Enter.",Study/JOL,BUFFER2,1478,,,810,1207,,,,100,1
w10013152_klj,tuhg6bpbzb,Emily_Honors_Thesis_Part_2,1,104,2020-05-05T17:21:45-07:00,1.8529570102692,4,versionC_stim.csv,READ_JOLVersionD.csv,"READ Version D",OLD,FISH,SHRIMP,Buffer3,Buffer,93,180,JOL,User,-,"How likely are you to correctly recall the second item in the pair?|Type your response on a scale from 0-100 and then press Enter.",Study/JOL,BUFFER2,1570,,,888,1309,,,,100,1
w10013152_klj,tuhg6bpbzb,Emily_Honors_Thesis_Part_2,1,105,2020-05-05T17:21:49-07:00,4.8111321926117,4,versionC_stim.csv,READ_JOLVersionD.csv,"READ Version D",OLD,SPOOKY,OCTOBER,Buffer3,Buffer,180,181,JOL,User,-,"How likely are you to correctly recall the second item in the pair?|Type your response on a scale from 0-100 and then press Enter.",Study/JOL,BUFFER2,4466,,,2065,4093,,,,90,1
w10013152_klj,tuhg6bpbzb,Emily_Honors_Thesis_Part_2,1,106,2020-05-05T17:21:53-07:00,3.3136959075928,4,versionC_stim.csv,READ_JOLVersionD.csv,"READ Version D",OLD,MARCH,SPRING,Buffer3,Buffer,179,177,JOL,User,-,"How likely are you to correctly recall the second item in the pair?|Type your response on a scale from 0-100 and then press Enter.",Study/JOL,BUFFER2,2957,,,2485,2578,,,,90,1
w10013152_klj,tuhg6bpbzb,Emily_Honors_Thesis_Part_2,1,107,2020-05-05T17:21:54-07:00,1.2077639102936,4,versionC_stim.csv,READ_JOLVersionD.csv,"READ Version D",OLD,,,,,,0,Instruct,User,-,"You have completed this section. Please press Enter.",Filler_Instruction,Instruct2,922,,,-1,-1,,,,,1
w10013152_klj,tuhg6bpbzb,Emily_Honors_Thesis_Part_2,1,108,2020-05-05T17:23:54-07:00,120.41279315948,4,versionC_stim.csv,READ_JOLVersionD.csv,"READ Version D",OLD,,,,,,0,FreeRecall,120,120,"Please list the 50 US states in alphabetical order. The task will automatically advance to the next screen after two minutes.",,Filler1,120010,"Alabama Alaska Arizona Arkansas California Colorado conniticuit Delaware Georgia florida Hawaii Idaho Illinois Indiana iowa Kansas Kentucky Louisiana maine Maryland massechusetts Michigan Minnesota Mississippi Missouri montana Nebraska Nevada New Hampshire New Jersey Newme",0,6994,118832,0,0,,,1
w10013152_klj,tuhg6bpbzb,Emily_Honors_Thesis_Part_2,1,109,2020-05-05T17:24:06-07:00,11.867762804031,4,versionC_stim.csv,READ_JOLVersionD.csv,"READ Version D",OLD,,,,,,0,Instruct,-,10,"You will now be presented with the first word from each of the previously studied item pairs. Please type the missing word. If you do not know the word, you may guess or press Enter to skip forward to the next pair.",,Instruct3,11503,,,-1,-1,,,,,1
w10013152_klj,tuhg6bpbzb,Emily_Honors_Thesis_Part_2,1,110,2020-05-05T17:24:12-07:00,6.2158541679382,4,versionC_stim.csv,READ_JOLVersionD.csv,"READ Version D",OLD,TAN,SUN,ON2,S,155,112,Test,User,-,,Recall,Recall1,5829,SUN,100,5194,5495,1,1,,,1
w10013152_klj,tuhg6bpbzb,Emily_Honors_Thesis_Part_2,1,111,2020-05-05T17:24:19-07:00,6.7178978919983,4,versionC_stim.csv,READ_JOLVersionD.csv,"READ Version D",OLD,HAVE,OWN,ON2,S,153,172,Test,User,-,,Recall,Recall1,6361,OWN,100,3747,5906,1,1,,,1
w10013152_klj,tuhg6bpbzb,Emily_Honors_Thesis_Part_2,1,112,2020-05-05T17:24:25-07:00,6.0180270671844,4,versionC_stim.csv,READ_JOLVersionD.csv,"READ Version D",OLD,TRUTHFUL,HONEST,ON2,F,133,162,Test,User,-,,Recall,Recall1,5638,Honest,100,4335,5198,1,1,,,1
w10013152_klj,tuhg6bpbzb,Emily_Honors_Thesis_Part_2,1,113,2020-05-05T17:24:28-07:00,2.325807094574,4,versionC_stim.csv,READ_JOLVersionD.csv,"READ Version D",OLD,FAVORITE,BEST,ON2,F,125,108,Test,User,-,,Recall,Recall1,1949,best,100,1163,1558,1,1,,,1
w10013152_klj,tuhg6bpbzb,Emily_Honors_Thesis_Part_2,1,114,2020-05-05T17:24:34-07:00,6.2183728218079,4,versionC_stim.csv,READ_JOLVersionD.csv,"READ Version D",OLD,BANG,FUZZY,ON2,U,168,98,Test,User,-,,Recall,Recall1,5853,0,0,5545,5546,0,0,,,1
w10013152_klj,tuhg6bpbzb,Emily_Honors_Thesis_Part_2,1,115,2020-05-05T17:24:37-07:00,3.1318261623383,4,versionC_stim.csv,READ_JOLVersionD.csv,"READ Version D",OLD,SARDINE,FISH,ON2,F,130,135,Test,User,-,,Recall,Recall1,2766,FISH,100,1989,2438,1,1,,,1
w10013152_klj,tuhg6bpbzb,Emily_Honors_Thesis_Part_2,1,116,2020-05-05T17:24:43-07:00,6.6015269756317,4,versionC_stim.csv,READ_JOLVersionD.csv,"READ Version D",OLD,TIE,SHOELACE,ON2,B,99,154,Test,User,-,,Recall,Recall1,6258,Shoelaces,94.117647058824,3593,5504,0,1,,,1
w10013152_klj,tuhg6bpbzb,Emily_Honors_Thesis_Part_2,1,117,2020-05-05T17:24:47-07:00,3.0838339328766,4,versionC_stim.csv,READ_JOLVersionD.csv,"READ Version D",OLD,DRINK,WATER,ON2,S,143,113,Test,User,-,,Recall,Recall1,2709,water,100,1296,2423,1,1,,,1
w10013152_klj,tuhg6bpbzb,Emily_Honors_Thesis_Part_2,1,118,2020-05-05T17:24:50-07:00,3.0578229427338,4,versionC_stim.csv,READ_JOLVersionD.csv,"READ Version D",OLD,COLD,CHILL,ON2,B,114,164,Test,User,-,,Recall,Recall1,2671,chilly,90.909090909091,1622,2429,0,1,,,1
w10013152_klj,tuhg6bpbzb,Emily_Honors_Thesis_Part_2,1,119,2020-05-05T17:24:53-07:00,3.6038789749146,4,versionC_stim.csv,READ_JOLVersionD.csv,"READ Version D",OLD,VILLAIN,BAD,ON2,F,118,109,Test,User,-,,Recall,Recall1,3228,bad,100,2700,2982,1,1,,,1
w10013152_klj,tuhg6bpbzb,Emily_Honors_Thesis_Part_2,1,120,2020-05-05T17:24:56-07:00,2.6852381229401,4,versionC_stim.csv,READ_JOLVersionD.csv,"READ Version D",OLD,BRAWL,FIGHT,ON2,F,135,116,Test,User,-,,Recall,Recall1,1907,fight,100,1259,1746,1,1,,,1
w10013152_klj,tuhg6bpbzb,Emily_Honors_Thesis_Part_2,1,121,2020-05-05T17:25:05-07:00,9.1795830726624,4,versionC_stim.csv,READ_JOLVersionD.csv,"READ Version D",OLD,SMELL,INCENSE,ON2,B,110,97,Test,User,-,,Recall,Recall1,8815,insence,57.142857142857,2672,8181,0,0,,,1
w10013152_klj,tuhg6bpbzb,Emily_Honors_Thesis_Part_2,1,122,2020-05-05T17:25:11-07:00,6.3172497749329,4,versionC_stim.csv,READ_JOLVersionD.csv,"READ Version D",OLD,JOKE,KEYS,ON2,U,165,114,Test,User,-,,Recall,Recall1,5927,funny,22.222222222222,2379,3197,0,0,,,1
w10013152_klj,tuhg6bpbzb,Emily_Honors_Thesis_Part_2,1,123,2020-05-05T17:25:16-07:00,4.9115810394287,4,versionC_stim.csv,READ_JOLVersionD.csv,"READ Version D",OLD,MORNING,TEMPERATURE,ON2,U,173,132,Test,User,-,,Recall,Recall1,4521,temperatures,95.652173913043,1956,3835,0,1,,,1
w10013152_klj,tuhg6bpbzb,Emily_Honors_Thesis_Part_2,1,124,2020-05-05T17:25:22-07:00,5.7758400440216,4,versionC_stim.csv,READ_JOLVersionD.csv,"READ Version D",OLD,HEAD,SCALP,ON2,B,105,111,Test,User,-,,Recall,Recall1,5400,scalp,100,3269,4774,1,1,,,1
w10013152_klj,tuhg6bpbzb,Emily_Honors_Thesis_Part_2,1,125,2020-05-05T17:25:25-07:00,2.7504351139069,4,versionC_stim.csv,READ_JOLVersionD.csv,"READ Version D",OLD,OUNCE,BOTH,ON2,U,172,137,Test,User,-,,Recall,Recall1,2367,o,40,2068,2068,0,0,,,1
w10013152_klj,tuhg6bpbzb,Emily_Honors_Thesis_Part_2,1,126,2020-05-05T17:25:30-07:00,5.6563518047333,4,versionC_stim.csv,READ_JOLVersionD.csv,"READ Version D",OLD,MYSTERY,DETECTIVE,ON2,B,100,167,Test,User,-,,Recall,Recall1,5287,0,0,4649,4649,0,0,,,1
w10013152_klj,tuhg6bpbzb,Emily_Honors_Thesis_Part_2,1,127,2020-05-05T17:25:33-07:00,2.3354811668396,4,versionC_stim.csv,READ_JOLVersionD.csv,"READ Version D",OLD,BANKER,MONEY,ON2,F,132,118,Test,User,-,,Recall,Recall1,1967,0,0,1664,1664,0,0,,,1
w10013152_klj,tuhg6bpbzb,Emily_Honors_Thesis_Part_2,1,128,2020-05-05T17:25:35-07:00,2.2674899101257,4,versionC_stim.csv,READ_JOLVersionD.csv,"READ Version D",OLD,LONELY,ALONE,ON2,S,145,131,Test,User,-,,Recall,Recall1,1870,alone,100,1075,1637,1,1,,,1
w10013152_klj,tuhg6bpbzb,Emily_Honors_Thesis_Part_2,1,129,2020-05-05T17:25:37-07:00,2.3275289535522,4,versionC_stim.csv,READ_JOLVersionD.csv,"READ Version D",OLD,NAP,SLEEP,ON2,F,134,159,Test,User,-,,Recall,Recall1,1966,sleep,100,1019,1642,1,1,,,1
w10013152_klj,tuhg6bpbzb,Emily_Honors_Thesis_Part_2,1,130,2020-05-05T17:25:45-07:00,7.2668170928955,4,versionC_stim.csv,READ_JOLVersionD.csv,"READ Version D",OLD,REVENGE,EVEN,ON2,F,122,119,Test,User,-,,Recall,Recall1,6895,0,0,6052,6052,0,0,,,1
w10013152_klj,tuhg6bpbzb,Emily_Honors_Thesis_Part_2,1,131,2020-05-05T17:25:48-07:00,2.825336933136,4,versionC_stim.csv,READ_JOLVersionD.csv,"READ Version D",OLD,HATE,NAME,ON2,U,167,140,Test,User,-,,Recall,Recall1,2465,0,0,2107,2107,0,0,,,1
w10013152_klj,tuhg6bpbzb,Emily_Honors_Thesis_Part_2,1,132,2020-05-05T17:25:52-07:00,4.9410231113434,4,versionC_stim.csv,READ_JOLVersionD.csv,"READ Version D",OLD,END,ADJOURN,ON2,B,101,157,Test,User,-,,Recall,Recall1,4572,0,0,4118,4119,0,0,,,1
w10013152_klj,tuhg6bpbzb,Emily_Honors_Thesis_Part_2,1,133,2020-05-05T17:25:57-07:00,4.506206035614,4,versionC_stim.csv,READ_JOLVersionD.csv,"READ Version D",OLD,CHILDREN,MIRROR,ON2,U,174,134,Test,User,-,,Recall,Recall1,4121,Mirrors,92.307692307692,2293,3656,0,1,,,1
w10013152_klj,tuhg6bpbzb,Emily_Honors_Thesis_Part_2,1,134,2020-05-05T17:26:00-07:00,3.1054589748383,4,versionC_stim.csv,READ_JOLVersionD.csv,"READ Version D",OLD,LEAGUE,BASEBALL,ON2,F,131,123,Test,User,-,,Recall,Recall1,2731,baseball,100,1438,2520,1,1,,,1
w10013152_klj,tuhg6bpbzb,Emily_Honors_Thesis_Part_2,1,135,2020-05-05T17:26:07-07:00,6.963565826416,4,versionC_stim.csv,READ_JOLVersionD.csv,"READ Version D",OLD,OBTAIN,MEAT,ON2,U,161,110,Test,User,-,,Recall,Recall1,6597,Have,25,2573,6306,0,0,,,1
w10013152_klj,tuhg6bpbzb,Emily_Honors_Thesis_Part_2,1,136,2020-05-05T17:26:15-07:00,8.1463570594788,4,versionC_stim.csv,READ_JOLVersionD.csv,"READ Version D",OLD,TEMPER,TANTRUM,ON2,S,154,156,Test,User,-,,Recall,Recall1,7768,tantrum,100,1388,7277,1,1,,,1
w10013152_klj,tuhg6bpbzb,Emily_Honors_Thesis_Part_2,1,137,2020-05-05T17:26:18-07:00,2.4439649581909,4,versionC_stim.csv,READ_JOLVersionD.csv,"READ Version D",OLD,CHARM,VEHICLE,ON2,U,160,106,Test,User,-,,Recall,Recall1,2072,0,0,1607,1608,0,0,,,1
w10013152_klj,tuhg6bpbzb,Emily_Honors_Thesis_Part_2,1,138,2020-05-05T17:26:26-07:00,8.5250871181488,4,versionC_stim.csv,READ_JOLVersionD.csv,"READ Version D",OLD,DONKEY,MULE,ON2,B,108,128,Test,User,-,,Recall,Recall1,8150,Mule,100,6126,7923,1,1,,,1
w10013152_klj,tuhg6bpbzb,Emily_Honors_Thesis_Part_2,1,139,2020-05-05T17:26:30-07:00,3.6576850414276,4,versionC_stim.csv,READ_JOLVersionD.csv,"READ Version D",OLD,RED,CHERRY,ON2,B,104,175,Test,User,-,,Recall,Recall1,3264,0,0,1725,1725,0,0,,,1
w10013152_klj,tuhg6bpbzb,Emily_Honors_Thesis_Part_2,1,140,2020-05-05T17:26:33-07:00,3.3373098373413,4,versionC_stim.csv,READ_JOLVersionD.csv,"READ Version D",OLD,CLOTHES,CAKE,ON2,U,166,127,Test,User,-,,Recall,Recall1,2966,0,0,1437,1437,0,0,,,1
w10013152_klj,tuhg6bpbzb,Emily_Honors_Thesis_Part_2,1,141,2020-05-05T17:26:36-07:00,3.3480370044708,4,versionC_stim.csv,READ_JOLVersionD.csv,"READ Version D",OLD,CARBON,ELEMENT,ON2,S,141,124,Test,User,-,,Recall,Recall1,2972,Element,100,1433,2648,1,1,,,1
w10013152_klj,tuhg6bpbzb,Emily_Honors_Thesis_Part_2,1,142,2020-05-05T17:26:41-07:00,4.4359710216522,4,versionC_stim.csv,READ_JOLVersionD.csv,"READ Version D",OLD,FLIP,TURN,ON2,F,116,115,Test,User,-,,Recall,Recall1,4072,Turn,100,3331,3828,1,1,,,1
w10013152_klj,tuhg6bpbzb,Emily_Honors_Thesis_Part_2,1,143,2020-05-05T17:26:46-07:00,4.6799299716949,4,versionC_stim.csv,READ_JOLVersionD.csv,"READ Version D",OLD,PANTHER,CAT,ON2,F,126,141,Test,User,-,,Recall,Recall1,4313,Cat,100,3028,3957,1,1,,,1
w10013152_klj,tuhg6bpbzb,Emily_Honors_Thesis_Part_2,1,144,2020-05-05T17:26:51-07:00,5.1100511550903,4,versionC_stim.csv,READ_JOLVersionD.csv,"READ Version D",OLD,SCISSORS,SHEARS,ON2,B,112,122,Test,User,-,,Recall,Recall1,4752,Shears,100,3376,4452,1,1,,,1
w10013152_klj,tuhg6bpbzb,Emily_Honors_Thesis_Part_2,1,145,2020-05-05T17:26:57-07:00,5.8979790210724,4,versionC_stim.csv,READ_JOLVersionD.csv,"READ Version D",OLD,CLOTH,STRETCH,ON2,U,157,146,Test,User,-,,Recall,Recall1,5532,0,0,5247,5247,0,0,,,1
w10013152_klj,tuhg6bpbzb,Emily_Honors_Thesis_Part_2,1,146,2020-05-05T17:27:03-07:00,6.5955820083618,4,versionC_stim.csv,READ_JOLVersionD.csv,"READ Version D",OLD,ABLE,CRACKLE,ON2,U,162,155,Test,User,-,,Recall,Recall1,6240,0,0,5954,5954,0,0,,,1
w10013152_klj,tuhg6bpbzb,Emily_Honors_Thesis_Part_2,1,147,2020-05-05T17:27:06-07:00,2.6147739887238,4,versionC_stim.csv,READ_JOLVersionD.csv,"READ Version D",OLD,COFFIN,DEAD,ON2,F,128,149,Test,User,-,,Recall,Recall1,2248,Dead,100,1395,1990,1,1,,,1
w10013152_klj,tuhg6bpbzb,Emily_Honors_Thesis_Part_2,1,148,2020-05-05T17:27:11-07:00,5.5818769931793,4,versionC_stim.csv,READ_JOLVersionD.csv,"READ Version D",OLD,EAT,DINE,ON2,B,111,153,Test,User,-,,Recall,Recall1,5227,Food,25,4528,5011,0,0,,,1
w10013152_klj,tuhg6bpbzb,Emily_Honors_Thesis_Part_2,1,149,2020-05-05T17:27:15-07:00,3.5083358287811,4,versionC_stim.csv,READ_JOLVersionD.csv,"READ Version D",OLD,BREAKABLE,GLASS,ON2,F,127,171,Test,User,-,,Recall,Recall1,3124,Glass,100,1996,3008,1,1,,,1
w10013152_klj,tuhg6bpbzb,Emily_Honors_Thesis_Part_2,1,150,2020-05-05T17:27:22-07:00,7.0722091197968,4,versionC_stim.csv,READ_JOLVersionD.csv,"READ Version D",OLD,BRACELET,WRIST,ON2,S,140,148,Test,User,-,,Recall,Recall1,6692,arm,25,4362,4754,0,0,,,1
w10013152_klj,tuhg6bpbzb,Emily_Honors_Thesis_Part_2,1,151,2020-05-05T17:27:25-07:00,2.606684923172,4,versionC_stim.csv,READ_JOLVersionD.csv,"READ Version D",OLD,TICK,FLEA,ON2,S,151,107,Test,User,-,,Recall,Recall1,2230,Flea,100,1583,1970,1,1,,,1
w10013152_klj,tuhg6bpbzb,Emily_Honors_Thesis_Part_2,1,152,2020-05-05T17:27:27-07:00,2.2877249717712,4,versionC_stim.csv,READ_JOLVersionD.csv,"READ Version D",OLD,SCAR,MAIN,ON2,U,175,99,Test,User,-,,Recall,Recall1,1863,0,0,1590,1590,0,0,,,1
w10013152_klj,tuhg6bpbzb,Emily_Honors_Thesis_Part_2,1,153,2020-05-05T17:27:29-07:00,1.8911499977112,4,versionC_stim.csv,READ_JOLVersionD.csv,"READ Version D",OLD,SIGN,LOAN,ON2,U,171,160,Test,User,-,,Recall,Recall1,1567,0,0,1256,1256,0,0,,,1
w10013152_klj,tuhg6bpbzb,Emily_Honors_Thesis_Part_2,1,154,2020-05-05T17:27:33-07:00,4.5047101974487,4,versionC_stim.csv,READ_JOLVersionD.csv,"READ Version D",OLD,GROUND,EARTH,ON2,S,144,174,Test,User,-,,Recall,Recall1,4114,Earth,100,3058,3796,1,1,,,1
w10013152_klj,tuhg6bpbzb,Emily_Honors_Thesis_Part_2,1,155,2020-05-05T17:27:35-07:00,1.7954289913177,4,versionC_stim.csv,READ_JOLVersionD.csv,"READ Version D",OLD,PLANT,CACTUS,ON2,B,98,133,Test,User,-,,Recall,Recall1,1488,0,0,1215,1216,0,0,,,1
w10013152_klj,tuhg6bpbzb,Emily_Honors_Thesis_Part_2,1,156,2020-05-05T17:27:39-07:00,3.9308869838715,4,versionC_stim.csv,READ_JOLVersionD.csv,"READ Version D",OLD,WET,DRY,ON2,S,146,121,Test,User,-,,Recall,Recall1,3493,dry,100,2943,3247,1,1,,,1
w10013152_klj,tuhg6bpbzb,Emily_Honors_Thesis_Part_2,1,157,2020-05-05T17:27:41-07:00,2.3033828735352,4,versionC_stim.csv,READ_JOLVersionD.csv,"READ Version D",OLD,REEL,ROD,ON2,S,150,139,Test,User,-,,Recall,Recall1,1899,0,0,1590,1590,0,0,,,1
w10013152_klj,tuhg6bpbzb,Emily_Honors_Thesis_Part_2,1,158,2020-05-05T17:27:44-07:00,2.988137960434,4,versionC_stim.csv,READ_JOLVersionD.csv,"READ Version D",OLD,AIRCRAFT,PLANE,ON2,F,129,150,Test,User,-,,Recall,Recall1,2603,plane,100,1728,2392,1,1,,,1
w10013152_klj,tuhg6bpbzb,Emily_Honors_Thesis_Part_2,1,159,2020-05-05T17:27:48-07:00,3.8839809894562,4,versionC_stim.csv,READ_JOLVersionD.csv,"READ Version D",OLD,SEATBELT,SAFETY,ON2,S,147,126,Test,User,-,,Recall,Recall1,3506,safety,100,1520,3147,1,1,,,1
w10013152_klj,tuhg6bpbzb,Emily_Honors_Thesis_Part_2,1,160,2020-05-05T17:27:54-07:00,5.3594901561737,4,versionC_stim.csv,READ_JOLVersionD.csv,"READ Version D",OLD,AWAY,GONE,ON2,S,142,102,Test,User,-,,Recall,Recall1,4975,0,0,1495,3586,0,0,,,1
w10013152_klj,tuhg6bpbzb,Emily_Honors_Thesis_Part_2,1,161,2020-05-05T17:27:56-07:00,2.8724648952484,4,versionC_stim.csv,READ_JOLVersionD.csv,"READ Version D",OLD,TOIL,LEASE,ON2,U,170,151,Test,User,-,,Recall,Recall1,2502,0,0,1326,1327,0,0,,,1
w10013152_klj,tuhg6bpbzb,Emily_Honors_Thesis_Part_2,1,162,2020-05-05T17:28:00-07:00,3.6110730171204,4,versionC_stim.csv,READ_JOLVersionD.csv,"READ Version D",OLD,SHAVE,RAZOR,ON2,S,136,147,Test,User,-,,Recall,Recall1,3211,razor,100,1284,2521,1,1,,,1
w10013152_klj,tuhg6bpbzb,Emily_Honors_Thesis_Part_2,1,163,2020-05-05T17:28:03-07:00,2.7433779239655,4,versionC_stim.csv,READ_JOLVersionD.csv,"READ Version D",OLD,PAPER,DOCUMENT,ON2,B,109,166,Test,User,-,,Recall,Recall1,2338,0,0,2024,2024,0,0,,,1
w10013152_klj,tuhg6bpbzb,Emily_Honors_Thesis_Part_2,1,164,2020-05-05T17:28:06-07:00,3.6140470504761,4,versionC_stim.csv,READ_JOLVersionD.csv,"READ Version D",OLD,LOVE,AFFECTION,ON2,B,115,165,Test,User,-,,Recall,Recall1,3233,affection,100,1362,2968,1,1,,,1
w10013152_klj,tuhg6bpbzb,Emily_Honors_Thesis_Part_2,1,165,2020-05-05T17:28:09-07:00,2.5262961387634,4,versionC_stim.csv,READ_JOLVersionD.csv,"READ Version D",OLD,TRASH,LITTER,ON2,B,103,143,Test,User,-,,Recall,Recall1,2160,0,0,1817,1817,0,0,,,1
w10013152_klj,tuhg6bpbzb,Emily_Honors_Thesis_Part_2,1,166,2020-05-05T17:28:11-07:00,2.0643320083618,4,versionC_stim.csv,READ_JOLVersionD.csv,"READ Version D",OLD,GAME,CLUE,ON2,B,97,129,Test,User,-,,Recall,Recall1,1760,0,0,1499,1499,0,0,,,1
w10013152_klj,tuhg6bpbzb,Emily_Honors_Thesis_Part_2,1,167,2020-05-05T17:28:13-07:00,2.0777759552002,4,versionC_stim.csv,READ_JOLVersionD.csv,"READ Version D",OLD,CAR,DRIVER,ON2,B,106,125,Test,User,-,,Recall,Recall1,1667,0,0,1369,1369,0,0,,,1
w10013152_klj,tuhg6bpbzb,Emily_Honors_Thesis_Part_2,1,168,2020-05-05T17:28:15-07:00,2.3156659603119,4,versionC_stim.csv,READ_JOLVersionD.csv,"READ Version D",OLD,STEAK,GIVE,ON2,U,158,173,Test,User,-,,Recall,Recall1,1951,0,0,1661,1661,0,0,,,1
w10013152_klj,tuhg6bpbzb,Emily_Honors_Thesis_Part_2,1,169,2020-05-05T17:28:20-07:00,4.3425989151001,4,versionC_stim.csv,READ_JOLVersionD.csv,"READ Version D",OLD,LONG,EXTENSION,ON2,B,96,169,Test,User,-,,Recall,Recall1,3981,extension,100,1523,3722,1,1,,,1
w10013152_klj,tuhg6bpbzb,Emily_Honors_Thesis_Part_2,1,170,2020-05-05T17:28:26-07:00,6.0424339771271,4,versionC_stim.csv,READ_JOLVersionD.csv,"READ Version D",OLD,CUT,CHOP,ON2,B,107,103,Test,User,-,,Recall,Recall1,5651,chop,100,2050,5220,1,1,,,1
w10013152_klj,tuhg6bpbzb,Emily_Honors_Thesis_Part_2,1,171,2020-05-05T17:28:28-07:00,2.5068130493164,4,versionC_stim.csv,READ_JOLVersionD.csv,"READ Version D",OLD,EQUAL,RIGHTS,ON2,S,137,161,Test,User,-,,Recall,Recall1,2134,rights,100,1291,1939,1,1,,,1
w10013152_klj,tuhg6bpbzb,Emily_Honors_Thesis_Part_2,1,172,2020-05-05T17:28:31-07:00,3.0753030776978,4,versionC_stim.csv,READ_JOLVersionD.csv,"READ Version D",OLD,NOISE,LOUD,ON2,S,152,104,Test,User,-,,Recall,Recall1,2713,loud,100,1985,2498,1,1,,,1
w10013152_klj,tuhg6bpbzb,Emily_Honors_Thesis_Part_2,1,173,2020-05-05T17:28:37-07:00,5.3152480125427,4,versionC_stim.csv,READ_JOLVersionD.csv,"READ Version D",OLD,WAX,CANDLE,ON2,S,139,144,Test,User,-,,Recall,Recall1,4945,0,0,4653,4654,0,0,,,1
w10013152_klj,tuhg6bpbzb,Emily_Honors_Thesis_Part_2,1,174,2020-05-05T17:28:39-07:00,1.9622399806976,4,versionC_stim.csv,READ_JOLVersionD.csv,"READ Version D",OLD,JAR,MASON,ON2,S,138,142,Test,User,-,,Recall,Recall1,1656,0,0,1347,1347,0,0,,,1
w10013152_klj,tuhg6bpbzb,Emily_Honors_Thesis_Part_2,1,175,2020-05-05T17:28:43-07:00,3.9938268661499,4,versionC_stim.csv,READ_JOLVersionD.csv,"READ Version D",OLD,LIE,TRUTH,ON2,S,148,136,Test,User,-,,Recall,Recall1,3616,truth,100,1592,2147,1,1,,,1
w10013152_klj,tuhg6bpbzb,Emily_Honors_Thesis_Part_2,1,176,2020-05-05T17:28:46-07:00,3.8847870826721,4,versionC_stim.csv,READ_JOLVersionD.csv,"READ Version D",OLD,FIGHT,FEUD,ON2,B,113,163,Test,User,-,,Recall,Recall1,3524,brawl,0,1522,3077,0,0,,,1
w10013152_klj,tuhg6bpbzb,Emily_Honors_Thesis_Part_2,1,177,2020-05-05T17:28:49-07:00,3.0199630260468,4,versionC_stim.csv,READ_JOLVersionD.csv,"READ Version D",OLD,CLEAR,MOAT,ON2,U,169,145,Test,User,-,,Recall,Recall1,2652,0,0,2341,2341,0,0,,,1
w10013152_klj,tuhg6bpbzb,Emily_Honors_Thesis_Part_2,1,178,2020-05-05T17:28:52-07:00,2.1421039104462,4,versionC_stim.csv,READ_JOLVersionD.csv,"READ Version D",OLD,DOG,FURRY,ON2,B,102,100,Test,User,-,,Recall,Recall1,1844,cat,0,1269,1613,0,0,,,1
w10013152_klj,tuhg6bpbzb,Emily_Honors_Thesis_Part_2,1,179,2020-05-05T17:28:57-07:00,4.9717090129852,4,versionC_stim.csv,READ_JOLVersionD.csv,"READ Version D",OLD,STRAWBERRY,FRUIT,ON2,F,124,138,Test,User,-,,Recall,Recall1,4597,red,25,2045,4450,0,0,,,1
w10013152_klj,tuhg6bpbzb,Emily_Honors_Thesis_Part_2,1,180,2020-05-05T17:28:59-07:00,2.0028171539307,4,versionC_stim.csv,READ_JOLVersionD.csv,"READ Version D",OLD,ELECTION,MAZE,ON2,U,159,152,Test,User,-,,Recall,Recall1,1706,0,0,1395,1396,0,0,,,1
w10013152_klj,tuhg6bpbzb,Emily_Honors_Thesis_Part_2,1,181,2020-05-05T17:29:02-07:00,3.2644789218903,4,versionC_stim.csv,READ_JOLVersionD.csv,"READ Version D",OLD,FICTION,LISTEN,ON2,U,164,105,Test,User,-,,Recall,Recall1,2825,0,0,2569,2569,0,0,,,1
w10013152_klj,tuhg6bpbzb,Emily_Honors_Thesis_Part_2,1,182,2020-05-05T17:29:12-07:00,9.783989906311,4,versionC_stim.csv,READ_JOLVersionD.csv,"READ Version D",OLD,PENGUIN,BIRD,ON2,F,119,101,Test,User,-,,Recall,Recall1,9395,bird,100,8112,8688,1,1,,,1
w10013152_klj,tuhg6bpbzb,Emily_Honors_Thesis_Part_2,1,183,2020-05-05T17:29:15-07:00,3.4330701828003,4,versionC_stim.csv,READ_JOLVersionD.csv,"READ Version D",OLD,COMMUNICATION,PHONE,ON2,S,149,117,Test,User,-,,Recall,Recall1,3071,0,0,2798,2798,0,0,,,1
w10013152_klj,tuhg6bpbzb,Emily_Honors_Thesis_Part_2,1,184,2020-05-05T17:29:18-07:00,2.7266738414764,4,versionC_stim.csv,READ_JOLVersionD.csv,"READ Version D",OLD,ACTRESS,STAR,ON2,F,120,130,Test,User,-,,Recall,Recall1,2362,star,100,1395,1917,1,1,,,1
w10013152_klj,tuhg6bpbzb,Emily_Honors_Thesis_Part_2,1,185,2020-05-05T17:29:20-07:00,1.9716010093689,4,versionC_stim.csv,READ_JOLVersionD.csv,"READ Version D",OLD,SHAKE,SHELL,ON2,U,163,120,Test,User,-,,Recall,Recall1,1659,0,0,1350,1351,0,0,,,1
w10013152_klj,tuhg6bpbzb,Emily_Honors_Thesis_Part_2,1,186,2020-05-05T17:29:23-07:00,2.9974420070648,4,versionC_stim.csv,READ_JOLVersionD.csv,"READ Version D",OLD,MAROON,JUSTICE,ON2,U,156,170,Test,User,-,,Recall,Recall1,2546,red,20,1969,2341,0,0,,,1
w10013152_klj,tuhg6bpbzb,Emily_Honors_Thesis_Part_2,1,187,2020-05-05T17:29:26-07:00,2.9646880626678,4,versionC_stim.csv,READ_JOLVersionD.csv,"READ Version D",OLD,THIMBLE,THREAD,ON2,F,121,168,Test,User,-,,Recall,Recall1,2598,thread,100,1425,2187,1,1,,,1
w10013152_klj,tuhg6bpbzb,Emily_Honors_Thesis_Part_2,1,188,2020-05-05T17:29:29-07:00,2.7598559856415,4,versionC_stim.csv,READ_JOLVersionD.csv,"READ Version D",OLD,WINDSHIELD,CAR,ON2,F,117,176,Test,User,-,,Recall,Recall1,2396,car,100,1803,2075,1,1,,,1
w10013152_klj,tuhg6bpbzb,Emily_Honors_Thesis_Part_2,1,189,2020-05-05T17:29:31-07:00,2.517637014389,4,versionC_stim.csv,READ_JOLVersionD.csv,"READ Version D",OLD,BALLOON,POP,ON2,F,123,158,Test,User,-,,Recall,Recall1,2162,0,0,1863,1863,0,0,,,1
w10013152_klj,tuhg6bpbzb,Emily_Honors_Thesis_Part_2,1,190,2020-05-05T17:31:07-07:00,96.267353057861,4,versionC_stim.csv,READ_JOLVersionD.csv,"READ Version D",OLD,,,,,,0,Instruct,-,10,"You will now be presented with a new set of word pairs. Please study each pair. Remember that your memory will be tested! When finished, press Enter to move to the next pair.",Initial_Instruct,Instruct4,95881,,,-1,-1,,,,,1
w10013152_klj,tuhg6bpbzb,Emily_Honors_Thesis_Part_2,1,191,2020-05-05T17:31:22-07:00,14.277345895767,4,versionC_stim.csv,READ_JOLVersionD.csv,"READ Version D",OLD,,,,,,0,Instruct,,10,"You will again be asked to rate your ability to remember these items using a 0 to 100 scale. Remember to use the full range of the scale!",,Instruct10,13877,,,-1,-1,,,,,0.87
w10013152_klj,tuhg6bpbzb,Emily_Honors_Thesis_Part_2,1,192,2020-05-05T17:31:23-07:00,1.7134490013123,4,versionC_stim.csv,READ_JOLVersionD.csv,"READ Version D",OLD,,,,,,0,Instruct,User,-,"Press Enter when you are readty to begin",,Instruct11,1379,,,-1,-1,,,,,1
w10013152_klj,tuhg6bpbzb,Emily_Honors_Thesis_Part_2,1,193,2020-05-05T17:31:28-07:00,5.1251931190491,4,versionC_stim.csv,READ_JOLVersionD.csv,"READ Version D",OLD,GREEN,TREES,Buffer,Buffer,1,2,JOL,User,-,"How likely are you to correctly recall the second item in the pair?|Type your response on a scale from 0-100 and then press Enter.",Study/JOL,BUFFER3,4647,,,4116,4276,,,,90,1
w10013152_klj,tuhg6bpbzb,Emily_Honors_Thesis_Part_2,1,194,2020-05-05T17:31:34-07:00,5.2684259414673,4,versionC_stim.csv,READ_JOLVersionD.csv,"READ Version D",OLD,HIDE,SCARE,Buffer,Buffer,4,5,JOL,User,-,"How likely are you to correctly recall the second item in the pair?|Type your response on a scale from 0-100 and then press Enter.",Study/JOL,BUFFER3,4913,,,1997,4633,,,,10,1
w10013152_klj,tuhg6bpbzb,Emily_Honors_Thesis_Part_2,1,195,2020-05-05T17:31:37-07:00,3.5319490432739,4,versionC_stim.csv,READ_JOLVersionD.csv,"READ Version D",OLD,CATCHER,BASEBALL,Buffer,Buffer,2,3,JOL,User,-,"How likely are you to correctly recall the second item in the pair?|Type your response on a scale from 0-100 and then press Enter.",Study/JOL,BUFFER3,3168,,,2533,2868,,,,100,1
w10013152_klj,tuhg6bpbzb,Emily_Honors_Thesis_Part_2,1,196,2020-05-05T17:31:40-07:00,2.3941838741302,4,versionC_stim.csv,READ_JOLVersionD.csv,"READ Version D",OLD,JAM,SPACE,Buffer,Buffer,5,4,JOL,User,-,"How likely are you to correctly recall the second item in the pair?|Type your response on a scale from 0-100 and then press Enter.",Study/JOL,BUFFER3,2026,,,1395,1736,,,,100,1
w10013152_klj,tuhg6bpbzb,Emily_Honors_Thesis_Part_2,1,197,2020-05-05T17:31:41-07:00,1.8459250926971,4,versionC_stim.csv,READ_JOLVersionD.csv,"READ Version D",OLD,BUTTER,PEANUT,Buffer,Buffer,3,6,JOL,User,-,"How likely are you to correctly recall the second item in the pair?|Type your response on a scale from 0-100 and then press Enter.",Study/JOL,BUFFER3,1544,,,905,1261,,,,100,1
w10013152_klj,tuhg6bpbzb,Emily_Honors_Thesis_Part_2,1,198,2020-05-05T17:31:43-07:00,1.8298418521881,4,versionC_stim.csv,READ_JOLVersionD.csv,"READ Version D",OLD,SALAD,LETTUCE,ON,S,59,49,JOL,User,-,"How likely are you to correctly recall the second item in the pair?|Type your response on a scale from 0-100 and then press Enter.",Study/JOL,"Study Phase2",1531,,,847,1334,,,,100,1
w10013152_klj,tuhg6bpbzb,Emily_Honors_Thesis_Part_2,1,199,2020-05-05T17:31:46-07:00,2.6424210071564,4,versionC_stim.csv,READ_JOLVersionD.csv,"READ Version D",OLD,CAR,HAPPY,ON,U,77,46,JOL,User,-,"How likely are you to correctly recall the second item in the pair?|Type your response on a scale from 0-100 and then press Enter.",Study/JOL,"Study Phase2",2283,,,2036,2036,,,,0,1
w10013152_klj,tuhg6bpbzb,Emily_Honors_Thesis_Part_2,1,200,2020-05-05T17:31:48-07:00,1.785364151001,4,versionC_stim.csv,READ_JOLVersionD.csv,"READ Version D",OLD,BIRD,SWAN,ON,B,14,22,JOL,User,-,"How likely are you to correctly recall the second item in the pair?|Type your response on a scale from 0-100 and then press Enter.",Study/JOL,"Study Phase2",1481,,,881,1274,,,,100,1
w10013152_klj,tuhg6bpbzb,Emily_Honors_Thesis_Part_2,1,201,2020-05-05T17:31:50-07:00,2.707967042923,4,versionC_stim.csv,READ_JOLVersionD.csv,"READ Version D",OLD,WOMAN,LIFT,ON,U,69,24,JOL,User,-,"How likely are you to correctly recall the second item in the pair?|Type your response on a scale from 0-100 and then press Enter.",Study/JOL,"Study Phase2",2295,,,1981,1981,,,,0,1
w10013152_klj,tuhg6bpbzb,Emily_Honors_Thesis_Part_2,1,202,2020-05-05T17:31:53-07:00,2.2827558517456,4,versionC_stim.csv,READ_JOLVersionD.csv,"READ Version D",OLD,FLOWER,ORCHID,ON,B,24,86,JOL,User,-,"How likely are you to correctly recall the second item in the pair?|Type your response on a scale from 0-100 and then press Enter.",Study/JOL,"Study Phase2",1874,,,1384,1665,,,,100,1
w10013152_klj,tuhg6bpbzb,Emily_Honors_Thesis_Part_2,1,203,2020-05-05T17:31:55-07:00,2.665069103241,4,versionC_stim.csv,READ_JOLVersionD.csv,"READ Version D",OLD,SIGHT,DEBATE,ON,U,73,81,JOL,User,-,"How likely are you to correctly recall the second item in the pair?|Type your response on a scale from 0-100 and then press Enter.",Study/JOL,"Study Phase2",2289,,,2044,2045,,,,0,1
w10013152_klj,tuhg6bpbzb,Emily_Honors_Thesis_Part_2,1,204,2020-05-05T17:31:59-07:00,3.2379128932953,4,versionC_stim.csv,READ_JOLVersionD.csv,"READ Version D",OLD,SITE,LOCATION,ON,S,48,39,JOL,User,-,"How likely are you to correctly recall the second item in the pair?|Type your response on a scale from 0-100 and then press Enter.",Study/JOL,"Study Phase2",2872,,,2523,2629,,,,10,1
w10013152_klj,tuhg6bpbzb,Emily_Honors_Thesis_Part_2,1,205,2020-05-05T17:32:02-07:00,3.4677591323853,4,versionC_stim.csv,READ_JOLVersionD.csv,"READ Version D",OLD,LATCH,KEY,ON,F,36,57,JOL,User,-,"How likely are you to correctly recall the second item in the pair?|Type your response on a scale from 0-100 and then press Enter.",Study/JOL,"Study Phase2",3082,,,2692,2783,,,,20,1
w10013152_klj,tuhg6bpbzb,Emily_Honors_Thesis_Part_2,1,206,2020-05-05T17:32:04-07:00,2.0759038925171,4,versionC_stim.csv,READ_JOLVersionD.csv,"READ Version D",OLD,WOULD,CASH,ON,U,83,53,JOL,User,-,"How likely are you to correctly recall the second item in the pair?|Type your response on a scale from 0-100 and then press Enter.",Study/JOL,"Study Phase2",1759,,,1492,1492,,,,0,1
w10013152_klj,tuhg6bpbzb,Emily_Honors_Thesis_Part_2,1,207,2020-05-05T17:32:08-07:00,3.6752200126648,4,versionC_stim.csv,READ_JOLVersionD.csv,"READ Version D",OLD,WASTE,DUMP,ON,S,49,58,JOL,User,-,"How likely are you to correctly recall the second item in the pair?|Type your response on a scale from 0-100 and then press Enter.",Study/JOL,"Study Phase2",3224,,,2712,3014,,,,100,1
w10013152_klj,tuhg6bpbzb,Emily_Honors_Thesis_Part_2,1,208,2020-05-05T17:32:18-07:00,10.572932004929,4,versionC_stim.csv,READ_JOLVersionD.csv,"READ Version D",OLD,SACKING,DIETARY,ON,U,67,68,JOL,User,-,"How likely are you to correctly recall the second item in the pair?|Type your response on a scale from 0-100 and then press Enter.",Study/JOL,"Study Phase2",10195,,,9922,9922,,,,0,1
w10013152_klj,tuhg6bpbzb,Emily_Honors_Thesis_Part_2,1,209,2020-05-05T17:32:21-07:00,2.6154448986053,4,versionC_stim.csv,READ_JOLVersionD.csv,"READ Version D",OLD,ASSIGNMENT,DUE,ON,S,46,17,JOL,User,-,"How likely are you to correctly recall the second item in the pair?|Type your response on a scale from 0-100 and then press Enter.",Study/JOL,"Study Phase2",2249,,,1608,2014,,,,100,1
w10013152_klj,tuhg6bpbzb,Emily_Honors_Thesis_Part_2,1,210,2020-05-05T17:32:25-07:00,3.6342370510101,4,versionC_stim.csv,READ_JOLVersionD.csv,"READ Version D",OLD,TALK,DISCUSSION,ON,B,21,54,JOL,User,-,"How likely are you to correctly recall the second item in the pair?|Type your response on a scale from 0-100 and then press Enter.",Study/JOL,"Study Phase2",3275,,,2736,3045,,,,100,1
w10013152_klj,tuhg6bpbzb,Emily_Honors_Thesis_Part_2,1,211,2020-05-05T17:32:27-07:00,2.4878730773926,4,versionC_stim.csv,READ_JOLVersionD.csv,"READ Version D",OLD,PILOT,PLANE,ON,F,44,66,JOL,User,-,"How likely are you to correctly recall the second item in the pair?|Type your response on a scale from 0-100 and then press Enter.",Study/JOL,"Study Phase2",2120,,,1455,1805,,,,100,1
w10013152_klj,tuhg6bpbzb,Emily_Honors_Thesis_Part_2,1,212,2020-05-05T17:32:29-07:00,1.9705801010132,4,versionC_stim.csv,READ_JOLVersionD.csv,"READ Version D",OLD,BLAZE,FIRE,ON,F,45,12,JOL,User,-,"How likely are you to correctly recall the second item in the pair?|Type your response on a scale from 0-100 and then press Enter.",Study/JOL,"Study Phase2",1663,,,986,1444,,,,100,1
w10013152_klj,tuhg6bpbzb,Emily_Honors_Thesis_Part_2,1,213,2020-05-05T17:32:31-07:00,2.0851678848267,4,versionC_stim.csv,READ_JOLVersionD.csv,"READ Version D",OLD,TUCK,ALLOW,ON,U,78,61,JOL,User,-,"How likely are you to correctly recall the second item in the pair?|Type your response on a scale from 0-100 and then press Enter.",Study/JOL,"Study Phase2",1763,,,1516,1517,,,,0,1
w10013152_klj,tuhg6bpbzb,Emily_Honors_Thesis_Part_2,1,214,2020-05-05T17:32:33-07:00,2.0691540241241,4,versionC_stim.csv,READ_JOLVersionD.csv,"READ Version D",OLD,DROWSY,SLEEP,ON,F,41,44,JOL,User,-,"How likely are you to correctly recall the second item in the pair?|Type your response on a scale from 0-100 and then press Enter.",Study/JOL,"Study Phase2",1695,,,1112,1451,,,,100,1
w10013152_klj,tuhg6bpbzb,Emily_Honors_Thesis_Part_2,1,215,2020-05-05T17:32:36-07:00,2.410896062851,4,versionC_stim.csv,READ_JOLVersionD.csv,"READ Version D",OLD,ACCIDENT,STRONG,ON,U,80,10,JOL,User,-,"How likely are you to correctly recall the second item in the pair?|Type your response on a scale from 0-100 and then press Enter.",Study/JOL,"Study Phase2",1981,,,1743,1744,,,,0,1
w10013152_klj,tuhg6bpbzb,Emily_Honors_Thesis_Part_2,1,216,2020-05-05T17:32:38-07:00,2.3390510082245,4,versionC_stim.csv,READ_JOLVersionD.csv,"READ Version D",OLD,SODA,POP,ON,S,56,29,JOL,User,-,"How likely are you to correctly recall the second item in the pair?|Type your response on a scale from 0-100 and then press Enter.",Study/JOL,"Study Phase2",1971,,,1095,1618,,,,100,1
w10013152_klj,tuhg6bpbzb,Emily_Honors_Thesis_Part_2,1,217,2020-05-05T17:32:40-07:00,2.1586098670959,4,versionC_stim.csv,READ_JOLVersionD.csv,"READ Version D",OLD,RIDDLE,SUGAR,ON,U,81,59,JOL,User,-,"How likely are you to correctly recall the second item in the pair?|Type your response on a scale from 0-100 and then press Enter.",Study/JOL,"Study Phase2",1829,,,1597,1597,,,,0,1
w10013152_klj,tuhg6bpbzb,Emily_Honors_Thesis_Part_2,1,218,2020-05-05T17:32:42-07:00,2.1344029903412,4,versionC_stim.csv,READ_JOLVersionD.csv,"READ Version D",OLD,ROUND,CIRCLE,ON,S,65,30,JOL,User,-,"How likely are you to correctly recall the second item in the pair?|Type your response on a scale from 0-100 and then press Enter.",Study/JOL,"Study Phase2",1827,,,1288,1587,,,,100,1
w10013152_klj,tuhg6bpbzb,Emily_Honors_Thesis_Part_2,1,219,2020-05-05T17:32:44-07:00,2.097118139267,4,versionC_stim.csv,READ_JOLVersionD.csv,"READ Version D",OLD,CLEAN,HYGIENE,ON,B,17,56,JOL,User,-,"How likely are you to correctly recall the second item in the pair?|Type your response on a scale from 0-100 and then press Enter.",Study/JOL,"Study Phase2",1762,,,1129,1486,,,,100,1
w10013152_klj,tuhg6bpbzb,Emily_Honors_Thesis_Part_2,1,220,2020-05-05T17:32:47-07:00,2.8726489543915,4,versionC_stim.csv,READ_JOLVersionD.csv,"READ Version D",OLD,ROCK,GEOLOGY,ON,B,19,38,JOL,User,-,"How likely are you to correctly recall the second item in the pair?|Type your response on a scale from 0-100 and then press Enter.",Study/JOL,"Study Phase2",2429,,,1827,2167,,,,100,1
w10013152_klj,tuhg6bpbzb,Emily_Honors_Thesis_Part_2,1,221,2020-05-05T17:32:49-07:00,1.7737109661102,4,versionC_stim.csv,READ_JOLVersionD.csv,"READ Version D",OLD,CHILI,HOT,ON,F,37,31,JOL,User,-,"How likely are you to correctly recall the second item in the pair?|Type your response on a scale from 0-100 and then press Enter.",Study/JOL,"Study Phase2",1461,,,813,1245,,,,100,1
w10013152_klj,tuhg6bpbzb,Emily_Honors_Thesis_Part_2,1,222,2020-05-05T17:32:53-07:00,4.4027030467987,4,versionC_stim.csv,READ_JOLVersionD.csv,"READ Version D",OLD,BAD,DELINQUENT,ON,B,6,45,JOL,User,-,"How likely are you to correctly recall the second item in the pair?|Type your response on a scale from 0-100 and then press Enter.",Study/JOL,"Study Phase2",4001,,,1883,3635,,,,90,1
w10013152_klj,tuhg6bpbzb,Emily_Honors_Thesis_Part_2,1,223,2020-05-05T17:32:55-07:00,2.0167410373688,4,versionC_stim.csv,READ_JOLVersionD.csv,"READ Version D",OLD,FOOT,SHOE,ON,S,60,55,JOL,User,-,"How likely are you to correctly recall the second item in the pair?|Type your response on a scale from 0-100 and then press Enter.",Study/JOL,"Study Phase2",1716,,,1086,1488,,,,100,1
w10013152_klj,tuhg6bpbzb,Emily_Honors_Thesis_Part_2,1,224,2020-05-05T17:32:58-07:00,2.0734298229218,4,versionC_stim.csv,READ_JOLVersionD.csv,"READ Version D",OLD,OUT,WAY,ON,B,16,47,JOL,User,-,"How likely are you to correctly recall the second item in the pair?|Type your response on a scale from 0-100 and then press Enter.",Study/JOL,"Study Phase2",1700,,,1490,1491,,,,0,1
w10013152_klj,tuhg6bpbzb,Emily_Honors_Thesis_Part_2,1,225,2020-05-05T17:33:01-07:00,3.8370110988617,4,versionC_stim.csv,READ_JOLVersionD.csv,"READ Version D",OLD,CAVE,DARK,ON,F,28,73,JOL,User,-,"How likely are you to correctly recall the second item in the pair?|Type your response on a scale from 0-100 and then press Enter.",Study/JOL,"Study Phase2",3419,,,1841,3064,,,,90,1
w10013152_klj,tuhg6bpbzb,Emily_Honors_Thesis_Part_2,1,226,2020-05-05T17:33:03-07:00,1.9351089000702,4,versionC_stim.csv,READ_JOLVersionD.csv,"READ Version D",OLD,COW,HERD,ON,B,22,72,JOL,User,-,"How likely are you to correctly recall the second item in the pair?|Type your response on a scale from 0-100 and then press Enter.",Study/JOL,"Study Phase2",1611,,,1050,1416,,,,100,1
w10013152_klj,tuhg6bpbzb,Emily_Honors_Thesis_Part_2,1,227,2020-05-05T17:33:06-07:00,2.4171741008759,4,versionC_stim.csv,READ_JOLVersionD.csv,"READ Version D",OLD,GROWTH,HEIGHT,ON,F,30,9,JOL,User,-,"How likely are you to correctly recall the second item in the pair?|Type your response on a scale from 0-100 and then press Enter.",Study/JOL,"Study Phase2",2054,,,1493,1770,,,,100,1
w10013152_klj,tuhg6bpbzb,Emily_Honors_Thesis_Part_2,1,228,2020-05-05T17:33:08-07:00,2.6363990306854,4,versionC_stim.csv,READ_JOLVersionD.csv,"READ Version D",OLD,WAR,REVOLUTION,ON,B,20,69,JOL,User,-,"How likely are you to correctly recall the second item in the pair?|Type your response on a scale from 0-100 and then press Enter.",Study/JOL,"Study Phase2",2286,,,1680,2056,,,,100,1
w10013152_klj,tuhg6bpbzb,Emily_Honors_Thesis_Part_2,1,229,2020-05-05T17:33:11-07:00,2.9316349029541,4,versionC_stim.csv,READ_JOLVersionD.csv,"READ Version D",OLD,CLUTTER,PUSHER,ON,U,66,76,JOL,User,-,"How likely are you to correctly recall the second item in the pair?|Type your response on a scale from 0-100 and then press Enter.",Study/JOL,"Study Phase2",2562,,,2349,2349,,,,0,1
w10013152_klj,tuhg6bpbzb,Emily_Honors_Thesis_Part_2,1,230,2020-05-05T17:33:14-07:00,2.3046541213989,4,versionC_stim.csv,READ_JOLVersionD.csv,"READ Version D",OLD,BAR,GRILL,ON,S,52,60,JOL,User,-,"How likely are you to correctly recall the second item in the pair?|Type your response on a scale from 0-100 and then press Enter.",Study/JOL,"Study Phase2",1922,,,1702,1702,,,,0,1
w10013152_klj,tuhg6bpbzb,Emily_Honors_Thesis_Part_2,1,231,2020-05-05T17:33:16-07:00,2.3193328380585,4,versionC_stim.csv,READ_JOLVersionD.csv,"READ Version D",OLD,CHILD,BABY,ON,S,64,82,JOL,User,-,"How likely are you to correctly recall the second item in the pair?|Type your response on a scale from 0-100 and then press Enter.",Study/JOL,"Study Phase2",1952,,,1097,1478,,,,100,1
w10013152_klj,tuhg6bpbzb,Emily_Honors_Thesis_Part_2,1,232,2020-05-05T17:33:18-07:00,2.3118190765381,4,versionC_stim.csv,READ_JOLVersionD.csv,"READ Version D",OLD,SIP,DRINK,ON,F,27,34,JOL,User,-,"How likely are you to correctly recall the second item in the pair?|Type your response on a scale from 0-100 and then press Enter.",Study/JOL,"Study Phase2",1891,,,1058,1357,,,,100,1
w10013152_klj,tuhg6bpbzb,Emily_Honors_Thesis_Part_2,1,233,2020-05-05T17:33:20-07:00,2.1366550922394,4,versionC_stim.csv,READ_JOLVersionD.csv,"READ Version D",OLD,SICK,HIDE,ON,U,84,18,JOL,User,-,"How likely are you to correctly recall the second item in the pair?|Type your response on a scale from 0-100 and then press Enter.",Study/JOL,"Study Phase2",1833,,,1560,1561,,,,0,1
w10013152_klj,tuhg6bpbzb,Emily_Honors_Thesis_Part_2,1,234,2020-05-05T17:33:25-07:00,4.6526780128479,4,versionC_stim.csv,READ_JOLVersionD.csv,"READ Version D",OLD,HAMMER,CHISEL,ON,B,9,79,JOL,User,-,"How likely are you to correctly recall the second item in the pair?|Type your response on a scale from 0-100 and then press Enter.",Study/JOL,"Study Phase2",4224,,,3783,3894,,,,20,1
w10013152_klj,tuhg6bpbzb,Emily_Honors_Thesis_Part_2,1,235,2020-05-05T17:33:27-07:00,2.4155728816986,4,versionC_stim.csv,READ_JOLVersionD.csv,"READ Version D",OLD,FUTURE,PAST,ON,S,61,41,JOL,User,-,"How likely are you to correctly recall the second item in the pair?|Type your response on a scale from 0-100 and then press Enter.",Study/JOL,"Study Phase2",2035,,,1485,1765,,,,100,1
w10013152_klj,tuhg6bpbzb,Emily_Honors_Thesis_Part_2,1,236,2020-05-05T17:33:30-07:00,2.5738689899445,4,versionC_stim.csv,READ_JOLVersionD.csv,"READ Version D",OLD,FISH,TUNA,ON,B,25,40,JOL,User,-,"How likely are you to correctly recall the second item in the pair?|Type your response on a scale from 0-100 and then press Enter.",Study/JOL,"Study Phase2",2201,,,1593,1986,,,,100,1
w10013152_klj,tuhg6bpbzb,Emily_Honors_Thesis_Part_2,1,237,2020-05-05T17:33:32-07:00,2.3332221508026,4,versionC_stim.csv,READ_JOLVersionD.csv,"READ Version D",OLD,RACKET,BALL,ON,F,38,67,JOL,User,-,"How likely are you to correctly recall the second item in the pair?|Type your response on a scale from 0-100 and then press Enter.",Study/JOL,"Study Phase2",1947,,,1295,1679,,,,100,1
w10013152_klj,tuhg6bpbzb,Emily_Honors_Thesis_Part_2,1,238,2020-05-05T17:33:35-07:00,3.0164539813995,4,versionC_stim.csv,READ_JOLVersionD.csv,"READ Version D",OLD,BELT,SOON,ON,U,70,80,JOL,User,-,"How likely are you to correctly recall the second item in the pair?|Type your response on a scale from 0-100 and then press Enter.",Study/JOL,"Study Phase2",2648,,,1370,1370,,,,0,1
w10013152_klj,tuhg6bpbzb,Emily_Honors_Thesis_Part_2,1,239,2020-05-05T17:33:40-07:00,4.5452258586884,4,versionC_stim.csv,READ_JOLVersionD.csv,"READ Version D",OLD,FANTASTIC,GREAT,ON,F,35,21,JOL,User,-,"How likely are you to correctly recall the second item in the pair?|Type your response on a scale from 0-100 and then press Enter.",Study/JOL,"Study Phase2",4178,,,3737,3918,,,,30,1
w10013152_klj,tuhg6bpbzb,Emily_Honors_Thesis_Part_2,1,240,2020-05-05T17:33:43-07:00,2.749577999115,4,versionC_stim.csv,READ_JOLVersionD.csv,"READ Version D",OLD,PLANT,ROOT,ON,B,13,26,JOL,User,-,"How likely are you to correctly recall the second item in the pair?|Type your response on a scale from 0-100 and then press Enter.",Study/JOL,"Study Phase2",2348,,,1215,1583,,,,100,1
w10013152_klj,tuhg6bpbzb,Emily_Honors_Thesis_Part_2,1,241,2020-05-05T17:33:47-07:00,4.3592190742493,4,versionC_stim.csv,READ_JOLVersionD.csv,"READ Version D",OLD,LION,ART,ON,U,79,74,JOL,User,-,"How likely are you to correctly recall the second item in the pair?|Type your response on a scale from 0-100 and then press Enter.",Study/JOL,"Study Phase2",3982,,,1893,3673,,,,10,1
w10013152_klj,tuhg6bpbzb,Emily_Honors_Thesis_Part_2,1,242,2020-05-05T17:33:50-07:00,3.1185169219971,4,versionC_stim.csv,READ_JOLVersionD.csv,"READ Version D",OLD,NEWS,EDITOR,ON,B,10,51,JOL,User,-,"How likely are you to correctly recall the second item in the pair?|Type your response on a scale from 0-100 and then press Enter.",Study/JOL,"Study Phase2",2730,,,2050,2507,,,,100,1
w10013152_klj,tuhg6bpbzb,Emily_Honors_Thesis_Part_2,1,243,2020-05-05T17:33:52-07:00,2.1064009666443,4,versionC_stim.csv,READ_JOLVersionD.csv,"READ Version D",OLD,ATTORNEY,LAW,ON,F,34,15,JOL,User,-,"How likely are you to correctly recall the second item in the pair?|Type your response on a scale from 0-100 and then press Enter.",Study/JOL,"Study Phase2",1797,,,1187,1593,,,,100,1
w10013152_klj,tuhg6bpbzb,Emily_Honors_Thesis_Part_2,1,244,2020-05-05T17:33:55-07:00,2.5077311992645,4,versionC_stim.csv,READ_JOLVersionD.csv,"READ Version D",OLD,END,BEGIN,ON,S,54,63,JOL,User,-,"How likely are you to correctly recall the second item in the pair?|Type your response on a scale from 0-100 and then press Enter.",Study/JOL,"Study Phase2",2112,,,1572,1925,,,,100,1
w10013152_klj,tuhg6bpbzb,Emily_Honors_Thesis_Part_2,1,245,2020-05-05T17:33:58-07:00,3.6316509246826,4,versionC_stim.csv,READ_JOLVersionD.csv,"READ Version D",OLD,CHORE,WORK,ON,F,39,52,JOL,User,-,"How likely are you to correctly recall the second item in the pair?|Type your response on a scale from 0-100 and then press Enter.",Study/JOL,"Study Phase2",3255,,,1154,2960,,,,20,1
w10013152_klj,tuhg6bpbzb,Emily_Honors_Thesis_Part_2,1,246,2020-05-05T17:34:02-07:00,3.9968700408936,4,versionC_stim.csv,READ_JOLVersionD.csv,"READ Version D",OLD,SEIZE,TAKE,ON,F,29,77,JOL,User,-,"How likely are you to correctly recall the second item in the pair?|Type your response on a scale from 0-100 and then press Enter.",Study/JOL,"Study Phase2",3621,,,2809,3166,,,,100,1
w10013152_klj,tuhg6bpbzb,Emily_Honors_Thesis_Part_2,1,247,2020-05-05T17:34:04-07:00,1.7822098731995,4,versionC_stim.csv,READ_JOLVersionD.csv,"READ Version D",OLD,BEE,HONEY,ON,S,63,78,JOL,User,-,"How likely are you to correctly recall the second item in the pair?|Type your response on a scale from 0-100 and then press Enter.",Study/JOL,"Study Phase2",1482,,,989,1284,,,,100,1
w10013152_klj,tuhg6bpbzb,Emily_Honors_Thesis_Part_2,1,248,2020-05-05T17:34:11-07:00,6.7510311603546,4,versionC_stim.csv,READ_JOLVersionD.csv,"READ Version D",OLD,WATER,BRIDGE,ON,B,18,65,JOL,User,-,"How likely are you to correctly recall the second item in the pair?|Type your response on a scale from 0-100 and then press Enter.",Study/JOL,"Study Phase2",6269,,,1677,3069,,,,100,1
w10013152_klj,tuhg6bpbzb,Emily_Honors_Thesis_Part_2,1,249,2020-05-05T17:34:15-07:00,3.6010828018188,4,versionC_stim.csv,READ_JOLVersionD.csv,"READ Version D",OLD,STING,HORNET,ON,B,11,8,JOL,User,-,"How likely are you to correctly recall the second item in the pair?|Type your response on a scale from 0-100 and then press Enter.",Study/JOL,"Study Phase2",3220,,,1756,2966,,,,20,1
w10013152_klj,tuhg6bpbzb,Emily_Honors_Thesis_Part_2,1,250,2020-05-05T17:34:17-07:00,2.018529176712,4,versionC_stim.csv,READ_JOLVersionD.csv,"READ Version D",OLD,CHEESE,WINE,ON,S,57,83,JOL,User,-,"How likely are you to correctly recall the second item in the pair?|Type your response on a scale from 0-100 and then press Enter.",Study/JOL,"Study Phase2",1695,,,1096,1416,,,,100,1
w10013152_klj,tuhg6bpbzb,Emily_Honors_Thesis_Part_2,1,251,2020-05-05T17:34:20-07:00,3.0935440063477,4,versionC_stim.csv,READ_JOLVersionD.csv,"READ Version D",OLD,POSITION,MACHINE,ON,U,76,32,JOL,User,-,"How likely are you to correctly recall the second item in the pair?|Type your response on a scale from 0-100 and then press Enter.",Study/JOL,"Study Phase2",2710,,,2394,2394,,,,0,1
w10013152_klj,tuhg6bpbzb,Emily_Honors_Thesis_Part_2,1,252,2020-05-05T17:34:22-07:00,2.431224822998,4,versionC_stim.csv,READ_JOLVersionD.csv,"READ Version D",OLD,BUSINESS,DEATH,ON,U,72,27,JOL,User,-,"How likely are you to correctly recall the second item in the pair?|Type your response on a scale from 0-100 and then press Enter.",Study/JOL,"Study Phase2",2075,,,1743,1743,,,,0,1
w10013152_klj,tuhg6bpbzb,Emily_Honors_Thesis_Part_2,1,253,2020-05-05T17:34:24-07:00,1.7507209777832,4,versionC_stim.csv,READ_JOLVersionD.csv,"READ Version D",OLD,ADD,VALLEY,ON,U,82,20,JOL,User,-,"How likely are you to correctly recall the second item in the pair?|Type your response on a scale from 0-100 and then press Enter.",Study/JOL,"Study Phase2",1469,,,1209,1209,,,,0,1
w10013152_klj,tuhg6bpbzb,Emily_Honors_Thesis_Part_2,1,254,2020-05-05T17:34:26-07:00,2.0832421779633,4,versionC_stim.csv,READ_JOLVersionD.csv,"READ Version D",OLD,DIVISION,MATH,ON,F,33,70,JOL,User,-,"How likely are you to correctly recall the second item in the pair?|Type your response on a scale from 0-100 and then press Enter.",Study/JOL,"Study Phase2",1677,,,1188,1466,,,,100,1
w10013152_klj,tuhg6bpbzb,Emily_Honors_Thesis_Part_2,1,255,2020-05-05T17:34:31-07:00,4.6925778388977,4,versionC_stim.csv,READ_JOLVersionD.csv,"READ Version D",OLD,COLD,BITTER,ON,B,12,48,JOL,User,-,"How likely are you to correctly recall the second item in the pair?|Type your response on a scale from 0-100 and then press Enter.",Study/JOL,"Study Phase2",4245,,,3676,3862,,,,80,1
w10013152_klj,tuhg6bpbzb,Emily_Honors_Thesis_Part_2,1,256,2020-05-05T17:34:33-07:00,2.3379511833191,4,versionC_stim.csv,READ_JOLVersionD.csv,"READ Version D",OLD,BRONZE,ARTERY,ON,U,74,13,JOL,User,-,"How likely are you to correctly recall the second item in the pair?|Type your response on a scale from 0-100 and then press Enter.",Study/JOL,"Study Phase2",1965,,,1703,1703,,,,0,1
w10013152_klj,tuhg6bpbzb,Emily_Honors_Thesis_Part_2,1,257,2020-05-05T17:34:38-07:00,5.117066860199,4,versionC_stim.csv,READ_JOLVersionD.csv,"READ Version D",OLD,DESIGN,ARCHITECTURE,ON,S,51,14,JOL,User,-,"How likely are you to correctly recall the second item in the pair?|Type your response on a scale from 0-100 and then press Enter.",Study/JOL,"Study Phase2",4752,,,1831,4469,,,,40,1
w10013152_klj,tuhg6bpbzb,Emily_Honors_Thesis_Part_2,1,258,2020-05-05T17:34:40-07:00,2.3466091156006,4,versionC_stim.csv,READ_JOLVersionD.csv,"READ Version D",OLD,VASE,KING,ON,U,85,25,JOL,User,-,"How likely are you to correctly recall the second item in the pair?|Type your response on a scale from 0-100 and then press Enter.",Study/JOL,"Study Phase2",1986,,,1705,1706,,,,0,1
w10013152_klj,tuhg6bpbzb,Emily_Honors_Thesis_Part_2,1,259,2020-05-05T17:34:45-07:00,4.1507408618927,4,versionC_stim.csv,READ_JOLVersionD.csv,"READ Version D",OLD,ENOUGH,FULL,ON,F,26,50,JOL,User,-,"How likely are you to correctly recall the second item in the pair?|Type your response on a scale from 0-100 and then press Enter.",Study/JOL,"Study Phase2",3785,,,3255,3418,,,,70,1
w10013152_klj,tuhg6bpbzb,Emily_Honors_Thesis_Part_2,1,260,2020-05-05T17:34:47-07:00,2.9080281257629,4,versionC_stim.csv,READ_JOLVersionD.csv,"READ Version D",OLD,HAND,FIX,ON,U,75,43,JOL,User,-,"How likely are you to correctly recall the second item in the pair?|Type your response on a scale from 0-100 and then press Enter.",Study/JOL,"Study Phase2",2540,,,2296,2296,,,,0,1
w10013152_klj,tuhg6bpbzb,Emily_Honors_Thesis_Part_2,1,261,2020-05-05T17:34:50-07:00,2.3063628673553,4,versionC_stim.csv,READ_JOLVersionD.csv,"READ Version D",OLD,DOG,PAW,ON,B,15,36,JOL,User,-,"How likely are you to correctly recall the second item in the pair?|Type your response on a scale from 0-100 and then press Enter.",Study/JOL,"Study Phase2",1943,,,1191,1562,,,,100,1
w10013152_klj,tuhg6bpbzb,Emily_Honors_Thesis_Part_2,1,262,2020-05-05T17:34:55-07:00,4.9691619873047,4,versionC_stim.csv,READ_JOLVersionD.csv,"READ Version D",OLD,LIVER,KIDNEY,ON,S,53,75,JOL,User,-,"How likely are you to correctly recall the second item in the pair?|Type your response on a scale from 0-100 and then press Enter.",Study/JOL,"Study Phase2",4585,,,3988,4130,,,,60,1
w10013152_klj,tuhg6bpbzb,Emily_Honors_Thesis_Part_2,1,263,2020-05-05T17:35:02-07:00,6.9420890808105,4,versionC_stim.csv,READ_JOLVersionD.csv,"READ Version D",OLD,ATTIRE,CLOTHES,ON,F,43,64,JOL,User,-,"How likely are you to correctly recall the second item in the pair?|Type your response on a scale from 0-100 and then press Enter.",Study/JOL,"Study Phase2",5959,,,5375,5708,,,,100,1
w10013152_klj,tuhg6bpbzb,Emily_Honors_Thesis_Part_2,1,264,2020-05-05T17:35:05-07:00,3.028568983078,4,versionC_stim.csv,READ_JOLVersionD.csv,"READ Version D",OLD,CARD,CREDIT,ON,B,23,37,JOL,User,-,"How likely are you to correctly recall the second item in the pair?|Type your response on a scale from 0-100 and then press Enter.",Study/JOL,"Study Phase2",2578,,,1112,1530,,,,100,1
w10013152_klj,tuhg6bpbzb,Emily_Honors_Thesis_Part_2,1,265,2020-05-05T17:35:08-07:00,3.5291180610657,4,versionC_stim.csv,READ_JOLVersionD.csv,"READ Version D",OLD,WIND,BLOW,ON,S,55,23,JOL,User,-,"How likely are you to correctly recall the second item in the pair?|Type your response on a scale from 0-100 and then press Enter.",Study/JOL,"Study Phase2",3071,,,2112,2792,,,,100,1
w10013152_klj,tuhg6bpbzb,Emily_Honors_Thesis_Part_2,1,266,2020-05-05T17:35:11-07:00,2.7427320480347,4,versionC_stim.csv,READ_JOLVersionD.csv,"READ Version D",OLD,STOMACH,DIGESTION,ON,B,7,35,JOL,User,-,"How likely are you to correctly recall the second item in the pair?|Type your response on a scale from 0-100 and then press Enter.",Study/JOL,"Study Phase2",2377,,,1461,1848,,,,100,1
w10013152_klj,tuhg6bpbzb,Emily_Honors_Thesis_Part_2,1,267,2020-05-05T17:35:13-07:00,2.1552298069,4,versionC_stim.csv,READ_JOLVersionD.csv,"READ Version D",OLD,WORD,SENTENCE,ON,F,31,84,JOL,User,-,"How likely are you to correctly recall the second item in the pair?|Type your response on a scale from 0-100 and then press Enter.",Study/JOL,"Study Phase2",1834,,,1244,1621,,,,100,1
w10013152_klj,tuhg6bpbzb,Emily_Honors_Thesis_Part_2,1,268,2020-05-05T17:35:15-07:00,1.8758420944214,4,versionC_stim.csv,READ_JOLVersionD.csv,"READ Version D",OLD,HUNGRY,PARK,ON,U,68,7,JOL,User,-,"How likely are you to correctly recall the second item in the pair?|Type your response on a scale from 0-100 and then press Enter.",Study/JOL,"Study Phase2",1515,,,1253,1253,,,,0,1
w10013152_klj,tuhg6bpbzb,Emily_Honors_Thesis_Part_2,1,269,2020-05-05T17:35:18-07:00,3.4200820922852,4,versionC_stim.csv,READ_JOLVersionD.csv,"READ Version D",OLD,MONEY,WAGE,ON,B,8,16,JOL,User,-,"How likely are you to correctly recall the second item in the pair?|Type your response on a scale from 0-100 and then press Enter.",Study/JOL,"Study Phase2",3035,,,2243,2363,,,,70,1
w10013152_klj,tuhg6bpbzb,Emily_Honors_Thesis_Part_2,1,270,2020-05-05T17:35:23-07:00,4.5598528385162,4,versionC_stim.csv,READ_JOLVersionD.csv,"READ Version D",OLD,STENCH,SMELL,ON,F,42,33,JOL,User,-,"How likely are you to correctly recall the second item in the pair?|Type your response on a scale from 0-100 and then press Enter.",Study/JOL,"Study Phase2",4180,,,1923,3873,,,,70,1
w10013152_klj,tuhg6bpbzb,Emily_Honors_Thesis_Part_2,1,271,2020-05-05T17:35:25-07:00,1.7177860736847,4,versionC_stim.csv,READ_JOLVersionD.csv,"READ Version D",OLD,FLOOR,DISCOVER,ON,U,71,28,JOL,User,-,"How likely are you to correctly recall the second item in the pair?|Type your response on a scale from 0-100 and then press Enter.",Study/JOL,"Study Phase2",1399,,,1152,1152,,,,0,1
w10013152_klj,tuhg6bpbzb,Emily_Honors_Thesis_Part_2,1,272,2020-05-05T17:35:27-07:00,2.6489200592041,4,versionC_stim.csv,READ_JOLVersionD.csv,"READ Version D",OLD,AMOUNT,NUMBER,ON,S,47,62,JOL,User,-,"How likely are you to correctly recall the second item in the pair?|Type your response on a scale from 0-100 and then press Enter.",Study/JOL,"Study Phase2",2250,,,1573,1994,,,,100,1
w10013152_klj,tuhg6bpbzb,Emily_Honors_Thesis_Part_2,1,273,2020-05-05T17:35:31-07:00,3.5563180446625,4,versionC_stim.csv,READ_JOLVersionD.csv,"READ Version D",OLD,FAMINE,HUNGER,ON,F,40,11,JOL,User,-,"How likely are you to correctly recall the second item in the pair?|Type your response on a scale from 0-100 and then press Enter.",Study/JOL,"Study Phase2",3154,,,2622,2717,,,,80,1
w10013152_klj,tuhg6bpbzb,Emily_Honors_Thesis_Part_2,1,274,2020-05-05T17:35:34-07:00,3.1393978595734,4,versionC_stim.csv,READ_JOLVersionD.csv,"READ Version D",OLD,WASP,BUG,ON,F,32,19,JOL,User,-,"How likely are you to correctly recall the second item in the pair?|Type your response on a scale from 0-100 and then press Enter.",Study/JOL,"Study Phase2",2756,,,2167,2484,,,,100,1
w10013152_klj,tuhg6bpbzb,Emily_Honors_Thesis_Part_2,1,275,2020-05-05T17:35:36-07:00,1.829225063324,4,versionC_stim.csv,READ_JOLVersionD.csv,"READ Version D",OLD,TOILET,BATHROOM,ON,S,58,42,JOL,User,-,"How likely are you to correctly recall the second item in the pair?|Type your response on a scale from 0-100 and then press Enter.",Study/JOL,"Study Phase2",1504,,,858,1288,,,,100,1
w10013152_klj,tuhg6bpbzb,Emily_Honors_Thesis_Part_2,1,276,2020-05-05T17:35:38-07:00,1.7158389091492,4,versionC_stim.csv,READ_JOLVersionD.csv,"READ Version D",OLD,JURY,TRIAL,ON,S,50,71,JOL,User,-,"How likely are you to correctly recall the second item in the pair?|Type your response on a scale from 0-100 and then press Enter.",Study/JOL,"Study Phase2",1378,,,732,1182,,,,100,1
w10013152_klj,tuhg6bpbzb,Emily_Honors_Thesis_Part_2,1,277,2020-05-05T17:35:40-07:00,2.6358079910278,4,versionC_stim.csv,READ_JOLVersionD.csv,"READ Version D",OLD,DEFINITION,MEANING,ON,S,62,85,JOL,User,-,"How likely are you to correctly recall the second item in the pair?|Type your response on a scale from 0-100 and then press Enter.",Study/JOL,"Study Phase2",2202,,,1482,1973,,,,100,1
w10013152_klj,tuhg6bpbzb,Emily_Honors_Thesis_Part_2,1,278,2020-05-05T17:35:42-07:00,2.06574010849,4,versionC_stim.csv,READ_JOLVersionD.csv,"READ Version D",OLD,GOOSE,GEESE,Buffer2,Buffer,86,90,JOL,User,-,"How likely are you to correctly recall the second item in the pair?|Type your response on a scale from 0-100 and then press Enter.",Study/JOL,BUFFER4,1765,,,1045,1539,,,,100,1
w10013152_klj,tuhg6bpbzb,Emily_Honors_Thesis_Part_2,1,279,2020-05-05T17:35:45-07:00,2.7802140712738,4,versionC_stim.csv,READ_JOLVersionD.csv,"READ Version D",OLD,SPACE,MOON,Buffer2,Buffer,89,91,JOL,User,-,"How likely are you to correctly recall the second item in the pair?|Type your response on a scale from 0-100 and then press Enter.",Study/JOL,BUFFER4,1995,,,1028,1765,,,,100,1
w10013152_klj,tuhg6bpbzb,Emily_Honors_Thesis_Part_2,1,280,2020-05-05T17:35:48-07:00,2.5029759407043,4,versionC_stim.csv,READ_JOLVersionD.csv,"READ Version D",OLD,POLICE,SHERIFF,Buffer2,Buffer,87,89,JOL,User,-,"How likely are you to correctly recall the second item in the pair?|Type your response on a scale from 0-100 and then press Enter.",Study/JOL,BUFFER4,2067,,,1480,1840,,,,100,1
w10013152_klj,tuhg6bpbzb,Emily_Honors_Thesis_Part_2,1,281,2020-05-05T17:35:52-07:00,4.1513409614563,4,versionC_stim.csv,READ_JOLVersionD.csv,"READ Version D",OLD,STUFF,THING,Buffer2,Buffer,90,87,JOL,User,-,"How likely are you to correctly recall the second item in the pair?|Type your response on a scale from 0-100 and then press Enter.",Study/JOL,BUFFER4,3777,,,3218,3218,,,,0,1
w10013152_klj,tuhg6bpbzb,Emily_Honors_Thesis_Part_2,1,282,2020-05-05T17:35:57-07:00,5.7404279708862,4,versionC_stim.csv,READ_JOLVersionD.csv,"READ Version D",OLD,CHOCOLATE,MALT,Buffer2,Buffer,88,88,JOL,User,-,"How likely are you to correctly recall the second item in the pair?|Type your response on a scale from 0-100 and then press Enter.",Study/JOL,BUFFER4,5364,,,3137,4572,,,,80,1
w10013152_klj,tuhg6bpbzb,Emily_Honors_Thesis_Part_2,1,283,2020-05-05T17:35:59-07:00,1.2300889492035,4,versionC_stim.csv,READ_JOLVersionD.csv,"READ Version D",OLD,,,,,,0,Instruct,User,-,"You have completed this section. Please press Enter.",Filler_Instruction,Instruct5,915,,,-1,-1,,,,,1
w10013152_klj,tuhg6bpbzb,Emily_Honors_Thesis_Part_2,1,284,2020-05-05T17:37:59-07:00,120.39228010178,4,versionC_stim.csv,READ_JOLVersionD.csv,"READ Version D",OLD,,,,,,0,FreeRecall,120,120,"Please list the 50 US states in reverse alphabetical order (z - a). The task will automatically advance to the next screen after two minutes.",,Filler2,120008,"Wyoming Wisconsin west verginia Washington virginia Vermont Utah texas tennesseee south Dakota south Carolina rhode island Pennsylvania Oregon north Dakota north Carolina new York new mexico new jersey new",0,1955,119971,0,0,,,1
w10013152_klj,tuhg6bpbzb,Emily_Honors_Thesis_Part_2,1,285,2020-05-05T17:38:11-07:00,11.86422085762,4,versionC_stim.csv,READ_JOLVersionD.csv,"READ Version D",OLD,,,,,,0,Instruct,-,10,"You will now be presented with the first word from each of the previously studied item pairs. Please type the missing word. If you do not know the word, you may guess or press Enter to skip forward to the next pair.",,Instruct6,11493,,,-1,-1,,,,,1
w10013152_klj,tuhg6bpbzb,Emily_Honors_Thesis_Part_2,1,286,2020-05-05T17:39:11-07:00,60.282124042511,4,versionC_stim.csv,READ_JOLVersionD.csv,"READ Version D",OLD,WATER,BRIDGE,ON,B,18,65,Test,User,-,,Recall,Recall2,59837,cold,20,59257,59682,0,0,,,1
w10013152_klj,tuhg6bpbzb,Emily_Honors_Thesis_Part_2,1,287,2020-05-05T17:39:14-07:00,2.7130191326141,4,versionC_stim.csv,READ_JOLVersionD.csv,"READ Version D",OLD,CARD,CREDIT,ON,B,23,37,Test,User,-,,Recall,Recall2,2274,credit,100,1110,2017,1,1,,,1
w10013152_klj,tuhg6bpbzb,Emily_Honors_Thesis_Part_2,1,288,2020-05-05T17:39:17-07:00,3.2300698757172,4,versionC_stim.csv,READ_JOLVersionD.csv,"READ Version D",OLD,CHILI,HOT,ON,F,37,31,Test,User,-,,Recall,Recall2,2838,o,50,2563,2564,0,0,,,1
w10013152_klj,tuhg6bpbzb,Emily_Honors_Thesis_Part_2,1,289,2020-05-05T17:39:20-07:00,2.8061771392822,4,versionC_stim.csv,READ_JOLVersionD.csv,"READ Version D",OLD,SIP,DRINK,ON,F,27,34,Test,User,-,,Recall,Recall2,2435,drink,100,1428,2010,1,1,,,1
w10013152_klj,tuhg6bpbzb,Emily_Honors_Thesis_Part_2,1,290,2020-05-05T17:39:23-07:00,2.5817408561707,4,versionC_stim.csv,READ_JOLVersionD.csv,"READ Version D",OLD,HAND,FIX,ON,U,75,43,Test,User,-,,Recall,Recall2,2182,shake,0,1476,1945,0,0,,,1
