Username,ID,ExperimentName,Session,Trial,Date,TimeDif,"Condition Number","Stimuli File","Order File","Condition Description","Condition Notes",Stimuli*Cue,Stimuli*Answer,Stimuli*Shuffle,"Stimuli*Stimuli Notes",Stimuli*Value,Procedure*Item,"Procedure*Trial Type","Procedure*Max Time","Procedure*Min Time",Procedure*Text,"Procedure*Procedure Notes",Procedure*Shuffle,Response*RT,Response*Response,Response*Accuracy,Response*RTfirst,Response*RTlast,Response*strictAcc,Response*lenientAcc,Response*focus,Response*JOL,Response*Focus
w927437_AH,immd1rtkjl,Emily_Honors_Thesis_Part_2,1,1,2020-06-10T11:26:06-07:00,17.560301065445,1,versionA_stim.csv,READ_JOLVersionA.csv,"READ Version A",OLD,,,,,,0,Instruct,-,10,"In this section, you will be presented with a series of word pairs. As you study, you will be asked to rate your ability to remember the second item in the pair if you were only shown the first at test. You will make these ratings using a 0 to 100 Scale.",,Instruct13,16096,,,-1,-1,,,,,1
w927437_AH,immd1rtkjl,Emily_Honors_Thesis_Part_2,1,2,2020-06-10T11:26:19-07:00,12.909477949142,1,versionA_stim.csv,READ_JOLVersionA.csv,"READ Version A",OLD,,,,,,0,Instruct,-,10,"For example, if you are given the pair CAT - DOG, a rating of 0 indicates that you would not remember DOG at test, while a rating of 100 indicates full certainty that you would remember the word DOG at test.",,Instruct14,10509,,,-1,-1,,,,,1
w927437_AH,immd1rtkjl,Emily_Honors_Thesis_Part_2,1,3,2020-06-10T11:26:33-07:00,14.000184059143,1,versionA_stim.csv,READ_JOLVersionA.csv,"READ Version A",OLD,,,,,,0,Instruct,-,10,"When making your ratings, it is criticial that you use the full range of the scale. You will be disqualified for only giving ratings of 0 or 100! After making your rating, press Enter to advance to the next pair.",,Instruct15,11912,,,-1,-1,,,,,1
w927437_AH,immd1rtkjl,Emily_Honors_Thesis_Part_2,1,4,2020-06-10T11:26:41-07:00,8.4055790901184,1,versionA_stim.csv,READ_JOLVersionA.csv,"READ Version A",OLD,,,,,,0,Instruct,-,5,"You will now complete a practice session. Please study the following items and rate your ability to remember them.",,Instruct17,5977,,,-1,-1,,,,,1
w927437_AH,immd1rtkjl,Emily_Honors_Thesis_Part_2,1,5,2020-06-10T11:26:52-07:00,10.25303196907,1,versionA_stim.csv,READ_JOLVersionA.csv,"READ Version A",OLD,FASHION,MODEL,PRACTICE,PRACTICE,190,189,JOL,User,-,"How likely are you to correctly recall the second item in the pair?|Type your response on a scale from 0-100 and then press Enter.",Study/JOL,PRACTICE,7600,,,4630,6308,,,,75,1
w927437_AH,immd1rtkjl,Emily_Honors_Thesis_Part_2,1,6,2020-06-10T11:27:03-07:00,11.344302892685,1,versionA_stim.csv,READ_JOLVersionA.csv,"READ Version A",OLD,CHIME,MUSIC,PRACTICE,PRACTICE,188,184,JOL,User,-,"How likely are you to correctly recall the second item in the pair?|Type your response on a scale from 0-100 and then press Enter.",Study/JOL,PRACTICE,9287,,,7598,8101,,,,20,1
w927437_AH,immd1rtkjl,Emily_Honors_Thesis_Part_2,1,7,2020-06-10T11:27:08-07:00,5.2439329624176,1,versionA_stim.csv,READ_JOLVersionA.csv,"READ Version A",OLD,HAM,BONE,PRACTICE,PRACTICE,183,190,JOL,User,-,"How likely are you to correctly recall the second item in the pair?|Type your response on a scale from 0-100 and then press Enter.",Study/JOL,PRACTICE,3049,,,1941,1941,,,,0,1
w927437_AH,immd1rtkjl,Emily_Honors_Thesis_Part_2,1,8,2020-06-10T11:27:17-07:00,8.8728561401367,1,versionA_stim.csv,READ_JOLVersionA.csv,"READ Version A",OLD,AARDVARK,ZOO,PRACTICE,PRACTICE,181,183,JOL,User,-,"How likely are you to correctly recall the second item in the pair?|Type your response on a scale from 0-100 and then press Enter.",Study/JOL,PRACTICE,5390,,,4313,4464,,,,45,1
w927437_AH,immd1rtkjl,Emily_Honors_Thesis_Part_2,1,9,2020-06-10T11:27:23-07:00,6.0783159732819,1,versionA_stim.csv,READ_JOLVersionA.csv,"READ Version A",OLD,HINGE,SWING,PRACTICE,PRACTICE,185,187,JOL,User,-,"How likely are you to correctly recall the second item in the pair?|Type your response on a scale from 0-100 and then press Enter.",Study/JOL,PRACTICE,3419,,,2172,2172,,,,0,1
w927437_AH,immd1rtkjl,Emily_Honors_Thesis_Part_2,1,10,2020-06-10T11:27:29-07:00,5.5245690345764,1,versionA_stim.csv,READ_JOLVersionA.csv,"READ Version A",OLD,CHOCOLATE,BAR,PRACTICE,PRACTICE,187,186,JOL,User,-,"How likely are you to correctly recall the second item in the pair?|Type your response on a scale from 0-100 and then press Enter.",Study/JOL,PRACTICE,3470,,,1847,2502,,,,100,1
w927437_AH,immd1rtkjl,Emily_Honors_Thesis_Part_2,1,11,2020-06-10T11:27:36-07:00,7.5963189601898,1,versionA_stim.csv,READ_JOLVersionA.csv,"READ Version A",OLD,BEHAVIOR,SOCIAL,PRACTICE,PRACTICE,189,191,JOL,User,-,"How likely are you to correctly recall the second item in the pair?|Type your response on a scale from 0-100 and then press Enter.",Study/JOL,PRACTICE,4731,,,3377,3765,,,,10,1
w927437_AH,immd1rtkjl,Emily_Honors_Thesis_Part_2,1,12,2020-06-10T11:27:43-07:00,6.2405989170074,1,versionA_stim.csv,READ_JOLVersionA.csv,"READ Version A",OLD,PADDLE,ROW,PRACTICE,PRACTICE,184,188,JOL,User,-,"How likely are you to correctly recall the second item in the pair?|Type your response on a scale from 0-100 and then press Enter.",Study/JOL,PRACTICE,4318,,,2395,3283,,,,25,1
w927437_AH,immd1rtkjl,Emily_Honors_Thesis_Part_2,1,13,2020-06-10T11:27:49-07:00,6.3581471443176,1,versionA_stim.csv,READ_JOLVersionA.csv,"READ Version A",OLD,DEAF,MUTE,PRACTICE,PRACTICE,182,185,JOL,User,-,"How likely are you to correctly recall the second item in the pair?|Type your response on a scale from 0-100 and then press Enter.",Study/JOL,PRACTICE,3989,,,2334,2923,,,,100,1
w927437_AH,immd1rtkjl,Emily_Honors_Thesis_Part_2,1,14,2020-06-10T11:27:55-07:00,6.3664488792419,1,versionA_stim.csv,READ_JOLVersionA.csv,"READ Version A",OLD,DISBELIEVE,SKEPTIC,PRACTICE,PRACTICE,186,182,JOL,User,-,"How likely are you to correctly recall the second item in the pair?|Type your response on a scale from 0-100 and then press Enter.",Study/JOL,PRACTICE,4502,,,3201,3609,,,,15,1
w927437_AH,immd1rtkjl,Emily_Honors_Thesis_Part_2,1,15,2020-06-10T11:27:59-07:00,3.6779351234436,1,versionA_stim.csv,READ_JOLVersionA.csv,"READ Version A",OLD,,,,,,0,Instruct,User,-,"You have completed this section. Please press Enter to continue.",,Instruct18,1563,,,-1,-1,,,,,1
w927437_AH,immd1rtkjl,Emily_Honors_Thesis_Part_2,1,16,2020-06-10T11:28:03-07:00,4.3636648654938,1,versionA_stim.csv,READ_JOLVersionA.csv,"READ Version A",OLD,,,,,,0,Instruct,User,-,"You will now begin the study. Press Enter when you are ready to begin.",,Instruct16,1971,,,-1,-1,,,,,1
w927437_AH,immd1rtkjl,Emily_Honors_Thesis_Part_2,1,17,2020-06-10T11:28:11-07:00,7.1987950801849,1,versionA_stim.csv,READ_JOLVersionA.csv,"READ Version A",OLD,PEANUT,BUTTER,Buffer,Buffer,3,2,JOL,User,-,"How likely are you to correctly recall the second item in the pair?|Type your response on a scale from 0-100 and then press Enter.",Study/JOL,BUFFER,5202,,,3594,4689,,,,100,1
w927437_AH,immd1rtkjl,Emily_Honors_Thesis_Part_2,1,18,2020-06-10T11:28:17-07:00,6.5623099803925,1,versionA_stim.csv,READ_JOLVersionA.csv,"READ Version A",OLD,TREES,GREEN,Buffer,Buffer,1,5,JOL,User,-,"How likely are you to correctly recall the second item in the pair?|Type your response on a scale from 0-100 and then press Enter.",Study/JOL,BUFFER,4279,,,3372,3587,,,,80,1
w927437_AH,immd1rtkjl,Emily_Honors_Thesis_Part_2,1,19,2020-06-10T11:28:23-07:00,5.5202240943909,1,versionA_stim.csv,READ_JOLVersionA.csv,"READ Version A",OLD,SCARE,HIDE,Buffer,Buffer,4,6,JOL,User,-,"How likely are you to correctly recall the second item in the pair?|Type your response on a scale from 0-100 and then press Enter.",Study/JOL,BUFFER,3248,,,2509,2884,,,,10,1
w927437_AH,immd1rtkjl,Emily_Honors_Thesis_Part_2,1,20,2020-06-10T11:28:29-07:00,6.0422399044037,1,versionA_stim.csv,READ_JOLVersionA.csv,"READ Version A",OLD,SPACE,JAM,Buffer,Buffer,5,3,JOL,User,-,"How likely are you to correctly recall the second item in the pair?|Type your response on a scale from 0-100 and then press Enter.",Study/JOL,BUFFER,3679,,,2445,3132,,,,100,1
w927437_AH,immd1rtkjl,Emily_Honors_Thesis_Part_2,1,21,2020-06-10T11:28:44-07:00,15.311608076096,1,versionA_stim.csv,READ_JOLVersionA.csv,"READ Version A",OLD,BASEBALL,CATCHER,Buffer,Buffer,2,4,JOL,User,-,"How likely are you to correctly recall the second item in the pair?|Type your response on a scale from 0-100 and then press Enter.",Study/JOL,BUFFER,13338,,,12566,12797,,,,70,1
w927437_AH,immd1rtkjl,Emily_Honors_Thesis_Part_2,1,22,2020-06-10T11:28:51-07:00,6.7200620174408,1,versionA_stim.csv,READ_JOLVersionA.csv,"READ Version A",OLD,DRINK,SIP,ON,B,27,29,JOL,User,-,"How likely are you to correctly recall the second item in the pair?|Type your response on a scale from 0-100 and then press Enter.",Study/JOL,"Study Phase",3979,,,2896,3542,,,,100,1
w927437_AH,immd1rtkjl,Emily_Honors_Thesis_Part_2,1,23,2020-06-10T11:28:56-07:00,5.7213549613953,1,versionA_stim.csv,READ_JOLVersionA.csv,"READ Version A",OLD,FULL,ENOUGH,ON,B,26,21,JOL,User,-,"How likely are you to correctly recall the second item in the pair?|Type your response on a scale from 0-100 and then press Enter.",Study/JOL,"Study Phase",3792,,,2941,3347,,,,10,1
w927437_AH,immd1rtkjl,Emily_Honors_Thesis_Part_2,1,24,2020-06-10T11:29:02-07:00,5.2869439125061,1,versionA_stim.csv,READ_JOLVersionA.csv,"READ Version A",OLD,HONEY,BEE,ON,S,63,53,JOL,User,-,"How likely are you to correctly recall the second item in the pair?|Type your response on a scale from 0-100 and then press Enter.",Study/JOL,"Study Phase",2953,,,1734,2309,,,,100,1
w927437_AH,immd1rtkjl,Emily_Honors_Thesis_Part_2,1,25,2020-06-10T11:29:08-07:00,6.1525640487671,1,versionA_stim.csv,READ_JOLVersionA.csv,"READ Version A",OLD,GRILL,BAR,ON,S,52,68,JOL,User,-,"How likely are you to correctly recall the second item in the pair?|Type your response on a scale from 0-100 and then press Enter.",Study/JOL,"Study Phase",4062,,,3308,3722,,,,10,1
w927437_AH,immd1rtkjl,Emily_Honors_Thesis_Part_2,1,26,2020-06-10T11:29:12-07:00,4.4432559013367,1,versionA_stim.csv,READ_JOLVersionA.csv,"READ Version A",OLD,WINE,CHEESE,ON,S,57,33,JOL,User,-,"How likely are you to correctly recall the second item in the pair?|Type your response on a scale from 0-100 and then press Enter.",Study/JOL,"Study Phase",2123,,,1727,1727,,,,0,1
w927437_AH,immd1rtkjl,Emily_Honors_Thesis_Part_2,1,27,2020-06-10T11:29:16-07:00,4.0372920036316,1,versionA_stim.csv,READ_JOLVersionA.csv,"READ Version A",OLD,CHISEL,HAMMER,ON,F,9,50,JOL,User,-,"How likely are you to correctly recall the second item in the pair?|Type your response on a scale from 0-100 and then press Enter.",Study/JOL,"Study Phase",2036,,,1337,1337,,,,0,1
w927437_AH,immd1rtkjl,Emily_Honors_Thesis_Part_2,1,28,2020-06-10T11:29:22-07:00,6.1194360256195,1,versionA_stim.csv,READ_JOLVersionA.csv,"READ Version A",OLD,WAY,OUT,ON,F,16,64,JOL,User,-,"How likely are you to correctly recall the second item in the pair?|Type your response on a scale from 0-100 and then press Enter.",Study/JOL,"Study Phase",3484,,,2553,2889,,,,25,1
w927437_AH,immd1rtkjl,Emily_Honors_Thesis_Part_2,1,29,2020-06-10T11:29:28-07:00,5.1604709625244,1,versionA_stim.csv,READ_JOLVersionA.csv,"READ Version A",OLD,MATH,DIVISION,ON,B,33,47,JOL,User,-,"How likely are you to correctly recall the second item in the pair?|Type your response on a scale from 0-100 and then press Enter.",Study/JOL,"Study Phase",3164,,,2424,2711,,,,70,1
w927437_AH,immd1rtkjl,Emily_Honors_Thesis_Part_2,1,30,2020-06-10T11:36:55-07:00,447.83991503716,1,versionA_stim.csv,READ_JOLVersionA.csv,"READ Version A",OLD,HERD,COW,ON,F,22,76,JOL,User,-,"How likely are you to correctly recall the second item in the pair?|Type your response on a scale from 0-100 and then press Enter.",Study/JOL,"Study Phase",444999,,,444227,444374,,,,80,0.538
w927437_AH,immd1rtkjl,Emily_Honors_Thesis_Part_2,1,31,2020-06-10T11:37:01-07:00,5.9729290008545,1,versionA_stim.csv,READ_JOLVersionA.csv,"READ Version A",OLD,CASH,WOULD,ON,U,83,10,JOL,User,-,"How likely are you to correctly recall the second item in the pair?|Type your response on a scale from 0-100 and then press Enter.",Study/JOL,"Study Phase",3375,,,2564,2564,,,,0,1
w927437_AH,immd1rtkjl,Emily_Honors_Thesis_Part_2,1,32,2020-06-10T11:37:07-07:00,5.4345800876617,1,versionA_stim.csv,READ_JOLVersionA.csv,"READ Version A",OLD,DARK,CAVE,ON,B,28,46,JOL,User,-,"How likely are you to correctly recall the second item in the pair?|Type your response on a scale from 0-100 and then press Enter.",Study/JOL,"Study Phase",3075,,,2687,2783,,,,50,1
w927437_AH,immd1rtkjl,Emily_Honors_Thesis_Part_2,1,33,2020-06-10T11:37:13-07:00,6.0006718635559,1,versionA_stim.csv,READ_JOLVersionA.csv,"READ Version A",OLD,EDITOR,NEWS,ON,F,10,8,JOL,User,-,"How likely are you to correctly recall the second item in the pair?|Type your response on a scale from 0-100 and then press Enter.",Study/JOL,"Study Phase",3371,,,2879,3111,,,,20,1
w927437_AH,immd1rtkjl,Emily_Honors_Thesis_Part_2,1,34,2020-06-10T11:37:19-07:00,6.3188400268555,1,versionA_stim.csv,READ_JOLVersionA.csv,"READ Version A",OLD,SWAN,BIRD,ON,F,14,35,JOL,User,-,"How likely are you to correctly recall the second item in the pair?|Type your response on a scale from 0-100 and then press Enter.",Study/JOL,"Study Phase",4082,,,2327,3526,,,,90,1
w927437_AH,immd1rtkjl,Emily_Honors_Thesis_Part_2,1,35,2020-06-10T11:37:23-07:00,4.3025250434875,1,versionA_stim.csv,READ_JOLVersionA.csv,"READ Version A",OLD,HIDE,SICK,ON,U,84,17,JOL,User,-,"How likely are you to correctly recall the second item in the pair?|Type your response on a scale from 0-100 and then press Enter.",Study/JOL,"Study Phase",1748,,,1456,1456,,,,0,1
w927437_AH,immd1rtkjl,Emily_Honors_Thesis_Part_2,1,36,2020-06-10T11:37:28-07:00,5.013473033905,1,versionA_stim.csv,READ_JOLVersionA.csv,"READ Version A",OLD,BEGIN,END,ON,S,54,45,JOL,User,-,"How likely are you to correctly recall the second item in the pair?|Type your response on a scale from 0-100 and then press Enter.",Study/JOL,"Study Phase",2445,,,1977,2233,,,,100,1
w927437_AH,immd1rtkjl,Emily_Honors_Thesis_Part_2,1,37,2020-06-10T11:37:34-07:00,5.1614899635315,1,versionA_stim.csv,READ_JOLVersionA.csv,"READ Version A",OLD,ARCHITECTURE,DESIGN,ON,S,51,22,JOL,User,-,"How likely are you to correctly recall the second item in the pair?|Type your response on a scale from 0-100 and then press Enter.",Study/JOL,"Study Phase",2670,,,2244,2379,,,,90,1
w927437_AH,immd1rtkjl,Emily_Honors_Thesis_Part_2,1,38,2020-06-10T11:37:39-07:00,5.6006741523743,1,versionA_stim.csv,READ_JOLVersionA.csv,"READ Version A",OLD,ORCHID,FLOWER,ON,F,24,27,JOL,User,-,"How likely are you to correctly recall the second item in the pair?|Type your response on a scale from 0-100 and then press Enter.",Study/JOL,"Study Phase",2956,,,2512,2719,,,,80,1
w927437_AH,immd1rtkjl,Emily_Honors_Thesis_Part_2,1,39,2020-06-10T11:37:45-07:00,5.4516677856445,1,versionA_stim.csv,READ_JOLVersionA.csv,"READ Version A",OLD,GREAT,FANTASTIC,ON,B,35,34,JOL,User,-,"How likely are you to correctly recall the second item in the pair?|Type your response on a scale from 0-100 and then press Enter.",Study/JOL,"Study Phase",3545,,,2990,3149,,,,50,1
w927437_AH,immd1rtkjl,Emily_Honors_Thesis_Part_2,1,40,2020-06-10T11:37:49-07:00,4.5026190280914,1,versionA_stim.csv,READ_JOLVersionA.csv,"READ Version A",OLD,TRIAL,JURY,ON,S,50,58,JOL,User,-,"How likely are you to correctly recall the second item in the pair?|Type your response on a scale from 0-100 and then press Enter.",Study/JOL,"Study Phase",2249,,,1773,2029,,,,100,1
w927437_AH,immd1rtkjl,Emily_Honors_Thesis_Part_2,1,41,2020-06-10T11:37:54-07:00,5.2422571182251,1,versionA_stim.csv,READ_JOLVersionA.csv,"READ Version A",OLD,REVOLUTION,WAR,ON,F,20,77,JOL,User,-,"How likely are you to correctly recall the second item in the pair?|Type your response on a scale from 0-100 and then press Enter.",Study/JOL,"Study Phase",2514,,,2030,2278,,,,100,1
w927437_AH,immd1rtkjl,Emily_Honors_Thesis_Part_2,1,42,2020-06-10T11:38:00-07:00,5.9191918373108,1,versionA_stim.csv,READ_JOLVersionA.csv,"READ Version A",OLD,PAST,FUTURE,ON,S,61,39,JOL,User,-,"How likely are you to correctly recall the second item in the pair?|Type your response on a scale from 0-100 and then press Enter.",Study/JOL,"Study Phase",3382,,,1722,3082,,,,99,1
w927437_AH,immd1rtkjl,Emily_Honors_Thesis_Part_2,1,43,2020-06-10T11:38:06-07:00,6.0806670188904,1,versionA_stim.csv,READ_JOLVersionA.csv,"READ Version A",OLD,BUG,WASP,ON,B,32,75,JOL,User,-,"How likely are you to correctly recall the second item in the pair?|Type your response on a scale from 0-100 and then press Enter.",Study/JOL,"Study Phase",3911,,,2228,3668,,,,85,1
w927437_AH,immd1rtkjl,Emily_Honors_Thesis_Part_2,1,44,2020-06-10T11:38:11-07:00,4.604465007782,1,versionA_stim.csv,READ_JOLVersionA.csv,"READ Version A",OLD,ART,LION,ON,U,79,7,JOL,User,-,"How likely are you to correctly recall the second item in the pair?|Type your response on a scale from 0-100 and then press Enter.",Study/JOL,"Study Phase",1941,,,1313,1313,,,,0,1
w927437_AH,immd1rtkjl,Emily_Honors_Thesis_Part_2,1,45,2020-06-10T11:38:20-07:00,8.9545831680298,1,versionA_stim.csv,READ_JOLVersionA.csv,"READ Version A",OLD,BITTER,COLD,ON,F,12,41,JOL,User,-,"How likely are you to correctly recall the second item in the pair?|Type your response on a scale from 0-100 and then press Enter.",Study/JOL,"Study Phase",6461,,,6201,6202,,,,9,1
w927437_AH,immd1rtkjl,Emily_Honors_Thesis_Part_2,1,46,2020-06-10T11:38:25-07:00,5.082820892334,1,versionA_stim.csv,READ_JOLVersionA.csv,"READ Version A",OLD,DEATH,BUSINESS,ON,U,72,83,JOL,User,-,"How likely are you to correctly recall the second item in the pair?|Type your response on a scale from 0-100 and then press Enter.",Study/JOL,"Study Phase",2612,,,2330,2330,,,,1,1
w927437_AH,immd1rtkjl,Emily_Honors_Thesis_Part_2,1,47,2020-06-10T11:38:31-07:00,6.0424449443817,1,versionA_stim.csv,READ_JOLVersionA.csv,"READ Version A",OLD,SOON,BELT,ON,U,70,81,JOL,User,-,"How likely are you to correctly recall the second item in the pair?|Type your response on a scale from 0-100 and then press Enter.",Study/JOL,"Study Phase",3542,,,3228,3228,,,,1,1
w927437_AH,immd1rtkjl,Emily_Honors_Thesis_Part_2,1,48,2020-06-10T11:38:38-07:00,7.0345959663391,1,versionA_stim.csv,READ_JOLVersionA.csv,"READ Version A",OLD,BRIDGE,WATER,ON,F,18,80,JOL,User,-,"How likely are you to correctly recall the second item in the pair?|Type your response on a scale from 0-100 and then press Enter.",Study/JOL,"Study Phase",4738,,,4295,4502,,,,45,1
w927437_AH,immd1rtkjl,Emily_Honors_Thesis_Part_2,1,49,2020-06-10T11:38:44-07:00,5.801961183548,1,versionA_stim.csv,READ_JOLVersionA.csv,"READ Version A",OLD,TUNA,FISH,ON,F,25,74,JOL,User,-,"How likely are you to correctly recall the second item in the pair?|Type your response on a scale from 0-100 and then press Enter.",Study/JOL,"Study Phase",3015,,,2453,2684,,,,98,1
w927437_AH,immd1rtkjl,Emily_Honors_Thesis_Part_2,1,50,2020-06-10T11:38:50-07:00,5.9591059684753,1,versionA_stim.csv,READ_JOLVersionA.csv,"READ Version A",OLD,FIX,HAND,ON,U,75,55,JOL,User,-,"How likely are you to correctly recall the second item in the pair?|Type your response on a scale from 0-100 and then press Enter.",Study/JOL,"Study Phase",3415,,,2996,2996,,,,7,1
w927437_AH,immd1rtkjl,Emily_Honors_Thesis_Part_2,1,51,2020-06-10T11:38:55-07:00,4.6444909572601,1,versionA_stim.csv,READ_JOLVersionA.csv,"READ Version A",OLD,MACHINE,POSITION,ON,U,76,84,JOL,User,-,"How likely are you to correctly recall the second item in the pair?|Type your response on a scale from 0-100 and then press Enter.",Study/JOL,"Study Phase",2091,,,1881,1882,,,,0,1
w927437_AH,immd1rtkjl,Emily_Honors_Thesis_Part_2,1,52,2020-06-10T11:39:00-07:00,5.1180689334869,1,versionA_stim.csv,READ_JOLVersionA.csv,"READ Version A",OLD,WORK,CHORE,ON,B,39,51,JOL,User,-,"How likely are you to correctly recall the second item in the pair?|Type your response on a scale from 0-100 and then press Enter.",Study/JOL,"Study Phase",2608,,,2229,2412,,,,25,1
w927437_AH,immd1rtkjl,Emily_Honors_Thesis_Part_2,1,53,2020-06-10T11:39:04-07:00,4.7650141716003,1,versionA_stim.csv,READ_JOLVersionA.csv,"READ Version A",OLD,KING,VASE,ON,U,85,85,JOL,User,-,"How likely are you to correctly recall the second item in the pair?|Type your response on a scale from 0-100 and then press Enter.",Study/JOL,"Study Phase",2226,,,1999,1999,,,,1,1
w927437_AH,immd1rtkjl,Emily_Honors_Thesis_Part_2,1,54,2020-06-10T11:39:10-07:00,5.112664937973,1,versionA_stim.csv,READ_JOLVersionA.csv,"READ Version A",OLD,ROOT,PLANT,ON,F,13,72,JOL,User,-,"How likely are you to correctly recall the second item in the pair?|Type your response on a scale from 0-100 and then press Enter.",Study/JOL,"Study Phase",2594,,,2159,2305,,,,30,1
w927437_AH,immd1rtkjl,Emily_Honors_Thesis_Part_2,1,55,2020-06-10T11:39:18-07:00,8.8006179332733,1,versionA_stim.csv,READ_JOLVersionA.csv,"READ Version A",OLD,LOCATION,SITE,ON,S,48,78,JOL,User,-,"How likely are you to correctly recall the second item in the pair?|Type your response on a scale from 0-100 and then press Enter.",Study/JOL,"Study Phase",6348,,,6016,6016,,,,8,1
w927437_AH,immd1rtkjl,Emily_Honors_Thesis_Part_2,1,56,2020-06-10T11:39:24-07:00,5.6838359832764,1,versionA_stim.csv,READ_JOLVersionA.csv,"READ Version A",OLD,SHOE,FOOT,ON,S,60,42,JOL,User,-,"How likely are you to correctly recall the second item in the pair?|Type your response on a scale from 0-100 and then press Enter.",Study/JOL,"Study Phase",2973,,,2385,2720,,,,89,1
w927437_AH,immd1rtkjl,Emily_Honors_Thesis_Part_2,1,57,2020-06-10T11:41:39-07:00,135.23895001411,1,versionA_stim.csv,READ_JOLVersionA.csv,"READ Version A",OLD,HOT,CHILI,ON,B,37,43,JOL,User,-,"How likely are you to correctly recall the second item in the pair?|Type your response on a scale from 0-100 and then press Enter.",Study/JOL,"Study Phase",132952,,,131956,132308,,,,96,0.647
w927437_AH,immd1rtkjl,Emily_Honors_Thesis_Part_2,1,58,2020-06-10T11:41:44-07:00,4.6069350242615,1,versionA_stim.csv,READ_JOLVersionA.csv,"READ Version A",OLD,DEBATE,SIGHT,ON,U,73,31,JOL,User,-,"How likely are you to correctly recall the second item in the pair?|Type your response on a scale from 0-100 and then press Enter.",Study/JOL,"Study Phase",2822,,,2562,2562,,,,0,1
w927437_AH,immd1rtkjl,Emily_Honors_Thesis_Part_2,1,59,2020-06-10T11:41:54-07:00,10.558229923248,1,versionA_stim.csv,READ_JOLVersionA.csv,"READ Version A",OLD,NUMBER,AMOUNT,ON,S,47,20,JOL,User,-,"How likely are you to correctly recall the second item in the pair?|Type your response on a scale from 0-100 and then press Enter.",Study/JOL,"Study Phase",7758,,,6762,6825,,,,25,1
w927437_AH,immd1rtkjl,Emily_Honors_Thesis_Part_2,1,60,2020-06-10T11:42:16-07:00,21.156759977341,1,versionA_stim.csv,READ_JOLVersionA.csv,"READ Version A",OLD,PARK,HUNGRY,ON,U,68,26,JOL,User,-,"How likely are you to correctly recall the second item in the pair?|Type your response on a scale from 0-100 and then press Enter.",Study/JOL,"Study Phase",18803,,,18360,18360,,,,1,1
w927437_AH,immd1rtkjl,Emily_Honors_Thesis_Part_2,1,61,2020-06-10T11:42:30-07:00,14.420819044113,1,versionA_stim.csv,READ_JOLVersionA.csv,"READ Version A",OLD,BABY,CHILD,ON,S,64,15,JOL,User,-,"How likely are you to correctly recall the second item in the pair?|Type your response on a scale from 0-100 and then press Enter.",Study/JOL,"Study Phase",12621,,,11914,11985,,,,20,1
w927437_AH,immd1rtkjl,Emily_Honors_Thesis_Part_2,1,62,2020-06-10T11:44:08-07:00,97.932420969009,1,versionA_stim.csv,READ_JOLVersionA.csv,"READ Version A",OLD,HUNGER,FAMINE,ON,B,40,61,JOL,User,-,"How likely are you to correctly recall the second item in the pair?|Type your response on a scale from 0-100 and then press Enter.",Study/JOL,"Study Phase",95998,,,94546,94641,,,,20,1
w927437_AH,immd1rtkjl,Emily_Honors_Thesis_Part_2,1,63,2020-06-10T11:44:38-07:00,29.838937997818,1,versionA_stim.csv,READ_JOLVersionA.csv,"READ Version A",OLD,HYGIENE,CLEAN,ON,F,17,65,JOL,User,-,"How likely are you to correctly recall the second item in the pair?|Type your response on a scale from 0-100 and then press Enter.",Study/JOL,"Study Phase",27331,,,25508,26550,,,,98,1
w927437_AH,immd1rtkjl,Emily_Honors_Thesis_Part_2,1,64,2020-06-10T11:44:44-07:00,6.1659910678864,1,versionA_stim.csv,READ_JOLVersionA.csv,"READ Version A",OLD,HAPPY,CAR,ON,U,77,18,JOL,User,-,"How likely are you to correctly recall the second item in the pair?|Type your response on a scale from 0-100 and then press Enter.",Study/JOL,"Study Phase",4025,,,3421,3749,,,,15,1
w927437_AH,immd1rtkjl,Emily_Honors_Thesis_Part_2,1,65,2020-06-10T11:44:48-07:00,4.3204510211945,1,versionA_stim.csv,READ_JOLVersionA.csv,"READ Version A",OLD,CREDIT,CARD,ON,F,23,67,JOL,User,-,"How likely are you to correctly recall the second item in the pair?|Type your response on a scale from 0-100 and then press Enter.",Study/JOL,"Study Phase",2211,,,1556,1779,,,,100,1
w927437_AH,immd1rtkjl,Emily_Honors_Thesis_Part_2,1,66,2020-06-10T11:44:54-07:00,5.4861879348755,1,versionA_stim.csv,READ_JOLVersionA.csv,"READ Version A",OLD,DISCUSSION,TALK,ON,F,21,56,JOL,User,-,"How likely are you to correctly recall the second item in the pair?|Type your response on a scale from 0-100 and then press Enter.",Study/JOL,"Study Phase",2797,,,2138,2522,,,,90,1
w927437_AH,immd1rtkjl,Emily_Honors_Thesis_Part_2,1,67,2020-06-10T11:44:57-07:00,3.7154901027679,1,versionA_stim.csv,READ_JOLVersionA.csv,"READ Version A",OLD,HORNET,STING,ON,F,11,82,JOL,User,-,"How likely are you to correctly recall the second item in the pair?|Type your response on a scale from 0-100 and then press Enter.",Study/JOL,"Study Phase",1986,,,1455,1653,,,,100,1
w927437_AH,immd1rtkjl,Emily_Honors_Thesis_Part_2,1,68,2020-06-10T11:45:02-07:00,4.7925219535828,1,versionA_stim.csv,READ_JOLVersionA.csv,"READ Version A",OLD,DELINQUENT,BAD,ON,F,6,30,JOL,User,-,"How likely are you to correctly recall the second item in the pair?|Type your response on a scale from 0-100 and then press Enter.",Study/JOL,"Study Phase",2552,,,1989,2259,,,,100,1
w927437_AH,immd1rtkjl,Emily_Honors_Thesis_Part_2,1,69,2020-06-10T11:45:07-07:00,4.7225201129913,1,versionA_stim.csv,READ_JOLVersionA.csv,"READ Version A",OLD,PLANE,PILOT,ON,B,44,86,JOL,User,-,"How likely are you to correctly recall the second item in the pair?|Type your response on a scale from 0-100 and then press Enter.",Study/JOL,"Study Phase",2603,,,2184,2319,,,,98,1
w927437_AH,immd1rtkjl,Emily_Honors_Thesis_Part_2,1,70,2020-06-10T11:45:12-07:00,5.2124450206757,1,versionA_stim.csv,READ_JOLVersionA.csv,"READ Version A",OLD,GEOLOGY,ROCK,ON,F,19,59,JOL,User,-,"How likely are you to correctly recall the second item in the pair?|Type your response on a scale from 0-100 and then press Enter.",Study/JOL,"Study Phase",2957,,,2433,2689,,,,98,1
w927437_AH,immd1rtkjl,Emily_Honors_Thesis_Part_2,1,71,2020-06-10T11:45:18-07:00,5.793271780014,1,versionA_stim.csv,READ_JOLVersionA.csv,"READ Version A",OLD,LAW,ATTORNEY,ON,B,34,71,JOL,User,-,"How likely are you to correctly recall the second item in the pair?|Type your response on a scale from 0-100 and then press Enter.",Study/JOL,"Study Phase",2691,,,2368,2440,,,,99,1
w927437_AH,immd1rtkjl,Emily_Honors_Thesis_Part_2,1,72,2020-06-10T11:45:24-07:00,5.7135021686554,1,versionA_stim.csv,READ_JOLVersionA.csv,"READ Version A",OLD,HEIGHT,GROWTH,ON,B,30,38,JOL,User,-,"How likely are you to correctly recall the second item in the pair?|Type your response on a scale from 0-100 and then press Enter.",Study/JOL,"Study Phase",3840,,,2701,3573,,,,79,1
w927437_AH,immd1rtkjl,Emily_Honors_Thesis_Part_2,1,73,2020-06-10T11:45:30-07:00,6.4402940273285,1,versionA_stim.csv,READ_JOLVersionA.csv,"READ Version A",OLD,POP,SODA,ON,S,56,52,JOL,User,-,"How likely are you to correctly recall the second item in the pair?|Type your response on a scale from 0-100 and then press Enter.",Study/JOL,"Study Phase",4376,,,1720,4063,,,,97,1
w927437_AH,immd1rtkjl,Emily_Honors_Thesis_Part_2,1,74,2020-06-10T11:45:35-07:00,5.3269858360291,1,versionA_stim.csv,READ_JOLVersionA.csv,"READ Version A",OLD,CIRCLE,ROUND,ON,S,65,54,JOL,User,-,"How likely are you to correctly recall the second item in the pair?|Type your response on a scale from 0-100 and then press Enter.",Study/JOL,"Study Phase",2549,,,2107,2277,,,,100,1
w927437_AH,immd1rtkjl,Emily_Honors_Thesis_Part_2,1,75,2020-06-10T11:45:56-07:00,20.078626155853,1,versionA_stim.csv,READ_JOLVersionA.csv,"READ Version A",OLD,BLOW,WIND,ON,S,55,49,JOL,User,-,"How likely are you to correctly recall the second item in the pair?|Type your response on a scale from 0-100 and then press Enter.",Study/JOL,"Study Phase",17978,,,17458,17655,,,,79,1
w927437_AH,immd1rtkjl,Emily_Honors_Thesis_Part_2,1,76,2020-06-10T11:46:00-07:00,4.0741028785706,1,versionA_stim.csv,READ_JOLVersionA.csv,"READ Version A",OLD,LIFT,WOMAN,ON,U,69,40,JOL,User,-,"How likely are you to correctly recall the second item in the pair?|Type your response on a scale from 0-100 and then press Enter.",Study/JOL,"Study Phase",1913,,,1662,1662,,,,0,1
w927437_AH,immd1rtkjl,Emily_Honors_Thesis_Part_2,1,77,2020-06-10T11:46:06-07:00,6.6801121234894,1,versionA_stim.csv,READ_JOLVersionA.csv,"READ Version A",OLD,DUMP,WASTE,ON,S,49,24,JOL,User,-,"How likely are you to correctly recall the second item in the pair?|Type your response on a scale from 0-100 and then press Enter.",Study/JOL,"Study Phase",4266,,,3919,3974,,,,49,1
w927437_AH,immd1rtkjl,Emily_Honors_Thesis_Part_2,1,78,2020-06-10T11:46:11-07:00,4.6015758514404,1,versionA_stim.csv,READ_JOLVersionA.csv,"READ Version A",OLD,SUGAR,RIDDLE,ON,U,81,63,JOL,User,-,"How likely are you to correctly recall the second item in the pair?|Type your response on a scale from 0-100 and then press Enter.",Study/JOL,"Study Phase",2318,,,2097,2098,,,,1,1
w927437_AH,immd1rtkjl,Emily_Honors_Thesis_Part_2,1,79,2020-06-10T11:46:16-07:00,5.1259231567383,1,versionA_stim.csv,READ_JOLVersionA.csv,"READ Version A",OLD,SENTENCE,WORD,ON,B,31,12,JOL,User,-,"How likely are you to correctly recall the second item in the pair?|Type your response on a scale from 0-100 and then press Enter.",Study/JOL,"Study Phase",2872,,,2500,2580,,,,10,1
w927437_AH,immd1rtkjl,Emily_Honors_Thesis_Part_2,1,80,2020-06-10T11:46:34-07:00,17.553605794907,1,versionA_stim.csv,READ_JOLVersionA.csv,"READ Version A",OLD,MEANING,DEFINITION,ON,S,62,9,JOL,User,-,"How likely are you to correctly recall the second item in the pair?|Type your response on a scale from 0-100 and then press Enter.",Study/JOL,"Study Phase",15644,,,14915,15330,,,,98,1
w927437_AH,immd1rtkjl,Emily_Honors_Thesis_Part_2,1,81,2020-06-10T11:46:39-07:00,5.3201780319214,1,versionA_stim.csv,READ_JOLVersionA.csv,"READ Version A",OLD,BALL,RACKET,ON,B,38,79,JOL,User,-,"How likely are you to correctly recall the second item in the pair?|Type your response on a scale from 0-100 and then press Enter.",Study/JOL,"Study Phase",3467,,,3191,3191,,,,0,1
w927437_AH,immd1rtkjl,Emily_Honors_Thesis_Part_2,1,82,2020-06-10T11:46:46-07:00,7.4028179645538,1,versionA_stim.csv,READ_JOLVersionA.csv,"READ Version A",OLD,CLOTHES,ATTIRE,ON,B,43,69,JOL,User,-,"How likely are you to correctly recall the second item in the pair?|Type your response on a scale from 0-100 and then press Enter.",Study/JOL,"Study Phase",5518,,,4770,5018,,,,98,1
w927437_AH,immd1rtkjl,Emily_Honors_Thesis_Part_2,1,83,2020-06-10T11:46:53-07:00,6.6064012050629,1,versionA_stim.csv,READ_JOLVersionA.csv,"READ Version A",OLD,KEY,LATCH,ON,B,36,62,JOL,User,-,"How likely are you to correctly recall the second item in the pair?|Type your response on a scale from 0-100 and then press Enter.",Study/JOL,"Study Phase",4177,,,3406,3894,,,,10,1
w927437_AH,immd1rtkjl,Emily_Honors_Thesis_Part_2,1,84,2020-06-10T11:47:00-07:00,6.7167119979858,1,versionA_stim.csv,READ_JOLVersionA.csv,"READ Version A",OLD,ARTERY,BRONZE,ON,U,74,32,JOL,User,-,"How likely are you to correctly recall the second item in the pair?|Type your response on a scale from 0-100 and then press Enter.",Study/JOL,"Study Phase",4998,,,4676,4676,,,,0,1
w927437_AH,immd1rtkjl,Emily_Honors_Thesis_Part_2,1,85,2020-06-10T11:47:43-07:00,43.59986281395,1,versionA_stim.csv,READ_JOLVersionA.csv,"READ Version A",OLD,DIETARY,SACKING,ON,U,67,70,JOL,User,-,"How likely are you to correctly recall the second item in the pair?|Type your response on a scale from 0-100 and then press Enter.",Study/JOL,"Study Phase",41652,,,40457,40457,,,,0,1
w927437_AH,immd1rtkjl,Emily_Honors_Thesis_Part_2,1,86,2020-06-10T11:48:06-07:00,23.191627979279,1,versionA_stim.csv,READ_JOLVersionA.csv,"READ Version A",OLD,STRONG,ACCIDENT,ON,U,80,60,JOL,User,-,"How likely are you to correctly recall the second item in the pair?|Type your response on a scale from 0-100 and then press Enter.",Study/JOL,"Study Phase",20881,,,20478,20478,,,,0,1
w927437_AH,immd1rtkjl,Emily_Honors_Thesis_Part_2,1,87,2020-06-10T11:48:17-07:00,10.965845108032,1,versionA_stim.csv,READ_JOLVersionA.csv,"READ Version A",OLD,TAKE,SEIZE,ON,B,29,28,JOL,User,-,"How likely are you to correctly recall the second item in the pair?|Type your response on a scale from 0-100 and then press Enter.",Study/JOL,"Study Phase",8882,,,7910,8115,,,,15,1
w927437_AH,immd1rtkjl,Emily_Honors_Thesis_Part_2,1,88,2020-06-10T11:48:59-07:00,41.276310920715,1,versionA_stim.csv,READ_JOLVersionA.csv,"READ Version A",OLD,LETTUCE,SALAD,ON,S,59,19,JOL,User,-,"How likely are you to correctly recall the second item in the pair?|Type your response on a scale from 0-100 and then press Enter.",Study/JOL,"Study Phase",39267,,,38848,38974,,,,90,1
w927437_AH,immd1rtkjl,Emily_Honors_Thesis_Part_2,1,89,2020-06-10T11:49:13-07:00,13.960462093353,1,versionA_stim.csv,READ_JOLVersionA.csv,"READ Version A",OLD,DIGESTION,STOMACH,ON,F,7,37,JOL,User,-,"How likely are you to correctly recall the second item in the pair?|Type your response on a scale from 0-100 and then press Enter.",Study/JOL,"Study Phase",11649,,,10990,11261,,,,70,1
w927437_AH,immd1rtkjl,Emily_Honors_Thesis_Part_2,1,90,2020-06-10T11:49:20-07:00,7.5622539520264,1,versionA_stim.csv,READ_JOLVersionA.csv,"READ Version A",OLD,WAGE,MONEY,ON,F,8,44,JOL,User,-,"How likely are you to correctly recall the second item in the pair?|Type your response on a scale from 0-100 and then press Enter.",Study/JOL,"Study Phase",5462,,,2483,4962,,,,80,1
w927437_AH,immd1rtkjl,Emily_Honors_Thesis_Part_2,1,91,2020-06-10T11:50:11-07:00,50.958438158035,1,versionA_stim.csv,READ_JOLVersionA.csv,"READ Version A",OLD,VALLEY,ADD,ON,U,82,36,JOL,User,-,"How likely are you to correctly recall the second item in the pair?|Type your response on a scale from 0-100 and then press Enter.",Study/JOL,"Study Phase",48510,,,48019,48019,,,,0,1
w927437_AH,immd1rtkjl,Emily_Honors_Thesis_Part_2,1,92,2020-06-10T11:52:46-07:00,154.63838887215,1,versionA_stim.csv,READ_JOLVersionA.csv,"READ Version A",OLD,SLEEP,DROWSY,ON,B,41,73,JOL,User,-,"How likely are you to correctly recall the second item in the pair?|Type your response on a scale from 0-100 and then press Enter.",Study/JOL,"Study Phase",152479,,,149963,150258,,,,50,1
w927437_AH,immd1rtkjl,Emily_Honors_Thesis_Part_2,1,93,2020-06-10T11:52:53-07:00,7.5967149734497,1,versionA_stim.csv,READ_JOLVersionA.csv,"READ Version A",OLD,BATHROOM,TOILET,ON,S,58,23,JOL,User,-,"How likely are you to correctly recall the second item in the pair?|Type your response on a scale from 0-100 and then press Enter.",Study/JOL,"Study Phase",5389,,,4661,4889,,,,80,1
w927437_AH,immd1rtkjl,Emily_Honors_Thesis_Part_2,1,94,2020-06-10T11:52:59-07:00,5.1658489704132,1,versionA_stim.csv,READ_JOLVersionA.csv,"READ Version A",OLD,PUSHER,CLUTTER,ON,U,66,16,JOL,User,-,"How likely are you to correctly recall the second item in the pair?|Type your response on a scale from 0-100 and then press Enter.",Study/JOL,"Study Phase",3304,,,2822,2822,,,,0,1
w927437_AH,immd1rtkjl,Emily_Honors_Thesis_Part_2,1,95,2020-06-10T11:56:15-07:00,196.66002511978,1,versionA_stim.csv,READ_JOLVersionA.csv,"READ Version A",OLD,FIRE,BLAZE,ON,B,45,11,JOL,User,-,"How likely are you to correctly recall the second item in the pair?|Type your response on a scale from 0-100 and then press Enter.",Study/JOL,"Study Phase",194458,,,193302,193533,,,,80,0.989
w927437_AH,immd1rtkjl,Emily_Honors_Thesis_Part_2,1,96,2020-06-10T11:56:22-07:00,6.5918729305267,1,versionA_stim.csv,READ_JOLVersionA.csv,"READ Version A",OLD,SMELL,STENCH,ON,B,42,13,JOL,User,-,"How likely are you to correctly recall the second item in the pair?|Type your response on a scale from 0-100 and then press Enter.",Study/JOL,"Study Phase",3669,,,3321,3376,,,,90,1
w927437_AH,immd1rtkjl,Emily_Honors_Thesis_Part_2,1,97,2020-06-10T11:56:25-07:00,3.5483920574188,1,versionA_stim.csv,READ_JOLVersionA.csv,"READ Version A",OLD,ALLOW,TUCK,ON,U,78,66,JOL,User,-,"How likely are you to correctly recall the second item in the pair?|Type your response on a scale from 0-100 and then press Enter.",Study/JOL,"Study Phase",1629,,,1385,1385,,,,0,1
w927437_AH,immd1rtkjl,Emily_Honors_Thesis_Part_2,1,98,2020-06-10T11:56:31-07:00,5.5601630210876,1,versionA_stim.csv,READ_JOLVersionA.csv,"READ Version A",OLD,DUE,ASSIGNMENT,ON,S,46,25,JOL,User,-,"How likely are you to correctly recall the second item in the pair?|Type your response on a scale from 0-100 and then press Enter.",Study/JOL,"Study Phase",3399,,,3021,3141,,,,30,1
w927437_AH,immd1rtkjl,Emily_Honors_Thesis_Part_2,1,99,2020-06-10T11:56:36-07:00,4.8011019229889,1,versionA_stim.csv,READ_JOLVersionA.csv,"READ Version A",OLD,PAW,DOG,ON,F,15,57,JOL,User,-,"How likely are you to correctly recall the second item in the pair?|Type your response on a scale from 0-100 and then press Enter.",Study/JOL,"Study Phase",2740,,,2312,2440,,,,80,1
w927437_AH,immd1rtkjl,Emily_Honors_Thesis_Part_2,1,100,2020-06-10T11:58:32-07:00,115.99411892891,1,versionA_stim.csv,READ_JOLVersionA.csv,"READ Version A",OLD,DISCOVER,FLOOR,ON,U,71,48,JOL,User,-,"How likely are you to correctly recall the second item in the pair?|Type your response on a scale from 0-100 and then press Enter.",Study/JOL,"Study Phase",113152,,,112901,112901,,,,0,0.423
w927437_AH,immd1rtkjl,Emily_Honors_Thesis_Part_2,1,101,2020-06-10T11:58:39-07:00,6.8379781246185,1,versionA_stim.csv,READ_JOLVersionA.csv,"READ Version A",OLD,KIDNEY,LIVER,ON,S,53,14,JOL,User,-,"How likely are you to correctly recall the second item in the pair?|Type your response on a scale from 0-100 and then press Enter.",Study/JOL,"Study Phase",3824,,,3045,3396,,,,60,1
w927437_AH,immd1rtkjl,Emily_Honors_Thesis_Part_2,1,102,2020-06-10T11:58:44-07:00,5.8461098670959,1,versionA_stim.csv,READ_JOLVersionA.csv,"READ Version A",OLD,MOON,SPACE,Buffer2,Buffer,89,87,JOL,User,-,"How likely are you to correctly recall the second item in the pair?|Type your response on a scale from 0-100 and then press Enter.",Study/JOL,BUFFER2,3260,,,2762,2967,,,,100,1
w927437_AH,immd1rtkjl,Emily_Honors_Thesis_Part_2,1,103,2020-06-10T11:58:52-07:00,7.4829800128937,1,versionA_stim.csv,READ_JOLVersionA.csv,"READ Version A",OLD,THING,STUFF,Buffer2,Buffer,90,88,JOL,User,-,"How likely are you to correctly recall the second item in the pair?|Type your response on a scale from 0-100 and then press Enter.",Study/JOL,BUFFER2,5493,,,5194,5249,,,,30,1
w927437_AH,immd1rtkjl,Emily_Honors_Thesis_Part_2,1,104,2020-06-10T11:58:57-07:00,5.2714731693268,1,versionA_stim.csv,READ_JOLVersionA.csv,"READ Version A",OLD,SHERIFF,POLICE,Buffer2,Buffer,87,91,JOL,User,-,"How likely are you to correctly recall the second item in the pair?|Type your response on a scale from 0-100 and then press Enter.",Study/JOL,BUFFER2,2675,,,1792,2231,,,,99,1
w927437_AH,immd1rtkjl,Emily_Honors_Thesis_Part_2,1,105,2020-06-10T11:59:02-07:00,4.9636888504028,1,versionA_stim.csv,READ_JOLVersionA.csv,"READ Version A",OLD,MALT,CHOCOLATE,Buffer2,Buffer,88,90,JOL,User,-,"How likely are you to correctly recall the second item in the pair?|Type your response on a scale from 0-100 and then press Enter.",Study/JOL,BUFFER2,2805,,,2434,2577,,,,70,1
w927437_AH,immd1rtkjl,Emily_Honors_Thesis_Part_2,1,106,2020-06-10T11:59:08-07:00,5.9618649482727,1,versionA_stim.csv,READ_JOLVersionA.csv,"READ Version A",OLD,GEESE,GOOSE,Buffer2,Buffer,86,89,JOL,User,-,"How likely are you to correctly recall the second item in the pair?|Type your response on a scale from 0-100 and then press Enter.",Study/JOL,BUFFER2,4237,,,3177,3921,,,,100,1
w927437_AH,immd1rtkjl,Emily_Honors_Thesis_Part_2,1,107,2020-06-10T11:59:12-07:00,3.5215730667114,1,versionA_stim.csv,READ_JOLVersionA.csv,"READ Version A",OLD,,,,,,0,Instruct,User,-,"You have completed this section. Please press Enter.",Filler_Instruction,Instruct2,1689,,,-1,-1,,,,,1
w927437_AH,immd1rtkjl,Emily_Honors_Thesis_Part_2,1,108,2020-06-10T12:01:14-07:00,122.56372714043,1,versionA_stim.csv,READ_JOLVersionA.csv,"READ Version A",OLD,,,,,,0,FreeRecall,120,120,"Please list the 50 US states in alphabetical order. The task will automatically advance to the next screen after two minutes.",,Filler1,120005,"Alabama Alaska Arizona Arkansas California Colarado Deleware Florida Indiana Iowa ",0,6671,119462,0,0,,,0.943
w927437_AH,immd1rtkjl,Emily_Honors_Thesis_Part_2,1,109,2020-06-10T12:01:29-07:00,14.968576908112,1,versionA_stim.csv,READ_JOLVersionA.csv,"READ Version A",OLD,,,,,,0,Instruct,-,10,"You will now be presented with the first word from each of the previously studied item pairs. Please type the missing word. If you do not know the word, you may guess or press Enter to skip forward to the next pair.",,Instruct3,13241,,,-1,-1,,,,,1
w927437_AH,immd1rtkjl,Emily_Honors_Thesis_Part_2,1,110,2020-06-10T12:01:34-07:00,4.7513699531555,1,versionA_stim.csv,READ_JOLVersionA.csv,"READ Version A",OLD,BEGIN,END,ON,S,54,45,Test,User,-,,Recall,Recall1,3030,End,100,1715,2226,1,1,,,1
w927437_AH,immd1rtkjl,Emily_Honors_Thesis_Part_2,1,111,2020-06-10T12:01:42-07:00,8.5584321022034,1,versionA_stim.csv,READ_JOLVersionA.csv,"READ Version A",OLD,ALLOW,TUCK,ON,U,78,66,Test,User,-,,Recall,Recall1,6540,,0,-1,-1,0,0,,,1
w927437_AH,immd1rtkjl,Emily_Honors_Thesis_Part_2,1,112,2020-06-10T12:01:48-07:00,5.1647310256958,1,versionA_stim.csv,READ_JOLVersionA.csv,"READ Version A",OLD,KEY,LATCH,ON,B,36,62,Test,User,-,,Recall,Recall1,2516,Lock,44.444444444444,1591,2271,0,0,,,1
w927437_AH,immd1rtkjl,Emily_Honors_Thesis_Part_2,1,113,2020-06-10T12:01:54-07:00,6.3196918964386,1,versionA_stim.csv,READ_JOLVersionA.csv,"READ Version A",OLD,HOT,CHILI,ON,B,37,43,Test,User,-,,Recall,Recall1,4586,cold,44.444444444444,4046,4406,0,0,,,1
w927437_AH,immd1rtkjl,Emily_Honors_Thesis_Part_2,1,114,2020-06-10T12:01:58-07:00,4.1102449893951,1,versionA_stim.csv,READ_JOLVersionA.csv,"READ Version A",OLD,DEBATE,SIGHT,ON,U,73,31,Test,User,-,,Recall,Recall1,2174,argue,20,1442,1962,0,0,,,1
w927437_AH,immd1rtkjl,Emily_Honors_Thesis_Part_2,1,115,2020-06-10T12:02:02-07:00,4.1649789810181,1,versionA_stim.csv,READ_JOLVersionA.csv,"READ Version A",OLD,DIGESTION,STOMACH,ON,F,7,37,Test,User,-,,Recall,Recall1,2207,stomach,100,1212,1971,1,1,,,1
w927437_AH,immd1rtkjl,Emily_Honors_Thesis_Part_2,1,116,2020-06-10T12:02:07-07:00,4.4311721324921,1,versionA_stim.csv,READ_JOLVersionA.csv,"READ Version A",OLD,HYGIENE,CLEAN,ON,F,17,65,Test,User,-,,Recall,Recall1,2237,clean,100,1340,1763,1,1,,,1
w927437_AH,immd1rtkjl,Emily_Honors_Thesis_Part_2,1,117,2020-06-10T12:02:16-07:00,9.684898853302,1,versionA_stim.csv,READ_JOLVersionA.csv,"READ Version A",OLD,LAW,ATTORNEY,ON,B,34,71,Test,User,-,,Recall,Recall1,7685,jury,33.333333333333,7026,7417,0,0,,,1
w927437_AH,immd1rtkjl,Emily_Honors_Thesis_Part_2,1,118,2020-06-10T12:02:21-07:00,5.1232981681824,1,versionA_stim.csv,READ_JOLVersionA.csv,"READ Version A",OLD,HIDE,SICK,ON,U,84,17,Test,User,-,,Recall,Recall1,2530,,0,-1,-1,0,0,,,1
w927437_AH,immd1rtkjl,Emily_Honors_Thesis_Part_2,1,119,2020-06-10T12:02:25-07:00,3.1149218082428,1,versionA_stim.csv,READ_JOLVersionA.csv,"READ Version A",OLD,BLOW,WIND,ON,S,55,49,Test,User,-,,Recall,Recall1,1112,,0,-1,-1,0,0,,,1
w927437_AH,immd1rtkjl,Emily_Honors_Thesis_Part_2,1,120,2020-06-10T12:02:29-07:00,4.2077951431274,1,versionA_stim.csv,READ_JOLVersionA.csv,"READ Version A",OLD,REVOLUTION,WAR,ON,F,20,77,Test,User,-,,Recall,Recall1,2119,war,100,1691,1907,1,1,,,1
w927437_AH,immd1rtkjl,Emily_Honors_Thesis_Part_2,1,121,2020-06-10T12:02:33-07:00,4.7104518413544,1,versionA_stim.csv,READ_JOLVersionA.csv,"READ Version A",OLD,BITTER,COLD,ON,F,12,41,Test,User,-,,Recall,Recall1,2335,,0,-1,-1,0,0,,,1
w927437_AH,immd1rtkjl,Emily_Honors_Thesis_Part_2,1,122,2020-06-10T12:02:38-07:00,4.5625801086426,1,versionA_stim.csv,READ_JOLVersionA.csv,"READ Version A",OLD,HAPPY,CAR,ON,U,77,18,Test,User,-,,Recall,Recall1,2150,,0,-1,-1,0,0,,,1
w927437_AH,immd1rtkjl,Emily_Honors_Thesis_Part_2,1,123,2020-06-10T12:02:42-07:00,3.6847259998322,1,versionA_stim.csv,READ_JOLVersionA.csv,"READ Version A",OLD,FIX,HAND,ON,U,75,55,Test,User,-,,Recall,Recall1,1417,,0,-1,-1,0,0,,,1
w927437_AH,immd1rtkjl,Emily_Honors_Thesis_Part_2,1,124,2020-06-10T12:02:47-07:00,5.4103651046753,1,versionA_stim.csv,READ_JOLVersionA.csv,"READ Version A",OLD,MATH,DIVISION,ON,B,33,47,Test,User,-,,Recall,Recall1,3382,school,28.571428571429,2554,3193,0,0,,,1
w927437_AH,immd1rtkjl,Emily_Honors_Thesis_Part_2,1,125,2020-06-10T12:02:52-07:00,4.9025828838348,1,versionA_stim.csv,READ_JOLVersionA.csv,"READ Version A",OLD,ARTERY,BRONZE,ON,U,74,32,Test,User,-,,Recall,Recall1,2648,blood,36.363636363636,1956,2492,0,0,,,1
w927437_AH,immd1rtkjl,Emily_Honors_Thesis_Part_2,1,126,2020-06-10T12:02:56-07:00,3.6471350193024,1,versionA_stim.csv,READ_JOLVersionA.csv,"READ Version A",OLD,ORCHID,FLOWER,ON,F,24,27,Test,User,-,,Recall,Recall1,1586,flower,100,910,1437,1,1,,,1
w927437_AH,immd1rtkjl,Emily_Honors_Thesis_Part_2,1,127,2020-06-10T12:03:00-07:00,3.8401679992676,1,versionA_stim.csv,READ_JOLVersionA.csv,"READ Version A",OLD,BRIDGE,WATER,ON,F,18,80,Test,User,-,,Recall,Recall1,1813,water,100,1114,1650,1,1,,,1
w927437_AH,immd1rtkjl,Emily_Honors_Thesis_Part_2,1,128,2020-06-10T12:03:04-07:00,4.2938079833984,1,versionA_stim.csv,READ_JOLVersionA.csv,"READ Version A",OLD,SWAN,BIRD,ON,F,14,35,Test,User,-,,Recall,Recall1,1536,bird,100,1006,1388,1,1,,,1
w927437_AH,immd1rtkjl,Emily_Honors_Thesis_Part_2,1,129,2020-06-10T12:03:07-07:00,3.3853580951691,1,versionA_stim.csv,READ_JOLVersionA.csv,"READ Version A",OLD,SUGAR,RIDDLE,ON,U,81,63,Test,User,-,,Recall,Recall1,1376,,0,-1,-1,0,0,,,1
w927437_AH,immd1rtkjl,Emily_Honors_Thesis_Part_2,1,130,2020-06-10T12:03:12-07:00,4.3532299995422,1,versionA_stim.csv,READ_JOLVersionA.csv,"READ Version A",OLD,DRINK,SIP,ON,B,27,29,Test,User,-,,Recall,Recall1,2367,water,0,1707,2187,0,0,,,1
w927437_AH,immd1rtkjl,Emily_Honors_Thesis_Part_2,1,131,2020-06-10T12:03:15-07:00,3.9294068813324,1,versionA_stim.csv,READ_JOLVersionA.csv,"READ Version A",OLD,DARK,CAVE,ON,B,28,46,Test,User,-,,Recall,Recall1,1612,,0,-1,-1,0,0,,,1
w927437_AH,immd1rtkjl,Emily_Honors_Thesis_Part_2,1,132,2020-06-10T12:03:22-07:00,6.2746620178223,1,versionA_stim.csv,READ_JOLVersionA.csv,"READ Version A",OLD,MEANING,DEFINITION,ON,S,62,9,Test,User,-,,Recall,Recall1,4106,understanding,34.782608695652,2414,3934,0,0,,,1
w927437_AH,immd1rtkjl,Emily_Honors_Thesis_Part_2,1,133,2020-06-10T12:03:26-07:00,4.5204699039459,1,versionA_stim.csv,READ_JOLVersionA.csv,"READ Version A",OLD,DUMP,WASTE,ON,S,49,24,Test,User,-,,Recall,Recall1,2494,truck,20,1859,2274,0,0,,,1
w927437_AH,immd1rtkjl,Emily_Honors_Thesis_Part_2,1,134,2020-06-10T12:03:31-07:00,4.8850750923157,1,versionA_stim.csv,READ_JOLVersionA.csv,"READ Version A",OLD,BUG,WASP,ON,B,32,75,Test,User,-,,Recall,Recall1,1717,,0,-1,-1,0,0,,,1
w927437_AH,immd1rtkjl,Emily_Honors_Thesis_Part_2,1,135,2020-06-10T12:03:35-07:00,3.9952290058136,1,versionA_stim.csv,READ_JOLVersionA.csv,"READ Version A",OLD,SMELL,STENCH,ON,B,42,13,Test,User,-,,Recall,Recall1,1714,nose,20,1223,1542,0,0,,,1
w927437_AH,immd1rtkjl,Emily_Honors_Thesis_Part_2,1,136,2020-06-10T12:03:39-07:00,3.7993040084839,1,versionA_stim.csv,READ_JOLVersionA.csv,"READ Version A",OLD,GEOLOGY,ROCK,ON,F,19,59,Test,User,-,,Recall,Recall1,1760,rock,100,1101,1436,1,1,,,1
w927437_AH,immd1rtkjl,Emily_Honors_Thesis_Part_2,1,137,2020-06-10T12:03:43-07:00,4.157644033432,1,versionA_stim.csv,READ_JOLVersionA.csv,"READ Version A",OLD,WAGE,MONEY,ON,F,8,44,Test,User,-,,Recall,Recall1,2129,money,100,1365,1924,1,1,,,1
w927437_AH,immd1rtkjl,Emily_Honors_Thesis_Part_2,1,138,2020-06-10T12:03:46-07:00,3.3215479850769,1,versionA_stim.csv,READ_JOLVersionA.csv,"READ Version A",OLD,LIFT,WOMAN,ON,U,69,40,Test,User,-,,Recall,Recall1,1076,,0,-1,-1,0,0,,,1
w927437_AH,immd1rtkjl,Emily_Honors_Thesis_Part_2,1,139,2020-06-10T12:03:52-07:00,5.1626000404358,1,versionA_stim.csv,READ_JOLVersionA.csv,"READ Version A",OLD,CASH,WOULD,ON,U,83,10,Test,User,-,,Recall,Recall1,2708,,0,-1,-1,0,0,,,1
w927437_AH,immd1rtkjl,Emily_Honors_Thesis_Part_2,1,140,2020-06-10T12:03:56-07:00,3.9529190063477,1,versionA_stim.csv,READ_JOLVersionA.csv,"READ Version A",OLD,SOON,BELT,ON,U,70,81,Test,User,-,,Recall,Recall1,1286,,0,-1,-1,0,0,,,1
w927437_AH,immd1rtkjl,Emily_Honors_Thesis_Part_2,1,141,2020-06-10T12:04:01-07:00,5.3627438545227,1,versionA_stim.csv,READ_JOLVersionA.csv,"READ Version A",OLD,BALL,RACKET,ON,B,38,79,Test,User,-,,Recall,Recall1,3353,park,40,2862,3132,0,0,,,1
w927437_AH,immd1rtkjl,Emily_Honors_Thesis_Part_2,1,142,2020-06-10T12:04:05-07:00,3.8048241138458,1,versionA_stim.csv,READ_JOLVersionA.csv,"READ Version A",OLD,PAST,FUTURE,ON,S,61,39,Test,User,-,,Recall,Recall1,1691,future,100,976,1511,1,1,,,1
w927437_AH,immd1rtkjl,Emily_Honors_Thesis_Part_2,1,143,2020-06-10T12:04:08-07:00,3.3530440330505,1,versionA_stim.csv,READ_JOLVersionA.csv,"READ Version A",OLD,CLOTHES,ATTIRE,ON,B,43,69,Test,User,-,,Recall,Recall1,1165,,0,-1,-1,0,0,,,1
w927437_AH,immd1rtkjl,Emily_Honors_Thesis_Part_2,1,144,2020-06-10T12:04:13-07:00,4.7201859951019,1,versionA_stim.csv,READ_JOLVersionA.csv,"READ Version A",OLD,WINE,CHEESE,ON,S,57,33,Test,User,-,,Recall,Recall1,2374,,0,-1,-1,0,0,,,1
w927437_AH,immd1rtkjl,Emily_Honors_Thesis_Part_2,1,145,2020-06-10T12:04:19-07:00,5.7213778495789,1,versionA_stim.csv,READ_JOLVersionA.csv,"READ Version A",OLD,WORK,CHORE,ON,B,39,51,Test,User,-,,Recall,Recall1,3513,money,40,2813,3301,0,0,,,1
w927437_AH,immd1rtkjl,Emily_Honors_Thesis_Part_2,1,146,2020-06-10T12:04:22-07:00,3.8058631420135,1,versionA_stim.csv,READ_JOLVersionA.csv,"READ Version A",OLD,FULL,ENOUGH,ON,B,26,21,Test,User,-,,Recall,Recall1,1448,,0,-1,-1,0,0,,,1
w927437_AH,immd1rtkjl,Emily_Honors_Thesis_Part_2,1,147,2020-06-10T12:04:27-07:00,4.352187871933,1,versionA_stim.csv,READ_JOLVersionA.csv,"READ Version A",OLD,LOCATION,SITE,ON,S,48,78,Test,User,-,,Recall,Recall1,2311,,0,-1,-1,0,0,,,1
w927437_AH,immd1rtkjl,Emily_Honors_Thesis_Part_2,1,148,2020-06-10T12:04:31-07:00,4.4058001041412,1,versionA_stim.csv,READ_JOLVersionA.csv,"READ Version A",OLD,ARCHITECTURE,DESIGN,ON,S,51,22,Test,User,-,,Recall,Recall1,2018,design,100,1098,1761,1,1,,,1
w927437_AH,immd1rtkjl,Emily_Honors_Thesis_Part_2,1,149,2020-06-10T12:04:35-07:00,4.2068290710449,1,versionA_stim.csv,READ_JOLVersionA.csv,"READ Version A",OLD,KING,VASE,ON,U,85,85,Test,User,-,,Recall,Recall1,1922,queen,22.222222222222,1271,1734,0,0,,,1
w927437_AH,immd1rtkjl,Emily_Honors_Thesis_Part_2,1,150,2020-06-10T12:04:41-07:00,5.314071893692,1,versionA_stim.csv,READ_JOLVersionA.csv,"READ Version A",OLD,FIRE,BLAZE,ON,B,45,11,Test,User,-,,Recall,Recall1,2576,,0,-1,-1,0,0,,,1
w927437_AH,immd1rtkjl,Emily_Honors_Thesis_Part_2,1,151,2020-06-10T12:04:44-07:00,3.8773100376129,1,versionA_stim.csv,READ_JOLVersionA.csv,"READ Version A",OLD,TRIAL,JURY,ON,S,50,58,Test,User,-,,Recall,Recall1,1885,jury,100,977,1361,1,1,,,1
w927437_AH,immd1rtkjl,Emily_Honors_Thesis_Part_2,1,152,2020-06-10T12:04:48-07:00,3.7221250534058,1,versionA_stim.csv,READ_JOLVersionA.csv,"READ Version A",OLD,PUSHER,CLUTTER,ON,U,66,16,Test,User,-,,Recall,Recall1,1135,,0,-1,-1,0,0,,,1
w927437_AH,immd1rtkjl,Emily_Honors_Thesis_Part_2,1,153,2020-06-10T12:04:52-07:00,4.1153090000153,1,versionA_stim.csv,READ_JOLVersionA.csv,"READ Version A",OLD,STRONG,ACCIDENT,ON,U,80,60,Test,User,-,,Recall,Recall1,1775,weak,16.666666666667,1171,1563,0,0,,,1
w927437_AH,immd1rtkjl,Emily_Honors_Thesis_Part_2,1,154,2020-06-10T12:04:55-07:00,3.0873899459839,1,versionA_stim.csv,READ_JOLVersionA.csv,"READ Version A",OLD,WAY,OUT,ON,F,16,64,Test,User,-,,Recall,Recall1,1037,,0,-1,-1,0,0,,,1
w927437_AH,immd1rtkjl,Emily_Honors_Thesis_Part_2,1,155,2020-06-10T12:05:01-07:00,5.5977630615234,1,versionA_stim.csv,READ_JOLVersionA.csv,"READ Version A",OLD,GREAT,FANTASTIC,ON,B,35,34,Test,User,-,,Recall,Recall1,3527,fantastic,100,2019,3027,1,1,,,1
w927437_AH,immd1rtkjl,Emily_Honors_Thesis_Part_2,1,156,2020-06-10T12:05:05-07:00,3.799665927887,1,versionA_stim.csv,READ_JOLVersionA.csv,"READ Version A",OLD,PLANE,PILOT,ON,B,44,86,Test,User,-,,Recall,Recall1,1481,,0,-1,-1,0,0,,,1
w927437_AH,immd1rtkjl,Emily_Honors_Thesis_Part_2,1,157,2020-06-10T12:05:09-07:00,4.3597409725189,1,versionA_stim.csv,READ_JOLVersionA.csv,"READ Version A",OLD,DISCUSSION,TALK,ON,F,21,56,Test,User,-,,Recall,Recall1,1712,talk,100,1173,1468,1,1,,,1
w927437_AH,immd1rtkjl,Emily_Honors_Thesis_Part_2,1,158,2020-06-10T12:05:13-07:00,3.6036360263824,1,versionA_stim.csv,READ_JOLVersionA.csv,"READ Version A",OLD,SLEEP,DROWSY,ON,B,41,73,Test,User,-,,Recall,Recall1,1228,,0,-1,-1,0,0,,,1
w927437_AH,immd1rtkjl,Emily_Honors_Thesis_Part_2,1,159,2020-06-10T12:05:18-07:00,5.1112298965454,1,versionA_stim.csv,READ_JOLVersionA.csv,"READ Version A",OLD,TAKE,SEIZE,ON,B,29,28,Test,User,-,,Recall,Recall1,2454,,0,-1,-1,0,0,,,1
w927437_AH,immd1rtkjl,Emily_Honors_Thesis_Part_2,1,160,2020-06-10T12:05:23-07:00,4.7640101909637,1,versionA_stim.csv,READ_JOLVersionA.csv,"READ Version A",OLD,DIETARY,SACKING,ON,U,67,70,Test,User,-,,Recall,Recall1,2300,food,0,1448,2104,0,0,,,1
w927437_AH,immd1rtkjl,Emily_Honors_Thesis_Part_2,1,161,2020-06-10T12:05:26-07:00,3.8438668251038,1,versionA_stim.csv,READ_JOLVersionA.csv,"READ Version A",OLD,DUE,ASSIGNMENT,ON,S,46,25,Test,User,-,,Recall,Recall1,1073,,0,-1,-1,0,0,,,1
w927437_AH,immd1rtkjl,Emily_Honors_Thesis_Part_2,1,162,2020-06-10T12:05:30-07:00,3.9926400184631,1,versionA_stim.csv,READ_JOLVersionA.csv,"READ Version A",OLD,SHOE,FOOT,ON,S,60,42,Test,User,-,,Recall,Recall1,1478,foot,100,1066,1362,1,1,,,1
w927437_AH,immd1rtkjl,Emily_Honors_Thesis_Part_2,1,163,2020-06-10T12:05:36-07:00,5.3209309577942,1,versionA_stim.csv,READ_JOLVersionA.csv,"READ Version A",OLD,HONEY,BEE,ON,S,63,53,Test,User,-,,Recall,Recall1,2890,bee,100,2470,2710,1,1,,,1
w927437_AH,immd1rtkjl,Emily_Honors_Thesis_Part_2,1,164,2020-06-10T12:05:42-07:00,5.8433470726013,1,versionA_stim.csv,READ_JOLVersionA.csv,"READ Version A",OLD,VALLEY,ADD,ON,U,82,36,Test,User,-,,Recall,Recall1,3025,mountain,18.181818181818,1981,2829,0,0,,,1
w927437_AH,immd1rtkjl,Emily_Honors_Thesis_Part_2,1,165,2020-06-10T12:05:45-07:00,3.2830429077148,1,versionA_stim.csv,READ_JOLVersionA.csv,"READ Version A",OLD,CREDIT,CARD,ON,F,23,67,Test,User,-,,Recall,Recall1,1372,card,100,809,1216,1,1,,,1
w927437_AH,immd1rtkjl,Emily_Honors_Thesis_Part_2,1,166,2020-06-10T12:05:49-07:00,4.355565071106,1,versionA_stim.csv,READ_JOLVersionA.csv,"READ Version A",OLD,NUMBER,AMOUNT,ON,S,47,20,Test,User,-,,Recall,Recall1,1842,,0,-1,-1,0,0,,,1
w927437_AH,immd1rtkjl,Emily_Honors_Thesis_Part_2,1,167,2020-06-10T12:06:50-07:00,60.807600975037,1,versionA_stim.csv,READ_JOLVersionA.csv,"READ Version A",OLD,TUNA,FISH,ON,F,25,74,Test,User,-,,Recall,Recall1,58126,fish,100,53707,57522,1,1,,,0.821
w927437_AH,immd1rtkjl,Emily_Honors_Thesis_Part_2,1,168,2020-06-10T12:06:58-07:00,7.9632749557495,1,versionA_stim.csv,READ_JOLVersionA.csv,"READ Version A",OLD,CHISEL,HAMMER,ON,F,9,50,Test,User,-,,Recall,Recall1,4935,hammer,100,4220,4787,1,1,,,1
w927437_AH,immd1rtkjl,Emily_Honors_Thesis_Part_2,1,169,2020-06-10T12:07:02-07:00,3.4677932262421,1,versionA_stim.csv,READ_JOLVersionA.csv,"READ Version A",OLD,BATHROOM,TOILET,ON,S,58,23,Test,User,-,,Recall,Recall1,1794,,0,-1,-1,0,0,,,1
w927437_AH,immd1rtkjl,Emily_Honors_Thesis_Part_2,1,170,2020-06-10T12:07:08-07:00,6.119833946228,1,versionA_stim.csv,READ_JOLVersionA.csv,"READ Version A",OLD,BABY,CHILD,ON,S,64,15,Test,User,-,,Recall,Recall1,3908,,0,-1,-1,0,0,,,1
w927437_AH,immd1rtkjl,Emily_Honors_Thesis_Part_2,1,171,2020-06-10T12:07:11-07:00,3.8065688610077,1,versionA_stim.csv,READ_JOLVersionA.csv,"READ Version A",OLD,MACHINE,POSITION,ON,U,76,84,Test,User,-,,Recall,Recall1,1571,,0,-1,-1,0,0,,,1
w927437_AH,immd1rtkjl,Emily_Honors_Thesis_Part_2,1,172,2020-06-10T12:07:17-07:00,5.5103311538696,1,versionA_stim.csv,READ_JOLVersionA.csv,"READ Version A",OLD,GRILL,BAR,ON,S,52,68,Test,User,-,,Recall,Recall1,3221,bar,100,2562,2753,1,1,,,1
w927437_AH,immd1rtkjl,Emily_Honors_Thesis_Part_2,1,173,2020-06-10T12:07:25-07:00,8.3253898620605,1,versionA_stim.csv,READ_JOLVersionA.csv,"READ Version A",OLD,HUNGER,FAMINE,ON,B,40,61,Test,User,-,,Recall,Recall1,5962,famine,100,5022,5669,1,1,,,1
w927437_AH,immd1rtkjl,Emily_Honors_Thesis_Part_2,1,174,2020-06-10T12:07:34-07:00,8.525621175766,1,versionA_stim.csv,READ_JOLVersionA.csv,"READ Version A",OLD,DISCOVER,FLOOR,ON,U,71,48,Test,User,-,,Recall,Recall1,5308,find,22.222222222222,4873,5152,0,0,,,1
w927437_AH,immd1rtkjl,Emily_Honors_Thesis_Part_2,1,175,2020-06-10T12:07:40-07:00,5.8732788562775,1,versionA_stim.csv,READ_JOLVersionA.csv,"READ Version A",OLD,LETTUCE,SALAD,ON,S,59,19,Test,User,-,,Recall,Recall1,3199,salad,100,1154,2834,1,1,,,1
w927437_AH,immd1rtkjl,Emily_Honors_Thesis_Part_2,1,176,2020-06-10T12:07:45-07:00,4.8563249111176,1,versionA_stim.csv,READ_JOLVersionA.csv,"READ Version A",OLD,HORNET,STING,ON,F,11,82,Test,User,-,,Recall,Recall1,2444,sting,100,1465,2241,1,1,,,1
w927437_AH,immd1rtkjl,Emily_Honors_Thesis_Part_2,1,177,2020-06-10T12:07:50-07:00,5.1074640750885,1,versionA_stim.csv,READ_JOLVersionA.csv,"READ Version A",OLD,SENTENCE,WORD,ON,B,31,12,Test,User,-,,Recall,Recall1,2412,word,100,1337,2257,1,1,,,1
w927437_AH,immd1rtkjl,Emily_Honors_Thesis_Part_2,1,178,2020-06-10T12:07:55-07:00,5.4393351078033,1,versionA_stim.csv,READ_JOLVersionA.csv,"READ Version A",OLD,HEIGHT,GROWTH,ON,B,30,38,Test,User,-,,Recall,Recall1,3244,tall,20,2697,3016,0,0,,,1
w927437_AH,immd1rtkjl,Emily_Honors_Thesis_Part_2,1,179,2020-06-10T12:08:01-07:00,5.6836318969727,1,versionA_stim.csv,READ_JOLVersionA.csv,"READ Version A",OLD,ROOT,PLANT,ON,F,13,72,Test,User,-,,Recall,Recall1,3215,tree,22.222222222222,1164,2812,0,0,,,1
w927437_AH,immd1rtkjl,Emily_Honors_Thesis_Part_2,1,180,2020-06-10T12:08:27-07:00,26.275712013245,1,versionA_stim.csv,READ_JOLVersionA.csv,"READ Version A",OLD,KIDNEY,LIVER,ON,S,53,14,Test,User,-,,Recall,Recall1,23662,liver,100,1534,2013,1,1,,,1
w927437_AH,immd1rtkjl,Emily_Honors_Thesis_Part_2,1,181,2020-06-10T12:08:33-07:00,6.0785000324249,1,versionA_stim.csv,READ_JOLVersionA.csv,"READ Version A",OLD,CIRCLE,ROUND,ON,S,65,54,Test,User,-,,Recall,Recall1,4261,round,100,3154,3553,1,1,,,1
w927437_AH,immd1rtkjl,Emily_Honors_Thesis_Part_2,1,182,2020-06-10T12:08:46-07:00,13.290085077286,1,versionA_stim.csv,READ_JOLVersionA.csv,"READ Version A",OLD,DELINQUENT,BAD,ON,F,6,30,Test,User,-,,Recall,Recall1,11129,bad,100,4392,4585,1,1,,,1
w927437_AH,immd1rtkjl,Emily_Honors_Thesis_Part_2,1,183,2020-06-10T12:08:57-07:00,10.354031801224,1,versionA_stim.csv,READ_JOLVersionA.csv,"READ Version A",OLD,POP,SODA,ON,S,56,52,Test,User,-,,Recall,Recall1,8156,soda,100,7664,8008,1,1,,,1
w927437_AH,immd1rtkjl,Emily_Honors_Thesis_Part_2,1,184,2020-06-10T12:10:18-07:00,81.714316129684,1,versionA_stim.csv,READ_JOLVersionA.csv,"READ Version A",OLD,EDITOR,NEWS,ON,F,10,8,Test,User,-,,Recall,Recall1,79547,news,100,78613,79061,1,1,,,0.538
w927437_AH,immd1rtkjl,Emily_Honors_Thesis_Part_2,1,185,2020-06-10T12:10:24-07:00,5.3621928691864,1,versionA_stim.csv,READ_JOLVersionA.csv,"READ Version A",OLD,PAW,DOG,ON,F,15,57,Test,User,-,,Recall,Recall1,2815,dog,100,1276,1571,1,1,,,1
w927437_AH,immd1rtkjl,Emily_Honors_Thesis_Part_2,1,186,2020-06-10T12:10:28-07:00,3.9634962081909,1,versionA_stim.csv,READ_JOLVersionA.csv,"READ Version A",OLD,DEATH,BUSINESS,ON,U,72,83,Test,User,-,,Recall,Recall1,1853,,0,-1,-1,0,0,,,1
w927437_AH,immd1rtkjl,Emily_Honors_Thesis_Part_2,1,187,2020-06-10T12:10:33-07:00,5.4374139308929,1,versionA_stim.csv,READ_JOLVersionA.csv,"READ Version A",OLD,ART,LION,ON,U,79,7,Test,User,-,,Recall,Recall1,3059,,0,1863,1863,0,0,,,1
w927437_AH,immd1rtkjl,Emily_Honors_Thesis_Part_2,1,188,2020-06-10T12:10:37-07:00,3.9977309703827,1,versionA_stim.csv,READ_JOLVersionA.csv,"READ Version A",OLD,HERD,COW,ON,F,22,76,Test,User,-,,Recall,Recall1,2023,cow,100,1139,1346,1,1,,,1
w927437_AH,immd1rtkjl,Emily_Honors_Thesis_Part_2,1,189,2020-06-10T12:10:42-07:00,4.8068909645081,1,versionA_stim.csv,READ_JOLVersionA.csv,"READ Version A",OLD,PARK,HUNGRY,ON,U,68,26,Test,User,-,,Recall,Recall1,2388,swing,36.363636363636,1712,2224,0,0,,,1
w927437_AH,immd1rtkjl,Emily_Honors_Thesis_Part_2,1,190,2020-06-10T12:10:55-07:00,13.393487930298,1,versionA_stim.csv,READ_JOLVersionA.csv,"READ Version A",OLD,,,,,,0,Instruct,-,10,"You will now be presented with a new set of word pairs. Please study each pair. Remember that your memory will be tested! When finished, press Enter to move to the next pair.",Initial_Instruct,Instruct4,10937,,,-1,-1,,,,,1
w927437_AH,immd1rtkjl,Emily_Honors_Thesis_Part_2,1,191,2020-06-10T12:11:08-07:00,12.603777170181,1,versionA_stim.csv,READ_JOLVersionA.csv,"READ Version A",OLD,,,,,,0,Instruct,,10,"You will again be asked to rate your ability to remember these items using a 0 to 100 scale. Remember to use the full range of the scale!",,Instruct10,10535,,,-1,-1,,,,,1
w927437_AH,immd1rtkjl,Emily_Honors_Thesis_Part_2,1,192,2020-06-10T12:11:12-07:00,4.4019558429718,1,versionA_stim.csv,READ_JOLVersionA.csv,"READ Version A",OLD,,,,,,0,Instruct,User,-,"Press Enter when you are readty to begin",,Instruct11,2685,,,-1,-1,,,,,1
w927437_AH,immd1rtkjl,Emily_Honors_Thesis_Part_2,1,193,2020-06-10T12:11:19-07:00,6.1154260635376,1,versionA_stim.csv,READ_JOLVersionA.csv,"READ Version A",OLD,NOODLE,STRING,Buffer3,Buffer,92,94,JOL,User,-,"How likely are you to correctly recall the second item in the pair?|Type your response on a scale from 0-100 and then press Enter.",Study/JOL,BUFFER3,3875,,,3387,3496,,,,10,1
w927437_AH,immd1rtkjl,Emily_Honors_Thesis_Part_2,1,194,2020-06-10T12:11:24-07:00,5.2762470245361,1,versionA_stim.csv,READ_JOLVersionA.csv,"READ Version A",OLD,CAMP,ADVENTURE,Buffer3,Buffer,95,96,JOL,User,-,"How likely are you to correctly recall the second item in the pair?|Type your response on a scale from 0-100 and then press Enter.",Study/JOL,BUFFER3,3115,,,2473,2535,,,,20,1
w927437_AH,immd1rtkjl,Emily_Honors_Thesis_Part_2,1,195,2020-06-10T12:11:30-07:00,5.9209520816803,1,versionA_stim.csv,READ_JOLVersionA.csv,"READ Version A",OLD,SHRIMP,FISH,Buffer3,Buffer,93,95,JOL,User,-,"How likely are you to correctly recall the second item in the pair?|Type your response on a scale from 0-100 and then press Enter.",Study/JOL,BUFFER3,3595,,,2974,3389,,,,15,1
w927437_AH,immd1rtkjl,Emily_Honors_Thesis_Part_2,1,196,2020-06-10T12:11:37-07:00,6.9617278575897,1,versionA_stim.csv,READ_JOLVersionA.csv,"READ Version A",OLD,OCTOBER,SPOOKY,Buffer3,Buffer,180,93,JOL,User,-,"How likely are you to correctly recall the second item in the pair?|Type your response on a scale from 0-100 and then press Enter.",Study/JOL,BUFFER3,4598,,,2043,4298,,,,90,1
w927437_AH,immd1rtkjl,Emily_Honors_Thesis_Part_2,1,197,2020-06-10T12:11:42-07:00,5.6789960861206,1,versionA_stim.csv,READ_JOLVersionA.csv,"READ Version A",OLD,SPRING,MARCH,Buffer3,Buffer,179,92,JOL,User,-,"How likely are you to correctly recall the second item in the pair?|Type your response on a scale from 0-100 and then press Enter.",Study/JOL,BUFFER3,3392,,,2910,3149,,,,70,1
w927437_AH,immd1rtkjl,Emily_Honors_Thesis_Part_2,1,198,2020-06-10T12:11:48-07:00,5.9606080055237,1,versionA_stim.csv,READ_JOLVersionA.csv,"READ Version A",OLD,STAR,ACTRESS,ON2,B,120,116,JOL,User,-,"How likely are you to correctly recall the second item in the pair?|Type your response on a scale from 0-100 and then press Enter.",Study/JOL,"Study Phase2",3553,,,3094,3253,,,,60,1
w927437_AH,immd1rtkjl,Emily_Honors_Thesis_Part_2,1,199,2020-06-10T12:11:54-07:00,5.9212460517883,1,versionA_stim.csv,READ_JOLVersionA.csv,"READ Version A",OLD,BAD,VILLAIN,ON2,B,118,122,JOL,User,-,"How likely are you to correctly recall the second item in the pair?|Type your response on a scale from 0-100 and then press Enter.",Study/JOL,"Study Phase2",3180,,,2689,2952,,,,100,1
w927437_AH,immd1rtkjl,Emily_Honors_Thesis_Part_2,1,200,2020-06-10T12:11:59-07:00,4.5628650188446,1,versionA_stim.csv,READ_JOLVersionA.csv,"READ Version A",OLD,RIGHTS,EQUAL,ON2,S,137,142,JOL,User,-,"How likely are you to correctly recall the second item in the pair?|Type your response on a scale from 0-100 and then press Enter.",Study/JOL,"Study Phase2",2271,,,1612,1859,,,,100,1
w927437_AH,immd1rtkjl,Emily_Honors_Thesis_Part_2,1,201,2020-06-10T12:12:08-07:00,8.8364429473877,1,versionA_stim.csv,READ_JOLVersionA.csv,"READ Version A",OLD,SHEARS,SCISSORS,ON2,F,112,166,JOL,User,-,"How likely are you to correctly recall the second item in the pair?|Type your response on a scale from 0-100 and then press Enter.",Study/JOL,"Study Phase2",6773,,,5922,6392,,,,70,1
w927437_AH,immd1rtkjl,Emily_Honors_Thesis_Part_2,1,202,2020-06-10T12:12:21-07:00,13.639489889145,1,versionA_stim.csv,READ_JOLVersionA.csv,"READ Version A",OLD,CHOP,CUT,ON2,F,107,98,JOL,User,-,"How likely are you to correctly recall the second item in the pair?|Type your response on a scale from 0-100 and then press Enter.",Study/JOL,"Study Phase2",11329,,,10873,11016,,,,50,1
w927437_AH,immd1rtkjl,Emily_Honors_Thesis_Part_2,1,203,2020-06-10T12:12:26-07:00,4.4436919689178,1,versionA_stim.csv,READ_JOLVersionA.csv,"READ Version A",OLD,POP,BALLOON,ON2,B,123,132,JOL,User,-,"How likely are you to correctly recall the second item in the pair?|Type your response on a scale from 0-100 and then press Enter.",Study/JOL,"Study Phase2",2114,,,1655,1798,,,,90,1
w927437_AH,immd1rtkjl,Emily_Honors_Thesis_Part_2,1,204,2020-06-10T12:12:38-07:00,12.721545219421,1,versionA_stim.csv,READ_JOLVersionA.csv,"READ Version A",OLD,CAKE,CLOTHES,ON2,U,166,134,JOL,User,-,"How likely are you to correctly recall the second item in the pair?|Type your response on a scale from 0-100 and then press Enter.",Study/JOL,"Study Phase2",10951,,,10661,10661,,,,0,1
w927437_AH,immd1rtkjl,Emily_Honors_Thesis_Part_2,1,205,2020-06-10T12:12:55-07:00,16.592892885208,1,versionA_stim.csv,READ_JOLVersionA.csv,"READ Version A",OLD,CHILL,COLD,ON2,F,114,147,JOL,User,-,"How likely are you to correctly recall the second item in the pair?|Type your response on a scale from 0-100 and then press Enter.",Study/JOL,"Study Phase2",13679,,,13140,13363,,,,80,1
w927437_AH,immd1rtkjl,Emily_Honors_Thesis_Part_2,1,206,2020-06-10T12:13:28-07:00,33.28630900383,1,versionA_stim.csv,READ_JOLVersionA.csv,"READ Version A",OLD,TANTRUM,TEMPER,ON2,S,154,115,JOL,User,-,"How likely are you to correctly recall the second item in the pair?|Type your response on a scale from 0-100 and then press Enter.",Study/JOL,"Study Phase2",31262,,,28939,30570,,,,68,1
w927437_AH,immd1rtkjl,Emily_Honors_Thesis_Part_2,1,207,2020-06-10T12:13:34-07:00,5.8416619300842,1,versionA_stim.csv,READ_JOLVersionA.csv,"READ Version A",OLD,EVEN,REVENGE,ON2,B,122,112,JOL,User,-,"How likely are you to correctly recall the second item in the pair?|Type your response on a scale from 0-100 and then press Enter.",Study/JOL,"Study Phase2",3890,,,3070,3478,,,,50,1
w927437_AH,immd1rtkjl,Emily_Honors_Thesis_Part_2,1,208,2020-06-10T12:13:51-07:00,16.51428604126,1,versionA_stim.csv,READ_JOLVersionA.csv,"READ Version A",OLD,VEHICLE,CHARM,ON2,U,160,146,JOL,User,-,"How likely are you to correctly recall the second item in the pair?|Type your response on a scale from 0-100 and then press Enter.",Study/JOL,"Study Phase2",14385,,,13998,13998,,,,0,1
w927437_AH,immd1rtkjl,Emily_Honors_Thesis_Part_2,1,209,2020-06-10T12:13:59-07:00,8.7238519191742,1,versionA_stim.csv,READ_JOLVersionA.csv,"READ Version A",OLD,PLANE,AIRCRAFT,ON2,B,129,161,JOL,User,-,"How likely are you to correctly recall the second item in the pair?|Type your response on a scale from 0-100 and then press Enter.",Study/JOL,"Study Phase2",6617,,,5821,6084,,,,70,1
w927437_AH,immd1rtkjl,Emily_Honors_Thesis_Part_2,1,210,2020-06-10T12:15:34-07:00,94.95306801796,1,versionA_stim.csv,READ_JOLVersionA.csv,"READ Version A",OLD,LISTEN,FICTION,ON2,U,164,174,JOL,User,-,"How likely are you to correctly recall the second item in the pair?|Type your response on a scale from 0-100 and then press Enter.",Study/JOL,"Study Phase2",92130,,,91885,91885,,,,0,0.764
w927437_AH,immd1rtkjl,Emily_Honors_Thesis_Part_2,1,211,2020-06-10T12:15:40-07:00,5.6413741111755,1,versionA_stim.csv,READ_JOLVersionA.csv,"READ Version A",OLD,BEST,FAVORITE,ON2,B,125,163,JOL,User,-,"How likely are you to correctly recall the second item in the pair?|Type your response on a scale from 0-100 and then press Enter.",Study/JOL,"Study Phase2",3350,,,2694,3037,,,,30,1
w927437_AH,immd1rtkjl,Emily_Honors_Thesis_Part_2,1,212,2020-06-10T12:15:50-07:00,10.285603046417,1,versionA_stim.csv,READ_JOLVersionA.csv,"READ Version A",OLD,WRIST,BRACELET,ON2,S,140,106,JOL,User,-,"How likely are you to correctly recall the second item in the pair?|Type your response on a scale from 0-100 and then press Enter.",Study/JOL,"Study Phase2",8013,,,7681,7744,,,,39,1
w927437_AH,immd1rtkjl,Emily_Honors_Thesis_Part_2,1,213,2020-06-10T12:15:57-07:00,6.3822209835052,1,versionA_stim.csv,READ_JOLVersionA.csv,"READ Version A",OLD,DOCUMENT,PAPER,ON2,F,109,124,JOL,User,-,"How likely are you to correctly recall the second item in the pair?|Type your response on a scale from 0-100 and then press Enter.",Study/JOL,"Study Phase2",4083,,,2008,3767,,,,80,1
w927437_AH,immd1rtkjl,Emily_Honors_Thesis_Part_2,1,214,2020-06-10T12:16:04-07:00,7.5758118629456,1,versionA_stim.csv,READ_JOLVersionA.csv,"READ Version A",OLD,FUZZY,BANG,ON2,U,168,159,JOL,User,-,"How likely are you to correctly recall the second item in the pair?|Type your response on a scale from 0-100 and then press Enter.",Study/JOL,"Study Phase2",5609,,,5422,5422,,,,0,1
w927437_AH,immd1rtkjl,Emily_Honors_Thesis_Part_2,1,215,2020-06-10T12:16:09-07:00,4.7228960990906,1,versionA_stim.csv,READ_JOLVersionA.csv,"READ Version A",OLD,FISH,SARDINE,ON2,B,130,129,JOL,User,-,"How likely are you to correctly recall the second item in the pair?|Type your response on a scale from 0-100 and then press Enter.",Study/JOL,"Study Phase2",2582,,,1914,1978,,,,29,1
w927437_AH,immd1rtkjl,Emily_Honors_Thesis_Part_2,1,216,2020-06-10T12:17:06-07:00,57.081330060959,1,versionA_stim.csv,READ_JOLVersionA.csv,"READ Version A",OLD,SAFETY,SEATBELT,ON2,S,147,133,JOL,User,-,"How likely are you to correctly recall the second item in the pair?|Type your response on a scale from 0-100 and then press Enter.",Study/JOL,"Study Phase2",54470,,,54050,54169,,,,60,1
w927437_AH,immd1rtkjl,Emily_Honors_Thesis_Part_2,1,217,2020-06-10T12:17:28-07:00,22.034747838974,1,versionA_stim.csv,READ_JOLVersionA.csv,"READ Version A",OLD,DRIVER,CAR,ON2,F,106,97,JOL,User,-,"How likely are you to correctly recall the second item in the pair?|Type your response on a scale from 0-100 and then press Enter.",Study/JOL,"Study Phase2",19899,,,19400,19614,,,,70,1
w927437_AH,immd1rtkjl,Emily_Honors_Thesis_Part_2,1,218,2020-06-10T12:18:29-07:00,61.316889047623,1,versionA_stim.csv,READ_JOLVersionA.csv,"READ Version A",OLD,LOUD,NOISE,ON2,S,152,175,JOL,User,-,"How likely are you to correctly recall the second item in the pair?|Type your response on a scale from 0-100 and then press Enter.",Study/JOL,"Study Phase2",58483,,,57768,57938,,,,70,0.656
w927437_AH,immd1rtkjl,Emily_Honors_Thesis_Part_2,1,219,2020-06-10T12:18:36-07:00,6.7254190444946,1,versionA_stim.csv,READ_JOLVersionA.csv,"READ Version A",OLD,DRY,WET,ON2,S,146,125,JOL,User,-,"How likely are you to correctly recall the second item in the pair?|Type your response on a scale from 0-100 and then press Enter.",Study/JOL,"Study Phase2",4188,,,3728,3944,,,,100,1
w927437_AH,immd1rtkjl,Emily_Honors_Thesis_Part_2,1,220,2020-06-10T12:18:41-07:00,4.9940540790558,1,versionA_stim.csv,READ_JOLVersionA.csv,"READ Version A",OLD,STRETCH,CLOTH,ON2,U,157,140,JOL,User,-,"How likely are you to correctly recall the second item in the pair?|Type your response on a scale from 0-100 and then press Enter.",Study/JOL,"Study Phase2",2338,,,2118,2119,,,,0,1
w927437_AH,immd1rtkjl,Emily_Honors_Thesis_Part_2,1,221,2020-06-10T12:18:48-07:00,7.1999089717865,1,versionA_stim.csv,READ_JOLVersionA.csv,"READ Version A",OLD,MONEY,BANKER,ON2,B,132,107,JOL,User,-,"How likely are you to correctly recall the second item in the pair?|Type your response on a scale from 0-100 and then press Enter.",Study/JOL,"Study Phase2",4411,,,1920,4199,,,,60,1
w927437_AH,immd1rtkjl,Emily_Honors_Thesis_Part_2,1,222,2020-06-10T12:19:07-07:00,18.279142856598,1,versionA_stim.csv,READ_JOLVersionA.csv,"READ Version A",OLD,THREAD,THIMBLE,ON2,B,121,143,JOL,User,-,"How likely are you to correctly recall the second item in the pair?|Type your response on a scale from 0-100 and then press Enter.",Study/JOL,"Study Phase2",15651,,,15459,15459,,,,0,1
w927437_AH,immd1rtkjl,Emily_Honors_Thesis_Part_2,1,223,2020-06-10T12:19:12-07:00,5.8390040397644,1,versionA_stim.csv,READ_JOLVersionA.csv,"READ Version A",OLD,MAIN,SCAR,ON2,U,175,168,JOL,User,-,"How likely are you to correctly recall the second item in the pair?|Type your response on a scale from 0-100 and then press Enter.",Study/JOL,"Study Phase2",3359,,,3075,3076,,,,0,1
w927437_AH,immd1rtkjl,Emily_Honors_Thesis_Part_2,1,224,2020-06-10T12:19:18-07:00,5.085629940033,1,versionA_stim.csv,READ_JOLVersionA.csv,"READ Version A",OLD,BOTH,OUNCE,ON2,U,172,130,JOL,User,-,"How likely are you to correctly recall the second item in the pair?|Type your response on a scale from 0-100 and then press Enter.",Study/JOL,"Study Phase2",2628,,,2184,2184,,,,1,1
w927437_AH,immd1rtkjl,Emily_Honors_Thesis_Part_2,1,225,2020-06-10T12:19:22-07:00,4.3217041492462,1,versionA_stim.csv,READ_JOLVersionA.csv,"READ Version A",OLD,MAZE,ELECTION,ON2,U,159,164,JOL,User,-,"How likely are you to correctly recall the second item in the pair?|Type your response on a scale from 0-100 and then press Enter.",Study/JOL,"Study Phase2",2092,,,1849,1849,,,,0,1
w927437_AH,immd1rtkjl,Emily_Honors_Thesis_Part_2,1,226,2020-06-10T12:19:27-07:00,5.5618319511414,1,versionA_stim.csv,READ_JOLVersionA.csv,"READ Version A",OLD,TEMPERATURE,MORNING,ON2,U,173,145,JOL,User,-,"How likely are you to correctly recall the second item in the pair?|Type your response on a scale from 0-100 and then press Enter.",Study/JOL,"Study Phase2",2625,,,1854,1854,,,,2,1
w927437_AH,immd1rtkjl,Emily_Honors_Thesis_Part_2,1,227,2020-06-10T12:19:32-07:00,4.6763730049133,1,versionA_stim.csv,READ_JOLVersionA.csv,"READ Version A",OLD,SCALP,HEAD,ON2,F,105,109,JOL,User,-,"How likely are you to correctly recall the second item in the pair?|Type your response on a scale from 0-100 and then press Enter.",Study/JOL,"Study Phase2",2871,,,2548,2612,,,,60,1
w927437_AH,immd1rtkjl,Emily_Honors_Thesis_Part_2,1,228,2020-06-10T12:19:37-07:00,4.8416550159454,1,versionA_stim.csv,READ_JOLVersionA.csv,"READ Version A",OLD,LOAN,SIGN,ON2,U,171,176,JOL,User,-,"How likely are you to correctly recall the second item in the pair?|Type your response on a scale from 0-100 and then press Enter.",Study/JOL,"Study Phase2",2633,,,2366,2429,,,,40,1
w927437_AH,immd1rtkjl,Emily_Honors_Thesis_Part_2,1,229,2020-06-10T12:19:41-07:00,3.7647130489349,1,versionA_stim.csv,READ_JOLVersionA.csv,"READ Version A",OLD,MASON,JAR,ON2,S,138,110,JOL,User,-,"How likely are you to correctly recall the second item in the pair?|Type your response on a scale from 0-100 and then press Enter.",Study/JOL,"Study Phase2",1767,,,1372,1579,,,,100,1
w927437_AH,immd1rtkjl,Emily_Honors_Thesis_Part_2,1,230,2020-06-10T12:19:45-07:00,4.1592378616333,1,versionA_stim.csv,READ_JOLVersionA.csv,"READ Version A",OLD,GLASS,BREAKABLE,ON2,B,127,121,JOL,User,-,"How likely are you to correctly recall the second item in the pair?|Type your response on a scale from 0-100 and then press Enter.",Study/JOL,"Study Phase2",1897,,,1589,1700,,,,90,1
w927437_AH,immd1rtkjl,Emily_Honors_Thesis_Part_2,1,231,2020-06-10T12:19:49-07:00,3.7162871360779,1,versionA_stim.csv,READ_JOLVersionA.csv,"READ Version A",OLD,GIVE,STEAK,ON2,U,158,131,JOL,User,-,"How likely are you to correctly recall the second item in the pair?|Type your response on a scale from 0-100 and then press Enter.",Study/JOL,"Study Phase2",1844,,,1617,1617,,,,0,1
w927437_AH,immd1rtkjl,Emily_Honors_Thesis_Part_2,1,232,2020-06-10T12:19:53-07:00,4.4415249824524,1,versionA_stim.csv,READ_JOLVersionA.csv,"READ Version A",OLD,FLEA,TICK,ON2,S,151,105,JOL,User,-,"How likely are you to correctly recall the second item in the pair?|Type your response on a scale from 0-100 and then press Enter.",Study/JOL,"Study Phase2",2311,,,2012,2067,,,,30,1
w927437_AH,immd1rtkjl,Emily_Honors_Thesis_Part_2,1,233,2020-06-10T12:19:58-07:00,4.6746599674225,1,versionA_stim.csv,READ_JOLVersionA.csv,"READ Version A",OLD,SHOELACE,TIE,ON2,F,99,144,JOL,User,-,"How likely are you to correctly recall the second item in the pair?|Type your response on a scale from 0-100 and then press Enter.",Study/JOL,"Study Phase2",2600,,,2340,2403,,,,70,1
w927437_AH,immd1rtkjl,Emily_Honors_Thesis_Part_2,1,234,2020-06-10T12:20:02-07:00,3.9649569988251,1,versionA_stim.csv,READ_JOLVersionA.csv,"READ Version A",OLD,WATER,DRINK,ON2,S,143,138,JOL,User,-,"How likely are you to correctly recall the second item in the pair?|Type your response on a scale from 0-100 and then press Enter.",Study/JOL,"Study Phase2",1792,,,1405,1548,,,,90,1
w927437_AH,immd1rtkjl,Emily_Honors_Thesis_Part_2,1,235,2020-06-10T12:20:09-07:00,6.9188559055328,1,versionA_stim.csv,READ_JOLVersionA.csv,"READ Version A",OLD,JUSTICE,MAROON,ON2,U,156,160,JOL,User,-,"How likely are you to correctly recall the second item in the pair?|Type your response on a scale from 0-100 and then press Enter.",Study/JOL,"Study Phase2",4852,,,4689,4689,,,,0,1
w927437_AH,immd1rtkjl,Emily_Honors_Thesis_Part_2,1,236,2020-06-10T12:20:13-07:00,4.1199061870575,1,versionA_stim.csv,READ_JOLVersionA.csv,"READ Version A",OLD,DINE,EAT,ON2,F,111,154,JOL,User,-,"How likely are you to correctly recall the second item in the pair?|Type your response on a scale from 0-100 and then press Enter.",Study/JOL,"Study Phase2",2236,,,1832,1959,,,,20,1
w927437_AH,immd1rtkjl,Emily_Honors_Thesis_Part_2,1,237,2020-06-10T12:20:18-07:00,5.7157139778137,1,versionA_stim.csv,READ_JOLVersionA.csv,"READ Version A",OLD,AFFECTION,LOVE,ON2,F,115,114,JOL,User,-,"How likely are you to correctly recall the second item in the pair?|Type your response on a scale from 0-100 and then press Enter.",Study/JOL,"Study Phase2",3289,,,2853,3045,,,,80,1
w927437_AH,immd1rtkjl,Emily_Honors_Thesis_Part_2,1,238,2020-06-10T12:20:22-07:00,3.9202418327332,1,versionA_stim.csv,READ_JOLVersionA.csv,"READ Version A",OLD,LEASE,TOIL,ON2,U,170,155,JOL,User,-,"How likely are you to correctly recall the second item in the pair?|Type your response on a scale from 0-100 and then press Enter.",Study/JOL,"Study Phase2",1486,,,1330,1331,,,,0,1
w927437_AH,immd1rtkjl,Emily_Honors_Thesis_Part_2,1,239,2020-06-10T12:20:27-07:00,5.0069830417633,1,versionA_stim.csv,READ_JOLVersionA.csv,"READ Version A",OLD,FEUD,FIGHT,ON2,F,113,165,JOL,User,-,"How likely are you to correctly recall the second item in the pair?|Type your response on a scale from 0-100 and then press Enter.",Study/JOL,"Study Phase2",2084,,,1793,1856,,,,40,1
w927437_AH,immd1rtkjl,Emily_Honors_Thesis_Part_2,1,240,2020-06-10T12:20:33-07:00,5.4765870571136,1,versionA_stim.csv,READ_JOLVersionA.csv,"READ Version A",OLD,SLEEP,NAP,ON2,B,134,167,JOL,User,-,"How likely are you to correctly recall the second item in the pair?|Type your response on a scale from 0-100 and then press Enter.",Study/JOL,"Study Phase2",3181,,,2778,3001,,,,100,1
w927437_AH,immd1rtkjl,Emily_Honors_Thesis_Part_2,1,241,2020-06-10T12:20:37-07:00,3.8787059783936,1,versionA_stim.csv,READ_JOLVersionA.csv,"READ Version A",OLD,SUN,TAN,ON2,S,155,118,JOL,User,-,"How likely are you to correctly recall the second item in the pair?|Type your response on a scale from 0-100 and then press Enter.",Study/JOL,"Study Phase2",2106,,,1655,1918,,,,100,1
w927437_AH,immd1rtkjl,Emily_Honors_Thesis_Part_2,1,242,2020-06-10T12:20:43-07:00,6.2392520904541,1,versionA_stim.csv,READ_JOLVersionA.csv,"READ Version A",OLD,CRACKLE,ABLE,ON2,U,162,157,JOL,User,-,"How likely are you to correctly recall the second item in the pair?|Type your response on a scale from 0-100 and then press Enter.",Study/JOL,"Study Phase2",4228,,,3906,3993,,,,20,1
w927437_AH,immd1rtkjl,Emily_Honors_Thesis_Part_2,1,243,2020-06-10T12:20:48-07:00,4.6490190029144,1,versionA_stim.csv,READ_JOLVersionA.csv,"READ Version A",OLD,BASEBALL,LEAGUE,ON2,B,131,156,JOL,User,-,"How likely are you to correctly recall the second item in the pair?|Type your response on a scale from 0-100 and then press Enter.",Study/JOL,"Study Phase2",2634,,,2382,2421,,,,60,1
w927437_AH,immd1rtkjl,Emily_Honors_Thesis_Part_2,1,244,2020-06-10T12:21:46-07:00,58.079902887344,1,versionA_stim.csv,READ_JOLVersionA.csv,"READ Version A",OLD,FIGHT,BRAWL,ON2,B,135,101,JOL,User,-,"How likely are you to correctly recall the second item in the pair?|Type your response on a scale from 0-100 and then press Enter.",Study/JOL,"Study Phase2",55499,,,55215,55292,,,,70,0.478
w927437_AH,immd1rtkjl,Emily_Honors_Thesis_Part_2,1,245,2020-06-10T12:22:52-07:00,65.915781974792,1,versionA_stim.csv,READ_JOLVersionA.csv,"READ Version A",OLD,TRUTH,LIE,ON2,S,148,127,JOL,User,-,"How likely are you to correctly recall the second item in the pair?|Type your response on a scale from 0-100 and then press Enter.",Study/JOL,"Study Phase2",63832,,,63278,63556,,,,100,1
w927437_AH,immd1rtkjl,Emily_Honors_Thesis_Part_2,1,246,2020-06-10T12:24:21-07:00,89.679857969284,1,versionA_stim.csv,READ_JOLVersionA.csv,"READ Version A",OLD,PHONE,COMMUNICATION,ON2,S,149,158,JOL,User,-,"How likely are you to correctly recall the second item in the pair?|Type your response on a scale from 0-100 and then press Enter.",Study/JOL,"Study Phase2",87501,,,86595,87217,,,,79,0.5
w927437_AH,immd1rtkjl,Emily_Honors_Thesis_Part_2,1,247,2020-06-10T12:24:26-07:00,4.9569900035858,1,versionA_stim.csv,READ_JOLVersionA.csv,"READ Version A",OLD,CACTUS,PLANT,ON2,F,98,137,JOL,User,-,"How likely are you to correctly recall the second item in the pair?|Type your response on a scale from 0-100 and then press Enter.",Study/JOL,"Study Phase2",2637,,,1674,1849,,,,90,1
w927437_AH,immd1rtkjl,Emily_Honors_Thesis_Part_2,1,248,2020-06-10T12:24:31-07:00,4.5221500396729,1,versionA_stim.csv,READ_JOLVersionA.csv,"READ Version A",OLD,CANDLE,WAX,ON2,S,139,100,JOL,User,-,"How likely are you to correctly recall the second item in the pair?|Type your response on a scale from 0-100 and then press Enter.",Study/JOL,"Study Phase2",2480,,,1668,1916,,,,90,1
w927437_AH,immd1rtkjl,Emily_Honors_Thesis_Part_2,1,249,2020-06-10T12:24:45-07:00,14.397499084473,1,versionA_stim.csv,READ_JOLVersionA.csv,"READ Version A",OLD,MOAT,CLEAR,ON2,U,169,117,JOL,User,-,"How likely are you to correctly recall the second item in the pair?|Type your response on a scale from 0-100 and then press Enter.",Study/JOL,"Study Phase2",12147,,,11568,11569,,,,0,1
w927437_AH,immd1rtkjl,Emily_Honors_Thesis_Part_2,1,250,2020-06-10T12:24:51-07:00,5.4417729377747,1,versionA_stim.csv,READ_JOLVersionA.csv,"READ Version A",OLD,ROD,REEL,ON2,S,150,150,JOL,User,-,"How likely are you to correctly recall the second item in the pair?|Type your response on a scale from 0-100 and then press Enter.",Study/JOL,"Study Phase2",3046,,,2554,2554,,,,2,1
w927437_AH,immd1rtkjl,Emily_Honors_Thesis_Part_2,1,251,2020-06-10T12:24:56-07:00,5.5208029747009,1,versionA_stim.csv,READ_JOLVersionA.csv,"READ Version A",OLD,DEAD,COFFIN,ON2,B,128,152,JOL,User,-,"How likely are you to correctly recall the second item in the pair?|Type your response on a scale from 0-100 and then press Enter.",Study/JOL,"Study Phase2",3229,,,2642,2825,,,,79,1
w927437_AH,immd1rtkjl,Emily_Honors_Thesis_Part_2,1,252,2020-06-10T12:25:01-07:00,4.8751881122589,1,versionA_stim.csv,READ_JOLVersionA.csv,"READ Version A",OLD,EARTH,GROUND,ON2,S,144,103,JOL,User,-,"How likely are you to correctly recall the second item in the pair?|Type your response on a scale from 0-100 and then press Enter.",Study/JOL,"Study Phase2",2675,,,2120,2223,,,,90,1
w927437_AH,immd1rtkjl,Emily_Honors_Thesis_Part_2,1,253,2020-06-10T12:25:07-07:00,6.1617648601532,1,versionA_stim.csv,READ_JOLVersionA.csv,"READ Version A",OLD,RAZOR,SHAVE,ON2,S,136,173,JOL,User,-,"How likely are you to correctly recall the second item in the pair?|Type your response on a scale from 0-100 and then press Enter.",Study/JOL,"Study Phase2",4215,,,3643,3802,,,,99,1
w927437_AH,immd1rtkjl,Emily_Honors_Thesis_Part_2,1,254,2020-06-10T12:25:11-07:00,3.8833861351013,1,versionA_stim.csv,READ_JOLVersionA.csv,"READ Version A",OLD,MEAT,OBTAIN,ON2,U,161,169,JOL,User,-,"How likely are you to correctly recall the second item in the pair?|Type your response on a scale from 0-100 and then press Enter.",Study/JOL,"Study Phase2",1899,,,1607,1607,,,,0,1
w927437_AH,immd1rtkjl,Emily_Honors_Thesis_Part_2,1,255,2020-06-10T12:25:16-07:00,5.3604350090027,1,versionA_stim.csv,READ_JOLVersionA.csv,"READ Version A",OLD,SHELL,SHAKE,ON2,U,163,149,JOL,User,-,"How likely are you to correctly recall the second item in the pair?|Type your response on a scale from 0-100 and then press Enter.",Study/JOL,"Study Phase2",3296,,,2892,2892,,,,0,1
w927437_AH,immd1rtkjl,Emily_Honors_Thesis_Part_2,1,256,2020-06-10T12:25:22-07:00,5.5528140068054,1,versionA_stim.csv,READ_JOLVersionA.csv,"READ Version A",OLD,CHERRY,RED,ON2,F,104,172,JOL,User,-,"How likely are you to correctly recall the second item in the pair?|Type your response on a scale from 0-100 and then press Enter.",Study/JOL,"Study Phase2",3346,,,2599,2919,,,,60,1
w927437_AH,immd1rtkjl,Emily_Honors_Thesis_Part_2,1,257,2020-06-10T12:25:27-07:00,5.0443778038025,1,versionA_stim.csv,READ_JOLVersionA.csv,"READ Version A",OLD,ALONE,LONELY,ON2,S,145,113,JOL,User,-,"How likely are you to correctly recall the second item in the pair?|Type your response on a scale from 0-100 and then press Enter.",Study/JOL,"Study Phase2",2510,,,2051,2195,,,,99,1
w927437_AH,immd1rtkjl,Emily_Honors_Thesis_Part_2,1,258,2020-06-10T12:25:37-07:00,9.7189002037048,1,versionA_stim.csv,READ_JOLVersionA.csv,"READ Version A",OLD,DETECTIVE,MYSTERY,ON2,F,100,139,JOL,User,-,"How likely are you to correctly recall the second item in the pair?|Type your response on a scale from 0-100 and then press Enter.",Study/JOL,"Study Phase2",7568,,,5886,7084,,,,95,1
w927437_AH,immd1rtkjl,Emily_Honors_Thesis_Part_2,1,259,2020-06-10T12:25:45-07:00,8.2016048431396,1,versionA_stim.csv,READ_JOLVersionA.csv,"READ Version A",OLD,CAR,WINDSHIELD,ON2,B,117,148,JOL,User,-,"How likely are you to correctly recall the second item in the pair?|Type your response on a scale from 0-100 and then press Enter.",Study/JOL,"Study Phase2",5335,,,4092,4459,,,,70,1
w927437_AH,immd1rtkjl,Emily_Honors_Thesis_Part_2,1,260,2020-06-10T12:25:49-07:00,4.2836880683899,1,versionA_stim.csv,READ_JOLVersionA.csv,"READ Version A",OLD,EXTENSION,LONG,ON2,F,96,108,JOL,User,-,"How likely are you to correctly recall the second item in the pair?|Type your response on a scale from 0-100 and then press Enter.",Study/JOL,"Study Phase2",2326,,,1347,1546,,,,99,1
w927437_AH,immd1rtkjl,Emily_Honors_Thesis_Part_2,1,261,2020-06-10T12:25:55-07:00,6.2410130500793,1,versionA_stim.csv,READ_JOLVersionA.csv,"READ Version A",OLD,MULE,DONKEY,ON2,F,108,153,JOL,User,-,"How likely are you to correctly recall the second item in the pair?|Type your response on a scale from 0-100 and then press Enter.",Study/JOL,"Study Phase2",3655,,,1395,3307,,,,10,1
w927437_AH,immd1rtkjl,Emily_Honors_Thesis_Part_2,1,262,2020-06-10T12:26:03-07:00,7.5348558425903,1,versionA_stim.csv,READ_JOLVersionA.csv,"READ Version A",OLD,ELEMENT,CARBON,ON2,S,141,151,JOL,User,-,"How likely are you to correctly recall the second item in the pair?|Type your response on a scale from 0-100 and then press Enter.",Study/JOL,"Study Phase2",5347,,,4783,5014,,,,70,1
w927437_AH,immd1rtkjl,Emily_Honors_Thesis_Part_2,1,263,2020-06-10T12:26:09-07:00,5.5347831249237,1,versionA_stim.csv,READ_JOLVersionA.csv,"READ Version A",OLD,CLUE,GAME,ON2,F,97,128,JOL,User,-,"How likely are you to correctly recall the second item in the pair?|Type your response on a scale from 0-100 and then press Enter.",Study/JOL,"Study Phase2",3444,,,2521,3016,,,,60,1
w927437_AH,immd1rtkjl,Emily_Honors_Thesis_Part_2,1,264,2020-06-10T12:28:11-07:00,122.04700708389,1,versionA_stim.csv,READ_JOLVersionA.csv,"READ Version A",OLD,HONEST,TRUTHFUL,ON2,B,133,123,JOL,User,-,"How likely are you to correctly recall the second item in the pair?|Type your response on a scale from 0-100 and then press Enter.",Study/JOL,"Study Phase2",119734,,,119212,119410,,,,40,0.5
w927437_AH,immd1rtkjl,Emily_Honors_Thesis_Part_2,1,265,2020-06-10T12:29:09-07:00,58.152607917786,1,versionA_stim.csv,READ_JOLVersionA.csv,"READ Version A",OLD,BIRD,PENGUIN,ON2,B,119,162,JOL,User,-,"How likely are you to correctly recall the second item in the pair?|Type your response on a scale from 0-100 and then press Enter.",Study/JOL,"Study Phase2",55748,,,55378,55472,,,,80,1
w927437_AH,immd1rtkjl,Emily_Honors_Thesis_Part_2,1,266,2020-06-10T12:30:27-07:00,78.277644872665,1,versionA_stim.csv,READ_JOLVersionA.csv,"READ Version A",OLD,TURN,FLIP,ON2,B,116,111,JOL,User,-,"How likely are you to correctly recall the second item in the pair?|Type your response on a scale from 0-100 and then press Enter.",Study/JOL,"Study Phase2",75357,,,75032,75032,,,,0,0.409
w927437_AH,immd1rtkjl,Emily_Honors_Thesis_Part_2,1,267,2020-06-10T12:30:32-07:00,5.0065331459045,1,versionA_stim.csv,READ_JOLVersionA.csv,"READ Version A",OLD,FRUIT,STRAWBERRY,ON2,B,124,104,JOL,User,-,"How likely are you to correctly recall the second item in the pair?|Type your response on a scale from 0-100 and then press Enter.",Study/JOL,"Study Phase2",3083,,,1583,2719,,,,70,1
w927437_AH,immd1rtkjl,Emily_Honors_Thesis_Part_2,1,268,2020-06-10T12:31:20-07:00,48.365464925766,1,versionA_stim.csv,READ_JOLVersionA.csv,"READ Version A",OLD,MIRROR,CHILDREN,ON2,U,174,135,JOL,User,-,"How likely are you to correctly recall the second item in the pair?|Type your response on a scale from 0-100 and then press Enter.",Study/JOL,"Study Phase2",45963,,,45688,45688,,,,0,0.5
w927437_AH,immd1rtkjl,Emily_Honors_Thesis_Part_2,1,269,2020-06-10T12:31:24-07:00,3.8704431056976,1,versionA_stim.csv,READ_JOLVersionA.csv,"READ Version A",OLD,OWN,HAVE,ON2,S,153,102,JOL,User,-,"How likely are you to correctly recall the second item in the pair?|Type your response on a scale from 0-100 and then press Enter.",Study/JOL,"Study Phase2",1979,,,1592,1719,,,,10,1
w927437_AH,immd1rtkjl,Emily_Honors_Thesis_Part_2,1,270,2020-06-10T12:31:29-07:00,4.8021168708801,1,versionA_stim.csv,READ_JOLVersionA.csv,"READ Version A",OLD,CAT,PANTHER,ON2,B,126,171,JOL,User,-,"How likely are you to correctly recall the second item in the pair?|Type your response on a scale from 0-100 and then press Enter.",Study/JOL,"Study Phase2",2837,,,2424,2544,,,,30,1
w927437_AH,immd1rtkjl,Emily_Honors_Thesis_Part_2,1,271,2020-06-10T12:31:38-07:00,8.6067500114441,1,versionA_stim.csv,READ_JOLVersionA.csv,"READ Version A",OLD,GONE,AWAY,ON2,S,142,136,JOL,User,-,"How likely are you to correctly recall the second item in the pair?|Type your response on a scale from 0-100 and then press Enter.",Study/JOL,"Study Phase2",6465,,,6021,6141,,,,30,1
w927437_AH,immd1rtkjl,Emily_Honors_Thesis_Part_2,1,272,2020-06-10T12:31:42-07:00,4.7540421485901,1,versionA_stim.csv,READ_JOLVersionA.csv,"READ Version A",OLD,ADJOURN,END,ON2,F,101,126,JOL,User,-,"How likely are you to correctly recall the second item in the pair?|Type your response on a scale from 0-100 and then press Enter.",Study/JOL,"Study Phase2",2839,,,2291,2506,,,,80,1
w927437_AH,immd1rtkjl,Emily_Honors_Thesis_Part_2,1,273,2020-06-10T12:31:46-07:00,4.0403819084167,1,versionA_stim.csv,READ_JOLVersionA.csv,"READ Version A",OLD,FURRY,DOG,ON2,F,102,120,JOL,User,-,"How likely are you to correctly recall the second item in the pair?|Type your response on a scale from 0-100 and then press Enter.",Study/JOL,"Study Phase2",1937,,,1518,1686,,,,90,1
w927437_AH,immd1rtkjl,Emily_Honors_Thesis_Part_2,1,274,2020-06-10T12:31:50-07:00,3.8437170982361,1,versionA_stim.csv,READ_JOLVersionA.csv,"READ Version A",OLD,INCENSE,SMELL,ON2,F,110,170,JOL,User,-,"How likely are you to correctly recall the second item in the pair?|Type your response on a scale from 0-100 and then press Enter.",Study/JOL,"Study Phase2",1998,,,1518,1693,,,,90,1
w927437_AH,immd1rtkjl,Emily_Honors_Thesis_Part_2,1,275,2020-06-10T12:31:54-07:00,3.5162179470062,1,versionA_stim.csv,READ_JOLVersionA.csv,"READ Version A",OLD,KEYS,JOKE,ON2,U,165,119,JOL,User,-,"How likely are you to correctly recall the second item in the pair?|Type your response on a scale from 0-100 and then press Enter.",Study/JOL,"Study Phase2",1476,,,1185,1185,,,,0,1
w927437_AH,immd1rtkjl,Emily_Honors_Thesis_Part_2,1,276,2020-06-10T12:31:59-07:00,5.1641619205475,1,versionA_stim.csv,READ_JOLVersionA.csv,"READ Version A",OLD,NAME,HATE,ON2,U,167,141,JOL,User,-,"How likely are you to correctly recall the second item in the pair?|Type your response on a scale from 0-100 and then press Enter.",Study/JOL,"Study Phase2",2642,,,2375,2375,,,,0,1
w927437_AH,immd1rtkjl,Emily_Honors_Thesis_Part_2,1,277,2020-06-10T12:32:05-07:00,5.638335943222,1,versionA_stim.csv,READ_JOLVersionA.csv,"READ Version A",OLD,LITTER,TRASH,ON2,F,103,99,JOL,User,-,"How likely are you to correctly recall the second item in the pair?|Type your response on a scale from 0-100 and then press Enter.",Study/JOL,"Study Phase2",3389,,,2569,3057,,,,79,1
w927437_AH,immd1rtkjl,Emily_Honors_Thesis_Part_2,1,278,2020-06-10T12:32:12-07:00,7.7260460853577,1,versionA_stim.csv,READ_JOLVersionA.csv,"READ Version A",OLD,DAYS,WEAKS,Buffer3,Buffer,176,180,JOL,User,-,"How likely are you to correctly recall the second item in the pair?|Type your response on a scale from 0-100 and then press Enter.",Study/JOL,BUFFER4,5365,,,1817,4816,,,,15,1
w927437_AH,immd1rtkjl,Emily_Honors_Thesis_Part_2,1,279,2020-06-10T12:32:18-07:00,5.4731299877167,1,versionA_stim.csv,READ_JOLVersionA.csv,"READ Version A",OLD,MONTH,YEAR,Buffer3,Buffer,177,177,JOL,User,-,"How likely are you to correctly recall the second item in the pair?|Type your response on a scale from 0-100 and then press Enter.",Study/JOL,BUFFER4,3248,,,1317,2827,,,,98,1
w927437_AH,immd1rtkjl,Emily_Honors_Thesis_Part_2,1,280,2020-06-10T12:32:23-07:00,5.3641149997711,1,versionA_stim.csv,READ_JOLVersionA.csv,"READ Version A",OLD,TOOL,SHED,Buffer3,Buffer,178,181,JOL,User,-,"How likely are you to correctly recall the second item in the pair?|Type your response on a scale from 0-100 and then press Enter.",Study/JOL,BUFFER4,3118,,,2451,2770,,,,70,1
w927437_AH,immd1rtkjl,Emily_Honors_Thesis_Part_2,1,281,2020-06-10T12:32:29-07:00,5.5965070724487,1,versionA_stim.csv,READ_JOLVersionA.csv,"READ Version A",OLD,CARROT,POTATO,Buffer3,Buffer,91,179,JOL,User,-,"How likely are you to correctly recall the second item in the pair?|Type your response on a scale from 0-100 and then press Enter.",Study/JOL,BUFFER4,3197,,,2962,2962,,,,5,1
w927437_AH,immd1rtkjl,Emily_Honors_Thesis_Part_2,1,282,2020-06-10T12:32:34-07:00,5.4780979156494,1,versionA_stim.csv,READ_JOLVersionA.csv,"READ Version A",OLD,ICE,FROZEN,Buffer3,Buffer,94,178,JOL,User,-,"How likely are you to correctly recall the second item in the pair?|Type your response on a scale from 0-100 and then press Enter.",Study/JOL,BUFFER4,2122,,,1696,1807,,,,98,1
w927437_AH,immd1rtkjl,Emily_Honors_Thesis_Part_2,1,283,2020-06-10T12:32:38-07:00,3.8403561115265,1,versionA_stim.csv,READ_JOLVersionA.csv,"READ Version A",OLD,,,,,,0,Instruct,User,-,"You have completed this section. Please press Enter.",Filler_Instruction,Instruct5,1576,,,-1,-1,,,,,1
w927437_AH,immd1rtkjl,Emily_Honors_Thesis_Part_2,1,284,2020-06-10T12:34:40-07:00,122.03689098358,1,versionA_stim.csv,READ_JOLVersionA.csv,"READ Version A",OLD,,,,,,0,FreeRecall,120,120,"Please list the 50 US states in reverse alphabetical order (z - a). The task will automatically advance to the next screen after two minutes.",,Filler2,120003,"Wyoming Wisconsin West Virginia Washington Virginia Vermont Utah Texas Pennsylvania Oregon Oklahoma New York New Mexico New Jersey Montana Missouri Mississippi Minnesota Michigan ",0,36431,119818,0,0,,,0.892
w927437_AH,immd1rtkjl,Emily_Honors_Thesis_Part_2,1,285,2020-06-10T12:35:13-07:00,32.966625928879,1,versionA_stim.csv,READ_JOLVersionA.csv,"READ Version A",OLD,,,,,,0,Instruct,-,10,"You will now be presented with the first word from each of the previously studied item pairs. Please type the missing word. If you do not know the word, you may guess or press Enter to skip forward to the next pair.",,Instruct6,31042,,,-1,-1,,,,,0.845
w927437_AH,immd1rtkjl,Emily_Honors_Thesis_Part_2,1,286,2020-06-10T12:35:18-07:00,5.3984279632568,1,versionA_stim.csv,READ_JOLVersionA.csv,"READ Version A",OLD,PLANE,AIRCRAFT,ON2,B,129,161,Test,User,-,,Recall,Recall2,2945,air,54.545454545455,2056,2213,0,0,,,1
w927437_AH,immd1rtkjl,Emily_Honors_Thesis_Part_2,1,287,2020-06-10T12:35:23-07:00,4.5609209537506,1,versionA_stim.csv,READ_JOLVersionA.csv,"READ Version A",OLD,EXTENSION,LONG,ON2,F,96,108,Test,User,-,,Recall,Recall2,1788,long,100,1298,1657,1,1,,,1
w927437_AH,immd1rtkjl,Emily_Honors_Thesis_Part_2,1,288,2020-06-10T12:35:27-07:00,3.920746088028,1,versionA_stim.csv,READ_JOLVersionA.csv,"READ Version A",OLD,TEMPERATURE,MORNING,ON2,U,173,145,Test,User,-,,Recall,Recall2,1415,hot,20,1116,1275,0,0,,,1
w927437_AH,immd1rtkjl,Emily_Honors_Thesis_Part_2,1,289,2020-06-10T12:35:32-07:00,4.5961449146271,1,versionA_stim.csv,READ_JOLVersionA.csv,"READ Version A",OLD,FEUD,FIGHT,ON2,F,113,165,Test,User,-,,Recall,Recall2,1873,argue,20,1342,1718,0,0,,,1
w927437_AH,immd1rtkjl,Emily_Honors_Thesis_Part_2,1,290,2020-06-10T12:35:36-07:00,3.9617140293121,1,versionA_stim.csv,READ_JOLVersionA.csv,"READ Version A",OLD,MAZE,ELECTION,ON2,U,159,164,Test,User,-,,Recall,Recall2,1149,,0,-1,-1,0,0,,,1
w927437_AH,immd1rtkjl,Emily_Honors_Thesis_Part_2,1,291,2020-06-10T12:35:40-07:00,4.6454989910126,1,versionA_stim.csv,READ_JOLVersionA.csv,"READ Version A",OLD,BASEBALL,LEAGUE,ON2,B,131,156,Test,User,-,,Recall,Recall2,2632,sport,0,2054,2550,0,0,,,1
w927437_AH,immd1rtkjl,Emily_Honors_Thesis_Part_2,1,292,2020-06-10T12:35:44-07:00,3.7524690628052,1,versionA_stim.csv,READ_JOLVersionA.csv,"READ Version A",OLD,CHERRY,RED,ON2,F,104,172,Test,User,-,,Recall,Recall2,1429,red,100,1034,1290,1,1,,,1
w927437_AH,immd1rtkjl,Emily_Honors_Thesis_Part_2,1,293,2020-06-10T12:35:48-07:00,4.3238470554352,1,versionA_stim.csv,READ_JOLVersionA.csv,"READ Version A",OLD,CAKE,CLOTHES,ON2,U,166,134,Test,User,-,,Recall,Recall2,1473,,0,-1,-1,0,0,,,1
w927437_AH,immd1rtkjl,Emily_Honors_Thesis_Part_2,1,294,2020-06-10T12:35:54-07:00,6.0824568271637,1,versionA_stim.csv,READ_JOLVersionA.csv,"READ Version A",OLD,VEHICLE,CHARM,ON2,U,160,146,Test,User,-,,Recall,Recall2,3701,drive,20,930,3354,0,0,,,1
w927437_AH,immd1rtkjl,Emily_Honors_Thesis_Part_2,1,295,2020-06-10T12:35:57-07:00,2.9934911727905,1,versionA_stim.csv,READ_JOLVersionA.csv,"READ Version A",OLD,STAR,ACTRESS,ON2,B,120,116,Test,User,-,,Recall,Recall2,894,,0,-1,-1,0,0,,,1
w927437_AH,immd1rtkjl,Emily_Honors_Thesis_Part_2,1,296,2020-06-10T12:36:01-07:00,3.7624750137329,1,versionA_stim.csv,READ_JOLVersionA.csv,"READ Version A",OLD,CACTUS,PLANT,ON2,F,98,137,Test,User,-,,Recall,Recall2,1340,,0,-1,-1,0,0,,,1
