Username,ID,ExperimentName,Session,Trial,Date,TimeDif,"Condition Number","Stimuli File","Order File","Condition Description","Condition Notes",Stimuli*Cue,Stimuli*Answer,Stimuli*Shuffle,"Stimuli*Stimuli Notes",Stimuli*Value,Procedure*Item,"Procedure*Trial Type","Procedure*Max Time","Procedure*Min Time",Procedure*Text,"Procedure*Procedure Notes",Procedure*Shuffle,Response*RT,Response*Response,Response*Accuracy,Response*RTfirst,Response*RTlast,Response*strictAcc,Response*lenientAcc,Response*focus,Response*JOL,Response*Focus
jljlj,zv0nhzz2uu,Emily_Honors_Thesis_Part_2,1,1,2020-03-25T15:41:56+00:00,11.580515146255,13,versionA_stim_BACKWARD.csv,BACKWARD_READ_JOLVersionA.csv,"BACKWARD READ VERSION A",NEW,,,,,,0,Instruct,-,10,"In this section, you will be presented with a series of word pairs. As you study, you will be asked to rate your ability to remember the second item in the pair if you were only shown the first at test. You will make these ratings using a 0 to 100 Scale.",,Instruct13,11368,,,-1,-1,,,,,1
jljlj,zv0nhzz2uu,Emily_Honors_Thesis_Part_2,1,2,2020-03-25T15:42:18+00:00,22.754529953003,13,versionA_stim_BACKWARD.csv,BACKWARD_READ_JOLVersionA.csv,"BACKWARD READ VERSION A",NEW,,,,,,0,Instruct,-,10,"For example, if you are given the pair CAT - DOG, a rating of 0 indicates that you would not remember DOG at test, while a rating of 100 indicates full certainty that you would remember the word DOG at test.",,Instruct14,22561,,,-1,-1,,,,,0.824
jljlj,zv0nhzz2uu,Emily_Honors_Thesis_Part_2,1,3,2020-03-25T15:42:29+00:00,10.582243919373,13,versionA_stim_BACKWARD.csv,BACKWARD_READ_JOLVersionA.csv,"BACKWARD READ VERSION A",NEW,,,,,,0,Instruct,-,10,"When making your ratings, it is criticial that you use the full range of the scale. You will be disqualified for only giving ratings of 0 or 100! After making your rating, press Enter to advance to the next pair.",,Instruct15,10390,,,-1,-1,,,,,1
jljlj,zv0nhzz2uu,Emily_Honors_Thesis_Part_2,1,4,2020-03-25T15:42:38+00:00,9.4745900630951,13,versionA_stim_BACKWARD.csv,BACKWARD_READ_JOLVersionA.csv,"BACKWARD READ VERSION A",NEW,,,,,,0,Instruct,-,5,"You will now complete a practice session. Please study the following items and rate your ability to remember them.",,Instruct17,9286,,,-1,-1,,,,,1
jljlj,zv0nhzz2uu,Emily_Honors_Thesis_Part_2,1,5,2020-03-25T15:42:41+00:00,2.7423160076141,13,versionA_stim_BACKWARD.csv,BACKWARD_READ_JOLVersionA.csv,"BACKWARD READ VERSION A",NEW,ROOT,PLANT,ON,F,13,182,JOL,User,-,"How likely are you to correctly recall the items below?|Type your response on a scale from 0-100 and then press Enter.",Study/JOL,PRACTICE,2564,,,-1,-1,,,,,1
jljlj,zv0nhzz2uu,Emily_Honors_Thesis_Part_2,1,6,2020-03-25T15:42:58+00:00,16.660389900208,13,versionA_stim_BACKWARD.csv,BACKWARD_READ_JOLVersionA.csv,"BACKWARD READ VERSION A",NEW,REVOLUTION,WAR,ON,F,20,187,JOL,User,-,"How likely are you to correctly recall the items below?|Type your response on a scale from 0-100 and then press Enter.",Study/JOL,PRACTICE,16460,,,-1,-1,,,,,0.183
jljlj,zv0nhzz2uu,Emily_Honors_Thesis_Part_2,1,7,2020-03-25T15:42:58+00:00,0.29073715209961,13,versionA_stim_BACKWARD.csv,BACKWARD_READ_JOLVersionA.csv,"BACKWARD READ VERSION A",NEW,PUSHER,CLUTTER,ON,U,66,190,JOL,User,-,"How likely are you to correctly recall the items below?|Type your response on a scale from 0-100 and then press Enter.",Study/JOL,PRACTICE,95,,,-1,-1,,,,,1
jljlj,zv0nhzz2uu,Emily_Honors_Thesis_Part_2,1,8,2020-03-25T15:42:58+00:00,0.36611986160278,13,versionA_stim_BACKWARD.csv,BACKWARD_READ_JOLVersionA.csv,"BACKWARD READ VERSION A",NEW,SMELL,STENCH,ON,B,42,188,JOL,User,-,"How likely are you to correctly recall the items below?|Type your response on a scale from 0-100 and then press Enter.",Study/JOL,PRACTICE,163,,,-1,-1,,,,,1
jljlj,zv0nhzz2uu,Emily_Honors_Thesis_Part_2,1,9,2020-03-25T15:42:59+00:00,0.38906502723694,13,versionA_stim_BACKWARD.csv,BACKWARD_READ_JOLVersionA.csv,"BACKWARD READ VERSION A",NEW,ARTERY,BRONZE,ON,U,74,191,JOL,User,-,"How likely are you to correctly recall the items below?|Type your response on a scale from 0-100 and then press Enter.",Study/JOL,PRACTICE,187,,,-1,-1,,,,,1
jljlj,zv0nhzz2uu,Emily_Honors_Thesis_Part_2,1,10,2020-03-25T15:42:59+00:00,0.29910206794739,13,versionA_stim_BACKWARD.csv,BACKWARD_READ_JOLVersionA.csv,"BACKWARD READ VERSION A",NEW,LOAN,SIGN,ON,U,171,185,JOL,User,-,"How likely are you to correctly recall the items below?|Type your response on a scale from 0-100 and then press Enter.",Study/JOL,PRACTICE,103,,,-1,-1,,,,,1
jljlj,zv0nhzz2uu,Emily_Honors_Thesis_Part_2,1,11,2020-03-25T15:42:59+00:00,0.35649299621582,13,versionA_stim_BACKWARD.csv,BACKWARD_READ_JOLVersionA.csv,"BACKWARD READ VERSION A",NEW,WRIST,BRACELET,ON,S,140,189,JOL,User,-,"How likely are you to correctly recall the items below?|Type your response on a scale from 0-100 and then press Enter.",Study/JOL,PRACTICE,162,,,-1,-1,,,,,1
jljlj,zv0nhzz2uu,Emily_Honors_Thesis_Part_2,1,12,2020-03-25T15:43:00+00:00,0.37981796264648,13,versionA_stim_BACKWARD.csv,BACKWARD_READ_JOLVersionA.csv,"BACKWARD READ VERSION A",NEW,MACHINE,POSITION,ON,U,76,186,JOL,User,-,"How likely are you to correctly recall the items below?|Type your response on a scale from 0-100 and then press Enter.",Study/JOL,PRACTICE,134,,,-1,-1,,,,,1
jljlj,zv0nhzz2uu,Emily_Honors_Thesis_Part_2,1,13,2020-03-25T15:43:00+00:00,0.28036499023438,13,versionA_stim_BACKWARD.csv,BACKWARD_READ_JOLVersionA.csv,"BACKWARD READ VERSION A",NEW,DINE,EAT,ON,F,111,184,JOL,User,-,"How likely are you to correctly recall the items below?|Type your response on a scale from 0-100 and then press Enter.",Study/JOL,PRACTICE,92,,,-1,-1,,,,,1
jljlj,zv0nhzz2uu,Emily_Honors_Thesis_Part_2,1,14,2020-03-25T15:43:00+00:00,0.26759195327759,13,versionA_stim_BACKWARD.csv,BACKWARD_READ_JOLVersionA.csv,"BACKWARD READ VERSION A",NEW,WAGE,MONEY,ON,F,8,183,JOL,User,-,"How likely are you to correctly recall the items below?|Type your response on a scale from 0-100 and then press Enter.",Study/JOL,PRACTICE,72,,,-1,-1,,,,,1
jljlj,zv0nhzz2uu,Emily_Honors_Thesis_Part_2,1,15,2020-03-25T15:43:01+00:00,0.24889421463013,13,versionA_stim_BACKWARD.csv,BACKWARD_READ_JOLVersionA.csv,"BACKWARD READ VERSION A",NEW,,,,,,0,Instruct,User,-,"You have completed this section. Please press Enter to continue.",,Instruct18,57,,,-1,-1,,,,,1
jljlj,zv0nhzz2uu,Emily_Honors_Thesis_Part_2,1,16,2020-03-25T15:43:01+00:00,0.2506468296051,13,versionA_stim_BACKWARD.csv,BACKWARD_READ_JOLVersionA.csv,"BACKWARD READ VERSION A",NEW,,,,,,0,Instruct,User,-,"You will now begin the study. Press Enter when you are ready to begin.",,Instruct16,62,,,-1,-1,,,,,1
jljlj,zv0nhzz2uu,Emily_Honors_Thesis_Part_2,1,17,2020-03-25T15:43:02+00:00,0.90328502655029,13,versionA_stim_BACKWARD.csv,BACKWARD_READ_JOLVersionA.csv,"BACKWARD READ VERSION A",NEW,PEANUT,BUTTER,OFF,Buffer,3,4,JOL,User,-,"How likely are you to correctly recall the items below?|Type your response on a scale from 0-100 and then press Enter.",Study/JOL,BUFFER,707,,,-1,-1,,,,,1
jljlj,zv0nhzz2uu,Emily_Honors_Thesis_Part_2,1,18,2020-03-25T15:43:02+00:00,0.48558807373047,13,versionA_stim_BACKWARD.csv,BACKWARD_READ_JOLVersionA.csv,"BACKWARD READ VERSION A",NEW,TREES,GREEN,OFF,Buffer,1,2,JOL,User,-,"How likely are you to correctly recall the items below?|Type your response on a scale from 0-100 and then press Enter.",Study/JOL,BUFFER,301,,,-1,-1,,,,,1
jljlj,zv0nhzz2uu,Emily_Honors_Thesis_Part_2,1,19,2020-03-25T15:43:03+00:00,0.74153304100037,13,versionA_stim_BACKWARD.csv,BACKWARD_READ_JOLVersionA.csv,"BACKWARD READ VERSION A",NEW,SPACE,JAM,OFF,Buffer,5,6,JOL,User,-,"How likely are you to correctly recall the items below?|Type your response on a scale from 0-100 and then press Enter.",Study/JOL,BUFFER,548,,,-1,-1,,,,,1
jljlj,zv0nhzz2uu,Emily_Honors_Thesis_Part_2,1,20,2020-03-25T15:43:04+00:00,0.64751291275024,13,versionA_stim_BACKWARD.csv,BACKWARD_READ_JOLVersionA.csv,"BACKWARD READ VERSION A",NEW,SCARE,HIDE,OFF,Buffer,4,5,JOL,User,-,"How likely are you to correctly recall the items below?|Type your response on a scale from 0-100 and then press Enter.",Study/JOL,BUFFER,435,,,-1,-1,,,,,1
jljlj,zv0nhzz2uu,Emily_Honors_Thesis_Part_2,1,21,2020-03-25T15:43:04+00:00,0.24310898780823,13,versionA_stim_BACKWARD.csv,BACKWARD_READ_JOLVersionA.csv,"BACKWARD READ VERSION A",NEW,BASEBALL,CATCHER,OFF,Buffer,2,3,JOL,User,-,"How likely are you to correctly recall the items below?|Type your response on a scale from 0-100 and then press Enter.",Study/JOL,BUFFER,50,,,-1,-1,,,,,1
jljlj,zv0nhzz2uu,Emily_Honors_Thesis_Part_2,1,22,2020-03-25T15:43:04+00:00,0.24689292907715,13,versionA_stim_BACKWARD.csv,BACKWARD_READ_JOLVersionA.csv,"BACKWARD READ VERSION A",NEW,DEATH,BUSINESS,ON,U,72,65,JOL,User,-,"How likely are you to correctly recall the items below?|Type your response on a scale from 0-100 and then press Enter.",Study/JOL,"Study Phase",29,,,-1,-1,,,,,1
jljlj,zv0nhzz2uu,Emily_Honors_Thesis_Part_2,1,23,2020-03-25T15:43:05+00:00,0.50402402877808,13,versionA_stim_BACKWARD.csv,BACKWARD_READ_JOLVersionA.csv,"BACKWARD READ VERSION A",NEW,CAR,WINDSHIELD,ON,B,117,51,JOL,User,-,"How likely are you to correctly recall the items below?|Type your response on a scale from 0-100 and then press Enter.",Study/JOL,"Study Phase",318,,,-1,-1,,,,,1
jljlj,zv0nhzz2uu,Emily_Honors_Thesis_Part_2,1,24,2020-03-25T15:43:05+00:00,0.26243114471436,13,versionA_stim_BACKWARD.csv,BACKWARD_READ_JOLVersionA.csv,"BACKWARD READ VERSION A",NEW,BEGIN,END,ON,S,54,42,JOL,User,-,"How likely are you to correctly recall the items below?|Type your response on a scale from 0-100 and then press Enter.",Study/JOL,"Study Phase",74,,,-1,-1,,,,,1
jljlj,zv0nhzz2uu,Emily_Honors_Thesis_Part_2,1,25,2020-03-25T15:43:20+00:00,15.464291810989,13,versionA_stim_BACKWARD.csv,BACKWARD_READ_JOLVersionA.csv,"BACKWARD READ VERSION A",NEW,KEYS,JOKE,ON,U,165,60,JOL,User,-,"How likely are you to correctly recall the items below?|Type your response on a scale from 0-100 and then press Enter.",Study/JOL,"Study Phase",15258,,,-1,-1,,,,,0.289
jljlj,zv0nhzz2uu,Emily_Honors_Thesis_Part_2,1,26,2020-03-25T15:43:21+00:00,0.34823417663574,13,versionA_stim_BACKWARD.csv,BACKWARD_READ_JOLVersionA.csv,"BACKWARD READ VERSION A",NEW,CHILL,COLD,ON,F,114,84,JOL,User,-,"How likely are you to correctly recall the items below?|Type your response on a scale from 0-100 and then press Enter.",Study/JOL,"Study Phase",127,,,-1,-1,,,,,1
jljlj,zv0nhzz2uu,Emily_Honors_Thesis_Part_2,1,27,2020-03-25T15:43:21+00:00,0.28422093391418,13,versionA_stim_BACKWARD.csv,BACKWARD_READ_JOLVersionA.csv,"BACKWARD READ VERSION A",NEW,BOTH,OUNCE,ON,U,172,86,JOL,User,-,"How likely are you to correctly recall the items below?|Type your response on a scale from 0-100 and then press Enter.",Study/JOL,"Study Phase",91,,,-1,-1,,,,,1
jljlj,zv0nhzz2uu,Emily_Honors_Thesis_Part_2,1,28,2020-03-25T15:43:21+00:00,0.27002501487732,13,versionA_stim_BACKWARD.csv,BACKWARD_READ_JOLVersionA.csv,"BACKWARD READ VERSION A",NEW,GLASS,BREAKABLE,ON,B,127,73,JOL,User,-,"How likely are you to correctly recall the items below?|Type your response on a scale from 0-100 and then press Enter.",Study/JOL,"Study Phase",65,,,-1,-1,,,,,1
jljlj,zv0nhzz2uu,Emily_Honors_Thesis_Part_2,1,29,2020-03-25T15:43:22+00:00,0.29493689537048,13,versionA_stim_BACKWARD.csv,BACKWARD_READ_JOLVersionA.csv,"BACKWARD READ VERSION A",NEW,AARDVARK,ZOO,ON,PRACTICE,181,50,JOL,User,-,"How likely are you to correctly recall the items below?|Type your response on a scale from 0-100 and then press Enter.",Study/JOL,"Study Phase",92,,,-1,-1,,,,,1
jljlj,zv0nhzz2uu,Emily_Honors_Thesis_Part_2,1,30,2020-03-25T15:43:22+00:00,0.27772402763367,13,versionA_stim_BACKWARD.csv,BACKWARD_READ_JOLVersionA.csv,"BACKWARD READ VERSION A",NEW,DELINQUENT,BAD,ON,F,6,38,JOL,User,-,"How likely are you to correctly recall the items below?|Type your response on a scale from 0-100 and then press Enter.",Study/JOL,"Study Phase",76,,,-1,-1,,,,,1
jljlj,zv0nhzz2uu,Emily_Honors_Thesis_Part_2,1,31,2020-03-25T15:43:22+00:00,0.29613614082336,13,versionA_stim_BACKWARD.csv,BACKWARD_READ_JOLVersionA.csv,"BACKWARD READ VERSION A",NEW,SLEEP,NAP,ON,B,134,49,JOL,User,-,"How likely are you to correctly recall the items below?|Type your response on a scale from 0-100 and then press Enter.",Study/JOL,"Study Phase",98,,,-1,-1,,,,,1
jljlj,zv0nhzz2uu,Emily_Honors_Thesis_Part_2,1,32,2020-03-25T15:43:22+00:00,0.32556891441345,13,versionA_stim_BACKWARD.csv,BACKWARD_READ_JOLVersionA.csv,"BACKWARD READ VERSION A",NEW,EVEN,REVENGE,ON,B,122,21,JOL,User,-,"How likely are you to correctly recall the items below?|Type your response on a scale from 0-100 and then press Enter.",Study/JOL,"Study Phase",103,,,-1,-1,,,,,1
jljlj,zv0nhzz2uu,Emily_Honors_Thesis_Part_2,1,33,2020-03-25T15:43:23+00:00,0.36729001998901,13,versionA_stim_BACKWARD.csv,BACKWARD_READ_JOLVersionA.csv,"BACKWARD READ VERSION A",NEW,LEASE,TOIL,ON,U,170,40,JOL,User,-,"How likely are you to correctly recall the items below?|Type your response on a scale from 0-100 and then press Enter.",Study/JOL,"Study Phase",175,,,-1,-1,,,,,1
jljlj,zv0nhzz2uu,Emily_Honors_Thesis_Part_2,1,34,2020-03-25T15:43:23+00:00,0.41738200187683,13,versionA_stim_BACKWARD.csv,BACKWARD_READ_JOLVersionA.csv,"BACKWARD READ VERSION A",NEW,HAPPY,CAR,ON,U,77,61,JOL,User,-,"How likely are you to correctly recall the items below?|Type your response on a scale from 0-100 and then press Enter.",Study/JOL,"Study Phase",214,,,-1,-1,,,,,1
jljlj,zv0nhzz2uu,Emily_Honors_Thesis_Part_2,1,35,2020-03-25T15:43:24+00:00,0.47607398033142,13,versionA_stim_BACKWARD.csv,BACKWARD_READ_JOLVersionA.csv,"BACKWARD READ VERSION A",NEW,BASEBALL,LEAGUE,ON,B,131,56,JOL,User,-,"How likely are you to correctly recall the items below?|Type your response on a scale from 0-100 and then press Enter.",Study/JOL,"Study Phase",280,,,-1,-1,,,,,1
jljlj,zv0nhzz2uu,Emily_Honors_Thesis_Part_2,1,36,2020-03-25T15:43:24+00:00,0.55725502967834,13,versionA_stim_BACKWARD.csv,BACKWARD_READ_JOLVersionA.csv,"BACKWARD READ VERSION A",NEW,MEAT,OBTAIN,ON,U,161,79,JOL,User,-,"How likely are you to correctly recall the items below?|Type your response on a scale from 0-100 and then press Enter.",Study/JOL,"Study Phase",360,,,-1,-1,,,,,1
jljlj,zv0nhzz2uu,Emily_Honors_Thesis_Part_2,1,37,2020-03-25T15:43:25+00:00,0.7112410068512,13,versionA_stim_BACKWARD.csv,BACKWARD_READ_JOLVersionA.csv,"BACKWARD READ VERSION A",NEW,STAR,ACTRESS,ON,B,120,29,JOL,User,-,"How likely are you to correctly recall the items below?|Type your response on a scale from 0-100 and then press Enter.",Study/JOL,"Study Phase",492,,,-1,-1,,,,,1
jljlj,zv0nhzz2uu,Emily_Honors_Thesis_Part_2,1,38,2020-03-25T15:43:26+00:00,0.60516095161438,13,versionA_stim_BACKWARD.csv,BACKWARD_READ_JOLVersionA.csv,"BACKWARD READ VERSION A",NEW,ALONE,LONELY,ON,S,145,32,JOL,User,-,"How likely are you to correctly recall the items below?|Type your response on a scale from 0-100 and then press Enter.",Study/JOL,"Study Phase",393,,,-1,-1,,,,,1
jljlj,zv0nhzz2uu,Emily_Honors_Thesis_Part_2,1,39,2020-03-25T15:43:26+00:00,0.77913498878479,13,versionA_stim_BACKWARD.csv,BACKWARD_READ_JOLVersionA.csv,"BACKWARD READ VERSION A",NEW,GONE,AWAY,ON,S,142,25,JOL,User,-,"How likely are you to correctly recall the items below?|Type your response on a scale from 0-100 and then press Enter.",Study/JOL,"Study Phase",567,,,-1,-1,,,,,1
jljlj,zv0nhzz2uu,Emily_Honors_Thesis_Part_2,1,40,2020-03-25T15:43:27+00:00,0.63816809654236,13,versionA_stim_BACKWARD.csv,BACKWARD_READ_JOLVersionA.csv,"BACKWARD READ VERSION A",NEW,MULE,DONKEY,ON,F,108,7,JOL,User,-,"How likely are you to correctly recall the items below?|Type your response on a scale from 0-100 and then press Enter.",Study/JOL,"Study Phase",437,,,-1,-1,,,,,1
jljlj,zv0nhzz2uu,Emily_Honors_Thesis_Part_2,1,41,2020-03-25T15:43:27+00:00,0.40346503257751,13,versionA_stim_BACKWARD.csv,BACKWARD_READ_JOLVersionA.csv,"BACKWARD READ VERSION A",NEW,MOAT,CLEAR,ON,U,169,13,JOL,User,-,"How likely are you to correctly recall the items below?|Type your response on a scale from 0-100 and then press Enter.",Study/JOL,"Study Phase",153,,,-1,-1,,,,,1
jljlj,zv0nhzz2uu,Emily_Honors_Thesis_Part_2,1,42,2020-03-25T15:43:28+00:00,0.66111493110657,13,versionA_stim_BACKWARD.csv,BACKWARD_READ_JOLVersionA.csv,"BACKWARD READ VERSION A",NEW,FLEA,TICK,ON,S,151,44,JOL,User,-,"How likely are you to correctly recall the items below?|Type your response on a scale from 0-100 and then press Enter.",Study/JOL,"Study Phase",398,,,-1,-1,,,,,1
jljlj,zv0nhzz2uu,Emily_Honors_Thesis_Part_2,1,43,2020-03-25T15:43:29+00:00,0.43216896057129,13,versionA_stim_BACKWARD.csv,BACKWARD_READ_JOLVersionA.csv,"BACKWARD READ VERSION A",NEW,HONEST,TRUTHFUL,ON,B,133,74,JOL,User,-,"How likely are you to correctly recall the items below?|Type your response on a scale from 0-100 and then press Enter.",Study/JOL,"Study Phase",60,,,-1,-1,,,,,1
jljlj,zv0nhzz2uu,Emily_Honors_Thesis_Part_2,1,44,2020-03-25T15:43:29+00:00,0.71303200721741,13,versionA_stim_BACKWARD.csv,BACKWARD_READ_JOLVersionA.csv,"BACKWARD READ VERSION A",NEW,TEMPERATURE,Morning,ON,U,173,33,JOL,User,-,"How likely are you to correctly recall the items below?|Type your response on a scale from 0-100 and then press Enter.",Study/JOL,"Study Phase",411,,,-1,-1,,,,,1
jljlj,zv0nhzz2uu,Emily_Honors_Thesis_Part_2,1,45,2020-03-25T15:43:30+00:00,0.78549408912659,13,versionA_stim_BACKWARD.csv,BACKWARD_READ_JOLVersionA.csv,"BACKWARD READ VERSION A",NEW,DEBATE,SIGHT,ON,U,73,57,JOL,User,-,"How likely are you to correctly recall the items below?|Type your response on a scale from 0-100 and then press Enter.",Study/JOL,"Study Phase",556,,,-1,-1,,,,,1
jljlj,zv0nhzz2uu,Emily_Honors_Thesis_Part_2,1,46,2020-03-25T15:43:30+00:00,0.41712093353271,13,versionA_stim_BACKWARD.csv,BACKWARD_READ_JOLVersionA.csv,"BACKWARD READ VERSION A",NEW,MAIN,SCAR,ON,U,175,27,JOL,User,-,"How likely are you to correctly recall the items below?|Type your response on a scale from 0-100 and then press Enter.",Study/JOL,"Study Phase",219,,,-1,-1,,,,,1
jljlj,zv0nhzz2uu,Emily_Honors_Thesis_Part_2,1,47,2020-03-25T15:43:31+00:00,0.3457179069519,13,versionA_stim_BACKWARD.csv,BACKWARD_READ_JOLVersionA.csv,"BACKWARD READ VERSION A",NEW,GREAT,FANTASTIC,ON,B,35,35,JOL,User,-,"How likely are you to correctly recall the items below?|Type your response on a scale from 0-100 and then press Enter.",Study/JOL,"Study Phase",144,,,-1,-1,,,,,1
jljlj,zv0nhzz2uu,Emily_Honors_Thesis_Part_2,1,48,2020-03-25T15:43:31+00:00,0.28162407875061,13,versionA_stim_BACKWARD.csv,BACKWARD_READ_JOLVersionA.csv,"BACKWARD READ VERSION A",NEW,FIX,HAND,ON,U,75,48,JOL,User,-,"How likely are you to correctly recall the items below?|Type your response on a scale from 0-100 and then press Enter.",Study/JOL,"Study Phase",74,,,-1,-1,,,,,1
jljlj,zv0nhzz2uu,Emily_Honors_Thesis_Part_2,1,49,2020-03-25T15:43:53+00:00,22.052176952362,13,versionA_stim_BACKWARD.csv,BACKWARD_READ_JOLVersionA.csv,"BACKWARD READ VERSION A",NEW,LETTUCE,SALAD,ON,S,59,19,JOL,User,-,"How likely are you to correctly recall the items below?|Type your response on a scale from 0-100 and then press Enter.",Study/JOL,"Study Phase",21843,,,-1,-1,,,,,0.406
jljlj,zv0nhzz2uu,Emily_Honors_Thesis_Part_2,1,50,2020-03-25T15:43:54+00:00,0.43902397155762,13,versionA_stim_BACKWARD.csv,BACKWARD_READ_JOLVersionA.csv,"BACKWARD READ VERSION A",NEW,FEUD,FIGHT,ON,F,113,14,JOL,User,-,"How likely are you to correctly recall the items below?|Type your response on a scale from 0-100 and then press Enter.",Study/JOL,"Study Phase",200,,,-1,-1,,,,,1
jljlj,zv0nhzz2uu,Emily_Honors_Thesis_Part_2,1,51,2020-03-25T15:43:54+00:00,0.34653902053833,13,versionA_stim_BACKWARD.csv,BACKWARD_READ_JOLVersionA.csv,"BACKWARD READ VERSION A",NEW,PHONE,COMMUNICATION,ON,S,149,8,JOL,User,-,"How likely are you to correctly recall the items below?|Type your response on a scale from 0-100 and then press Enter.",Study/JOL,"Study Phase",54,,,-1,-1,,,,,1
jljlj,zv0nhzz2uu,Emily_Honors_Thesis_Part_2,1,52,2020-03-25T15:43:54+00:00,0.32566094398499,13,versionA_stim_BACKWARD.csv,BACKWARD_READ_JOLVersionA.csv,"BACKWARD READ VERSION A",NEW,SLEEP,DROWSY,ON,B,41,10,JOL,User,-,"How likely are you to correctly recall the items below?|Type your response on a scale from 0-100 and then press Enter.",Study/JOL,"Study Phase",98,,,-1,-1,,,,,1
jljlj,zv0nhzz2uu,Emily_Honors_Thesis_Part_2,1,53,2020-03-25T15:43:55+00:00,0.36570620536804,13,versionA_stim_BACKWARD.csv,BACKWARD_READ_JOLVersionA.csv,"BACKWARD READ VERSION A",NEW,CREDIT,CARD,ON,F,23,55,JOL,User,-,"How likely are you to correctly recall the items below?|Type your response on a scale from 0-100 and then press Enter.",Study/JOL,"Study Phase",147,,,-1,-1,,,,,1
jljlj,zv0nhzz2uu,Emily_Honors_Thesis_Part_2,1,54,2020-03-25T15:43:55+00:00,0.3527557849884,13,versionA_stim_BACKWARD.csv,BACKWARD_READ_JOLVersionA.csv,"BACKWARD READ VERSION A",NEW,DIETARY,SACKING,ON,U,67,26,JOL,User,-,"How likely are you to correctly recall the items below?|Type your response on a scale from 0-100 and then press Enter.",Study/JOL,"Study Phase",91,,,-1,-1,,,,,1
jljlj,zv0nhzz2uu,Emily_Honors_Thesis_Part_2,1,55,2020-03-25T15:43:55+00:00,0.33870911598206,13,versionA_stim_BACKWARD.csv,BACKWARD_READ_JOLVersionA.csv,"BACKWARD READ VERSION A",NEW,HAM,BONE,ON,PRACTICE,183,72,JOL,User,-,"How likely are you to correctly recall the items below?|Type your response on a scale from 0-100 and then press Enter.",Study/JOL,"Study Phase",131,,,-1,-1,,,,,1
jljlj,zv0nhzz2uu,Emily_Honors_Thesis_Part_2,1,56,2020-03-25T15:43:56+00:00,0.35640406608582,13,versionA_stim_BACKWARD.csv,BACKWARD_READ_JOLVersionA.csv,"BACKWARD READ VERSION A",NEW,AFFECTION,LOVE,ON,F,115,30,JOL,User,-,"How likely are you to correctly recall the items below?|Type your response on a scale from 0-100 and then press Enter.",Study/JOL,"Study Phase",159,,,-1,-1,,,,,1
jljlj,zv0nhzz2uu,Emily_Honors_Thesis_Part_2,1,57,2020-03-25T15:43:56+00:00,0.33160185813904,13,versionA_stim_BACKWARD.csv,BACKWARD_READ_JOLVersionA.csv,"BACKWARD READ VERSION A",NEW,DISBELIEVE,SKEPTIC,ON,PRACTICE,186,46,JOL,User,-,"How likely are you to correctly recall the items below?|Type your response on a scale from 0-100 and then press Enter.",Study/JOL,"Study Phase",102,,,-1,-1,,,,,1
jljlj,zv0nhzz2uu,Emily_Honors_Thesis_Part_2,1,58,2020-03-25T15:43:56+00:00,0.33073496818542,13,versionA_stim_BACKWARD.csv,BACKWARD_READ_JOLVersionA.csv,"BACKWARD READ VERSION A",NEW,HUNGER,FAMINE,ON,B,40,71,JOL,User,-,"How likely are you to correctly recall the items below?|Type your response on a scale from 0-100 and then press Enter.",Study/JOL,"Study Phase",137,,,-1,-1,,,,,1
jljlj,zv0nhzz2uu,Emily_Honors_Thesis_Part_2,1,59,2020-03-25T15:43:57+00:00,0.35494017601013,13,versionA_stim_BACKWARD.csv,BACKWARD_READ_JOLVersionA.csv,"BACKWARD READ VERSION A",NEW,FIGHT,BRAWL,ON,B,135,17,JOL,User,-,"How likely are you to correctly recall the items below?|Type your response on a scale from 0-100 and then press Enter.",Study/JOL,"Study Phase",163,,,-1,-1,,,,,1
jljlj,zv0nhzz2uu,Emily_Honors_Thesis_Part_2,1,60,2020-03-25T15:43:57+00:00,0.37016296386719,13,versionA_stim_BACKWARD.csv,BACKWARD_READ_JOLVersionA.csv,"BACKWARD READ VERSION A",NEW,LOUD,NOISE,ON,S,152,52,JOL,User,-,"How likely are you to correctly recall the items below?|Type your response on a scale from 0-100 and then press Enter.",Study/JOL,"Study Phase",149,,,-1,-1,,,,,1
jljlj,zv0nhzz2uu,Emily_Honors_Thesis_Part_2,1,61,2020-03-25T15:43:57+00:00,0.35483002662659,13,versionA_stim_BACKWARD.csv,BACKWARD_READ_JOLVersionA.csv,"BACKWARD READ VERSION A",NEW,SOON,BELT,ON,U,70,58,JOL,User,-,"How likely are you to correctly recall the items below?|Type your response on a scale from 0-100 and then press Enter.",Study/JOL,"Study Phase",155,,,-1,-1,,,,,1
jljlj,zv0nhzz2uu,Emily_Honors_Thesis_Part_2,1,62,2020-03-25T15:43:58+00:00,0.27240300178528,13,versionA_stim_BACKWARD.csv,BACKWARD_READ_JOLVersionA.csv,"BACKWARD READ VERSION A",NEW,DRINK,SIP,ON,B,27,76,JOL,User,-,"How likely are you to correctly recall the items below?|Type your response on a scale from 0-100 and then press Enter.",Study/JOL,"Study Phase",45,,,-1,-1,,,,,1
jljlj,zv0nhzz2uu,Emily_Honors_Thesis_Part_2,1,63,2020-03-25T15:43:58+00:00,0.39842581748962,13,versionA_stim_BACKWARD.csv,BACKWARD_READ_JOLVersionA.csv,"BACKWARD READ VERSION A",NEW,BEHAVIOR,SOCIAL,ON,PRACTICE,189,63,JOL,User,-,"How likely are you to correctly recall the items below?|Type your response on a scale from 0-100 and then press Enter.",Study/JOL,"Study Phase",182,,,-1,-1,,,,,1
jljlj,zv0nhzz2uu,Emily_Honors_Thesis_Part_2,1,64,2020-03-25T15:43:58+00:00,0.36499619483948,13,versionA_stim_BACKWARD.csv,BACKWARD_READ_JOLVersionA.csv,"BACKWARD READ VERSION A",NEW,WORK,CHORE,ON,B,39,62,JOL,User,-,"How likely are you to correctly recall the items below?|Type your response on a scale from 0-100 and then press Enter.",Study/JOL,"Study Phase",166,,,-1,-1,,,,,1
jljlj,zv0nhzz2uu,Emily_Honors_Thesis_Part_2,1,65,2020-03-25T15:43:59+00:00,0.3461480140686,13,versionA_stim_BACKWARD.csv,BACKWARD_READ_JOLVersionA.csv,"BACKWARD READ VERSION A",NEW,PAST,FUTURE,ON,S,61,11,JOL,User,-,"How likely are you to correctly recall the items below?|Type your response on a scale from 0-100 and then press Enter.",Study/JOL,"Study Phase",118,,,-1,-1,,,,,1
jljlj,zv0nhzz2uu,Emily_Honors_Thesis_Part_2,1,66,2020-03-25T15:43:59+00:00,0.35308480262756,13,versionA_stim_BACKWARD.csv,BACKWARD_READ_JOLVersionA.csv,"BACKWARD READ VERSION A",NEW,DRY,WET,ON,S,146,12,JOL,User,-,"How likely are you to correctly recall the items below?|Type your response on a scale from 0-100 and then press Enter.",Study/JOL,"Study Phase",148,,,-1,-1,,,,,1
jljlj,zv0nhzz2uu,Emily_Honors_Thesis_Part_2,1,67,2020-03-25T15:43:59+00:00,0.32885503768921,13,versionA_stim_BACKWARD.csv,BACKWARD_READ_JOLVersionA.csv,"BACKWARD READ VERSION A",NEW,Shell,SHAKE,ON,U,163,18,JOL,User,-,"How likely are you to correctly recall the items below?|Type your response on a scale from 0-100 and then press Enter.",Study/JOL,"Study Phase",111,,,-1,-1,,,,,1
jljlj,zv0nhzz2uu,Emily_Honors_Thesis_Part_2,1,68,2020-03-25T15:44:00+00:00,0.33848214149475,13,versionA_stim_BACKWARD.csv,BACKWARD_READ_JOLVersionA.csv,"BACKWARD READ VERSION A",NEW,SCALP,HEAD,ON,F,105,75,JOL,User,-,"How likely are you to correctly recall the items below?|Type your response on a scale from 0-100 and then press Enter.",Study/JOL,"Study Phase",89,,,-1,-1,,,,,1
jljlj,zv0nhzz2uu,Emily_Honors_Thesis_Part_2,1,69,2020-03-25T15:44:00+00:00,0.34245300292969,13,versionA_stim_BACKWARD.csv,BACKWARD_READ_JOLVersionA.csv,"BACKWARD READ VERSION A",NEW,HORNET,STING,ON,F,11,37,JOL,User,-,"How likely are you to correctly recall the items below?|Type your response on a scale from 0-100 and then press Enter.",Study/JOL,"Study Phase",95,,,-1,-1,,,,,1
jljlj,zv0nhzz2uu,Emily_Honors_Thesis_Part_2,1,70,2020-03-25T15:44:00+00:00,0.31768798828125,13,versionA_stim_BACKWARD.csv,BACKWARD_READ_JOLVersionA.csv,"BACKWARD READ VERSION A",NEW,CHOP,CUT,ON,F,107,70,JOL,User,-,"How likely are you to correctly recall the items below?|Type your response on a scale from 0-100 and then press Enter.",Study/JOL,"Study Phase",103,,,-1,-1,,,,,1
jljlj,zv0nhzz2uu,Emily_Honors_Thesis_Part_2,1,71,2020-03-25T15:44:01+00:00,0.33751392364502,13,versionA_stim_BACKWARD.csv,BACKWARD_READ_JOLVersionA.csv,"BACKWARD READ VERSION A",NEW,HERD,COW,ON,F,22,24,JOL,User,-,"How likely are you to correctly recall the items below?|Type your response on a scale from 0-100 and then press Enter.",Study/JOL,"Study Phase",125,,,-1,-1,,,,,1
jljlj,zv0nhzz2uu,Emily_Honors_Thesis_Part_2,1,72,2020-03-25T15:44:01+00:00,0.34079098701477,13,versionA_stim_BACKWARD.csv,BACKWARD_READ_JOLVersionA.csv,"BACKWARD READ VERSION A",NEW,ELEMENT,CARBON,ON,S,141,43,JOL,User,-,"How likely are you to correctly recall the items below?|Type your response on a scale from 0-100 and then press Enter.",Study/JOL,"Study Phase",150,,,-1,-1,,,,,1
jljlj,zv0nhzz2uu,Emily_Honors_Thesis_Part_2,1,73,2020-03-25T15:44:01+00:00,0.34747695922852,13,versionA_stim_BACKWARD.csv,BACKWARD_READ_JOLVersionA.csv,"BACKWARD READ VERSION A",NEW,RAZOR,SHAVE,ON,S,136,59,JOL,User,-,"How likely are you to correctly recall the items below?|Type your response on a scale from 0-100 and then press Enter.",Study/JOL,"Study Phase",140,,,-1,-1,,,,,1
jljlj,zv0nhzz2uu,Emily_Honors_Thesis_Part_2,1,74,2020-03-25T15:44:02+00:00,0.33059000968933,13,versionA_stim_BACKWARD.csv,BACKWARD_READ_JOLVersionA.csv,"BACKWARD READ VERSION A",NEW,CLUE,GAME,ON,F,97,16,JOL,User,-,"How likely are you to correctly recall the items below?|Type your response on a scale from 0-100 and then press Enter.",Study/JOL,"Study Phase",136,,,-1,-1,,,,,1
jljlj,zv0nhzz2uu,Emily_Honors_Thesis_Part_2,1,75,2020-03-25T15:44:02+00:00,0.33139300346375,13,versionA_stim_BACKWARD.csv,BACKWARD_READ_JOLVersionA.csv,"BACKWARD READ VERSION A",NEW,RIGHTS,EQUAL,ON,S,137,85,JOL,User,-,"How likely are you to correctly recall the items below?|Type your response on a scale from 0-100 and then press Enter.",Study/JOL,"Study Phase",133,,,-1,-1,,,,,1
jljlj,zv0nhzz2uu,Emily_Honors_Thesis_Part_2,1,76,2020-03-25T15:44:02+00:00,0.34475898742676,13,versionA_stim_BACKWARD.csv,BACKWARD_READ_JOLVersionA.csv,"BACKWARD READ VERSION A",NEW,PAW,DOG,ON,F,15,36,JOL,User,-,"How likely are you to correctly recall the items below?|Type your response on a scale from 0-100 and then press Enter.",Study/JOL,"Study Phase",145,,,-1,-1,,,,,1
jljlj,zv0nhzz2uu,Emily_Honors_Thesis_Part_2,1,77,2020-03-25T15:44:03+00:00,0.32530117034912,13,versionA_stim_BACKWARD.csv,BACKWARD_READ_JOLVersionA.csv,"BACKWARD READ VERSION A",NEW,TURN,FLIP,ON,B,116,28,JOL,User,-,"How likely are you to correctly recall the items below?|Type your response on a scale from 0-100 and then press Enter.",Study/JOL,"Study Phase",131,,,-1,-1,,,,,1
jljlj,zv0nhzz2uu,Emily_Honors_Thesis_Part_2,1,78,2020-03-25T15:44:03+00:00,0.37005877494812,13,versionA_stim_BACKWARD.csv,BACKWARD_READ_JOLVersionA.csv,"BACKWARD READ VERSION A",NEW,BALL,RACKET,ON,B,38,67,JOL,User,-,"How likely are you to correctly recall the items below?|Type your response on a scale from 0-100 and then press Enter.",Study/JOL,"Study Phase",178,,,-1,-1,,,,,1
jljlj,zv0nhzz2uu,Emily_Honors_Thesis_Part_2,1,79,2020-03-25T15:44:04+00:00,0.35060715675354,13,versionA_stim_BACKWARD.csv,BACKWARD_READ_JOLVersionA.csv,"BACKWARD READ VERSION A",NEW,SHOE,FOOT,ON,S,60,78,JOL,User,-,"How likely are you to correctly recall the items below?|Type your response on a scale from 0-100 and then press Enter.",Study/JOL,"Study Phase",142,,,-1,-1,,,,,1
jljlj,zv0nhzz2uu,Emily_Honors_Thesis_Part_2,1,80,2020-03-25T15:44:04+00:00,0.34970998764038,13,versionA_stim_BACKWARD.csv,BACKWARD_READ_JOLVersionA.csv,"BACKWARD READ VERSION A",NEW,EARTH,GROUND,ON,S,144,45,JOL,User,-,"How likely are you to correctly recall the items below?|Type your response on a scale from 0-100 and then press Enter.",Study/JOL,"Study Phase",107,,,-1,-1,,,,,1
jljlj,zv0nhzz2uu,Emily_Honors_Thesis_Part_2,1,81,2020-03-25T15:44:04+00:00,0.4204580783844,13,versionA_stim_BACKWARD.csv,BACKWARD_READ_JOLVersionA.csv,"BACKWARD READ VERSION A",NEW,SUGAR,RIDDLE,ON,U,81,9,JOL,User,-,"How likely are you to correctly recall the items below?|Type your response on a scale from 0-100 and then press Enter.",Study/JOL,"Study Phase",195,,,-1,-1,,,,,1
jljlj,zv0nhzz2uu,Emily_Honors_Thesis_Part_2,1,82,2020-03-25T15:44:05+00:00,0.36283493041992,13,versionA_stim_BACKWARD.csv,BACKWARD_READ_JOLVersionA.csv,"BACKWARD READ VERSION A",NEW,BATHROOM,TOILET,ON,S,58,64,JOL,User,-,"How likely are you to correctly recall the items below?|Type your response on a scale from 0-100 and then press Enter.",Study/JOL,"Study Phase",156,,,-1,-1,,,,,1
jljlj,zv0nhzz2uu,Emily_Honors_Thesis_Part_2,1,83,2020-03-25T15:44:05+00:00,0.35741496086121,13,versionA_stim_BACKWARD.csv,BACKWARD_READ_JOLVersionA.csv,"BACKWARD READ VERSION A",NEW,BUG,WASP,ON,B,32,22,JOL,User,-,"How likely are you to correctly recall the items below?|Type your response on a scale from 0-100 and then press Enter.",Study/JOL,"Study Phase",123,,,-1,-1,,,,,1
jljlj,zv0nhzz2uu,Emily_Honors_Thesis_Part_2,1,84,2020-03-25T15:44:05+00:00,0.36864805221558,13,versionA_stim_BACKWARD.csv,BACKWARD_READ_JOLVersionA.csv,"BACKWARD READ VERSION A",NEW,GIVE,STEAK,ON,U,158,83,JOL,User,-,"How likely are you to correctly recall the items below?|Type your response on a scale from 0-100 and then press Enter.",Study/JOL,"Study Phase",121,,,-1,-1,,,,,1
jljlj,zv0nhzz2uu,Emily_Honors_Thesis_Part_2,1,85,2020-03-25T15:44:06+00:00,0.37690997123718,13,versionA_stim_BACKWARD.csv,BACKWARD_READ_JOLVersionA.csv,"BACKWARD READ VERSION A",NEW,FISH,SARDINE,ON,B,130,54,JOL,User,-,"How likely are you to correctly recall the items below?|Type your response on a scale from 0-100 and then press Enter.",Study/JOL,"Study Phase",179,,,-1,-1,,,,,1
jljlj,zv0nhzz2uu,Emily_Honors_Thesis_Part_2,1,86,2020-03-25T15:44:06+00:00,0.37844300270081,13,versionA_stim_BACKWARD.csv,BACKWARD_READ_JOLVersionA.csv,"BACKWARD READ VERSION A",NEW,PADDLE,ROW,ON,PRACTICE,184,69,JOL,User,-,"How likely are you to correctly recall the items below?|Type your response on a scale from 0-100 and then press Enter.",Study/JOL,"Study Phase",146,,,-1,-1,,,,,1
jljlj,zv0nhzz2uu,Emily_Honors_Thesis_Part_2,1,87,2020-03-25T15:44:06+00:00,0.3156418800354,13,versionA_stim_BACKWARD.csv,BACKWARD_READ_JOLVersionA.csv,"BACKWARD READ VERSION A",NEW,VEHICLE,CHARM,ON,U,160,34,JOL,User,-,"How likely are you to correctly recall the items below?|Type your response on a scale from 0-100 and then press Enter.",Study/JOL,"Study Phase",92,,,-1,-1,,,,,1
jljlj,zv0nhzz2uu,Emily_Honors_Thesis_Part_2,1,88,2020-03-25T15:44:07+00:00,0.34035301208496,13,versionA_stim_BACKWARD.csv,BACKWARD_READ_JOLVersionA.csv,"BACKWARD READ VERSION A",NEW,HIDE,SICK,ON,U,84,82,JOL,User,-,"How likely are you to correctly recall the items below?|Type your response on a scale from 0-100 and then press Enter.",Study/JOL,"Study Phase",137,,,-1,-1,,,,,1
jljlj,zv0nhzz2uu,Emily_Honors_Thesis_Part_2,1,89,2020-03-25T15:44:07+00:00,0.39429616928101,13,versionA_stim_BACKWARD.csv,BACKWARD_READ_JOLVersionA.csv,"BACKWARD READ VERSION A",NEW,PLANE,PILOT,ON,B,44,20,JOL,User,-,"How likely are you to correctly recall the items below?|Type your response on a scale from 0-100 and then press Enter.",Study/JOL,"Study Phase",167,,,-1,-1,,,,,1
jljlj,zv0nhzz2uu,Emily_Honors_Thesis_Part_2,1,90,2020-03-25T15:44:08+00:00,0.34483098983765,13,versionA_stim_BACKWARD.csv,BACKWARD_READ_JOLVersionA.csv,"BACKWARD READ VERSION A",NEW,CHERRY,RED,ON,F,104,23,JOL,User,-,"How likely are you to correctly recall the items below?|Type your response on a scale from 0-100 and then press Enter.",Study/JOL,"Study Phase",134,,,-1,-1,,,,,1
jljlj,zv0nhzz2uu,Emily_Honors_Thesis_Part_2,1,91,2020-03-25T15:44:08+00:00,0.43107986450195,13,versionA_stim_BACKWARD.csv,BACKWARD_READ_JOLVersionA.csv,"BACKWARD READ VERSION A",NEW,SENTENCE,WORD,ON,B,31,77,JOL,User,-,"How likely are you to correctly recall the items below?|Type your response on a scale from 0-100 and then press Enter.",Study/JOL,"Study Phase",229,,,-1,-1,,,,,1
jljlj,zv0nhzz2uu,Emily_Honors_Thesis_Part_2,1,92,2020-03-25T15:44:08+00:00,0.33524203300476,13,versionA_stim_BACKWARD.csv,BACKWARD_READ_JOLVersionA.csv,"BACKWARD READ VERSION A",NEW,GEOLOGY,ROCK,ON,F,19,41,JOL,User,-,"How likely are you to correctly recall the items below?|Type your response on a scale from 0-100 and then press Enter.",Study/JOL,"Study Phase",143,,,-1,-1,,,,,1
jljlj,zv0nhzz2uu,Emily_Honors_Thesis_Part_2,1,93,2020-03-25T15:44:09+00:00,0.34414291381836,13,versionA_stim_BACKWARD.csv,BACKWARD_READ_JOLVersionA.csv,"BACKWARD READ VERSION A",NEW,MIRROR,CHILDREN,ON,U,174,15,JOL,User,-,"How likely are you to correctly recall the items below?|Type your response on a scale from 0-100 and then press Enter.",Study/JOL,"Study Phase",152,,,-1,-1,,,,,1
jljlj,zv0nhzz2uu,Emily_Honors_Thesis_Part_2,1,94,2020-03-25T15:44:09+00:00,0.34039115905762,13,versionA_stim_BACKWARD.csv,BACKWARD_READ_JOLVersionA.csv,"BACKWARD READ VERSION A",NEW,TAKE,SEIZE,ON,B,29,81,JOL,User,-,"How likely are you to correctly recall the items below?|Type your response on a scale from 0-100 and then press Enter.",Study/JOL,"Study Phase",101,,,-1,-1,,,,,1
jljlj,zv0nhzz2uu,Emily_Honors_Thesis_Part_2,1,95,2020-03-25T15:44:10+00:00,0.52234292030334,13,versionA_stim_BACKWARD.csv,BACKWARD_READ_JOLVersionA.csv,"BACKWARD READ VERSION A",NEW,DRIVER,CAR,ON,F,106,47,JOL,User,-,"How likely are you to correctly recall the items below?|Type your response on a scale from 0-100 and then press Enter.",Study/JOL,"Study Phase",268,,,-1,-1,,,,,1
jljlj,zv0nhzz2uu,Emily_Honors_Thesis_Part_2,1,96,2020-03-25T15:44:10+00:00,0.41330599784851,13,versionA_stim_BACKWARD.csv,BACKWARD_READ_JOLVersionA.csv,"BACKWARD READ VERSION A",NEW,BAD,VILLAIN,ON,B,118,80,JOL,User,-,"How likely are you to correctly recall the items below?|Type your response on a scale from 0-100 and then press Enter.",Study/JOL,"Study Phase",56,,,-1,-1,,,,,1
jljlj,zv0nhzz2uu,Emily_Honors_Thesis_Part_2,1,97,2020-03-25T15:44:10+00:00,0.48717594146729,13,versionA_stim_BACKWARD.csv,BACKWARD_READ_JOLVersionA.csv,"BACKWARD READ VERSION A",NEW,DUMP,WASTE,ON,S,49,39,JOL,User,-,"How likely are you to correctly recall the items below?|Type your response on a scale from 0-100 and then press Enter.",Study/JOL,"Study Phase",266,,,-1,-1,,,,,1
jljlj,zv0nhzz2uu,Emily_Honors_Thesis_Part_2,1,98,2020-03-25T15:44:11+00:00,0.40607118606567,13,versionA_stim_BACKWARD.csv,BACKWARD_READ_JOLVersionA.csv,"BACKWARD READ VERSION A",NEW,DEAD,COFFIN,ON,B,128,66,JOL,User,-,"How likely are you to correctly recall the items below?|Type your response on a scale from 0-100 and then press Enter.",Study/JOL,"Study Phase",207,,,-1,-1,,,,,1
jljlj,zv0nhzz2uu,Emily_Honors_Thesis_Part_2,1,99,2020-03-25T15:44:11+00:00,0.38542580604553,13,versionA_stim_BACKWARD.csv,BACKWARD_READ_JOLVersionA.csv,"BACKWARD READ VERSION A",NEW,DUE,ASSIGNMENT,ON,S,46,53,JOL,User,-,"How likely are you to correctly recall the items below?|Type your response on a scale from 0-100 and then press Enter.",Study/JOL,"Study Phase",188,,,-1,-1,,,,,1
jljlj,zv0nhzz2uu,Emily_Honors_Thesis_Part_2,1,100,2020-03-25T15:44:14+00:00,2.6405930519104,13,versionA_stim_BACKWARD.csv,BACKWARD_READ_JOLVersionA.csv,"BACKWARD READ VERSION A",NEW,WINE,CHEESE,ON,S,57,68,JOL,User,-,"How likely are you to correctly recall the items below?|Type your response on a scale from 0-100 and then press Enter.",Study/JOL,"Study Phase",395,,,-1,-1,,,,,1
jljlj,zv0nhzz2uu,Emily_Honors_Thesis_Part_2,1,101,2020-03-25T15:44:14+00:00,0.37978005409241,13,versionA_stim_BACKWARD.csv,BACKWARD_READ_JOLVersionA.csv,"BACKWARD READ VERSION A",NEW,THREAD,THIMBLE,ON,B,121,31,JOL,User,-,"How likely are you to correctly recall the items below?|Type your response on a scale from 0-100 and then press Enter.",Study/JOL,"Study Phase",100,,,-1,-1,,,,,1
jljlj,zv0nhzz2uu,Emily_Honors_Thesis_Part_2,1,102,2020-03-25T15:44:15+00:00,0.38060092926025,13,versionA_stim_BACKWARD.csv,BACKWARD_READ_JOLVersionA.csv,"BACKWARD READ VERSION A",NEW,SHERRIF,POLICE,OFF,Buffer,87,88,JOL,User,-,"How likely are you to correctly recall the items below?|Type your response on a scale from 0-100 and then press Enter.",Study/JOL,BUFFER2,146,,,-1,-1,,,,,1
jljlj,zv0nhzz2uu,Emily_Honors_Thesis_Part_2,1,103,2020-03-25T15:44:15+00:00,0.38183808326721,13,versionA_stim_BACKWARD.csv,BACKWARD_READ_JOLVersionA.csv,"BACKWARD READ VERSION A",NEW,THING,STUFF,OFF,Buffer,90,91,JOL,User,-,"How likely are you to correctly recall the items below?|Type your response on a scale from 0-100 and then press Enter.",Study/JOL,BUFFER2,144,,,-1,-1,,,,,1
jljlj,zv0nhzz2uu,Emily_Honors_Thesis_Part_2,1,104,2020-03-25T15:44:16+00:00,0.6661639213562,13,versionA_stim_BACKWARD.csv,BACKWARD_READ_JOLVersionA.csv,"BACKWARD READ VERSION A",NEW,MOON,SPACE,OFF,Buffer,89,90,JOL,User,-,"How likely are you to correctly recall the items below?|Type your response on a scale from 0-100 and then press Enter.",Study/JOL,BUFFER2,445,,,-1,-1,,,,,1
jljlj,zv0nhzz2uu,Emily_Honors_Thesis_Part_2,1,105,2020-03-25T15:44:16+00:00,0.6344530582428,13,versionA_stim_BACKWARD.csv,BACKWARD_READ_JOLVersionA.csv,"BACKWARD READ VERSION A",NEW,GEESE,GOOSE,OFF,Buffer,86,87,JOL,User,-,"How likely are you to correctly recall the items below?|Type your response on a scale from 0-100 and then press Enter.",Study/JOL,BUFFER2,421,,,-1,-1,,,,,1
jljlj,zv0nhzz2uu,Emily_Honors_Thesis_Part_2,1,106,2020-03-25T15:44:17+00:00,0.58039093017578,13,versionA_stim_BACKWARD.csv,BACKWARD_READ_JOLVersionA.csv,"BACKWARD READ VERSION A",NEW,MALT,CHOCOLATE,OFF,Buffer,88,89,JOL,User,-,"How likely are you to correctly recall the items below?|Type your response on a scale from 0-100 and then press Enter.",Study/JOL,BUFFER2,367,,,-1,-1,,,,,1
jljlj,zv0nhzz2uu,Emily_Honors_Thesis_Part_2,1,107,2020-03-25T15:44:18+00:00,0.99883317947388,13,versionA_stim_BACKWARD.csv,BACKWARD_READ_JOLVersionA.csv,"BACKWARD READ VERSION A",NEW,,,,,,0,Instruct,User,-,"You have completed this section. Please press Enter.",Filler_Instruction,Instruct2,797,,,-1,-1,,,,,1
jljlj,zv0nhzz2uu,Emily_Honors_Thesis_Part_2,1,108,2020-03-25T15:44:31+00:00,12.831939935684,13,versionA_stim_BACKWARD.csv,BACKWARD_READ_JOLVersionA.csv,"BACKWARD READ VERSION A",NEW,,,,,,0,FreeRecall,-,10,"Based on the graph you just studied,",,Filler1,12593," ",0,-1,-1,0,0,,,1
jljlj,zv0nhzz2uu,Emily_Honors_Thesis_Part_2,1,109,2020-03-25T15:44:42+00:00,10.901557922363,13,versionA_stim_BACKWARD.csv,BACKWARD_READ_JOLVersionA.csv,"BACKWARD READ VERSION A",NEW,,,,,,0,Instruct,-,10,"You will now be presented with the first word from each of the previously studied item pairs. Please type the missing word. If you do not know the word, you may guess or press Enter to skip forward to the next pair.",,Instruct3,10685,,,-1,-1,,,,,1
