Username,ID,ExperimentName,Session,Trial,Date,TimeDif,"Condition Number","Stimuli File","Order File","Condition Description","Condition Notes",Stimuli*Cue,Stimuli*Answer,Stimuli*Shuffle,"Stimuli*Stimuli Notes",Stimuli*Value,Procedure*Item,"Procedure*Trial Type","Procedure*Max Time","Procedure*Min Time",Procedure*Text,"Procedure*Procedure Notes",Procedure*Shuffle,Response*RT,Response*Response,Response*Accuracy,Response*RTfirst,Response*RTlast,Response*strictAcc,Response*lenientAcc,Response*focus,Response*JOL,Response*Focus
5db8a4f15f7e1a000a20d09c,mzs4vm5loc,Emily_Honors_Thesis_Part_2,1,1,2020-08-29T10:44:57-07:00,13.861896038055,5,versionA_stim.csv,IS_JOLVersionA.csv,"ITEM SPECIFIC Version A",OLD,,,,,,0,Instruct,-,10,"In this section, you will be presented with a series of word pairs. As you study, you will be asked to rate your ability to remember the second item in the pair if you were only shown the first at test. You will make these ratings using a 0 to 100 Scale.",,Instruct13,11334,,,-1,-1,,,,,1
5db8a4f15f7e1a000a20d09c,mzs4vm5loc,Emily_Honors_Thesis_Part_2,1,2,2020-08-29T10:45:09-07:00,12.120115995407,5,versionA_stim.csv,IS_JOLVersionA.csv,"ITEM SPECIFIC Version A",OLD,,,,,,0,Instruct,-,10,"For example, if you are given the pair CAT - DOG, a rating of 0 indicates that you would not remember DOG at test, while a rating of 100 indicates full certainty that you would remember the word DOG at test.",,Instruct14,10803,,,-1,-1,,,,,1
5db8a4f15f7e1a000a20d09c,mzs4vm5loc,Emily_Honors_Thesis_Part_2,1,3,2020-08-29T10:45:21-07:00,12.167101860046,5,versionA_stim.csv,IS_JOLVersionA.csv,"ITEM SPECIFIC Version A",OLD,,,,,,0,Instruct,-,10,"When making these ratings, it is criticial that you use the full range of the scale. You will be disqualified for only giving ratings of 0 or 100! After making your rating, press Enter to advance to the next pair.",,Instruct15,10888,,,-1,-1,,,,,1
5db8a4f15f7e1a000a20d09c,mzs4vm5loc,Emily_Honors_Thesis_Part_2,1,4,2020-08-29T10:45:39-07:00,17.188848018646,5,versionA_stim.csv,IS_JOLVersionA.csv,"ITEM SPECIFIC Version A",OLD,,,,,,0,Instruct,-,15,"As you study and make your ratings, please think about the unique featues of each item and how the two concepts are DIFFERENT from each other. For example, if you see the pair TURTLE-CAT, think about how TURTLES have shells and are reptiles, while CATS are mammals and have fur.",,Instruct19,15784,,,-1,-1,,,,,1
5db8a4f15f7e1a000a20d09c,mzs4vm5loc,Emily_Honors_Thesis_Part_2,1,5,2020-08-29T10:46:10-07:00,31.728442192078,5,versionA_stim.csv,IS_JOLVersionA.csv,"ITEM SPECIFIC Version A",OLD,,,,,,0,FreeRecall,-,10,"What you should think about as you study each item pair? Type your response in the box below.",,CHECK1,30355,"Differences between each thing in the pair",0,8436,28018,0,0,,,1
5db8a4f15f7e1a000a20d09c,mzs4vm5loc,Emily_Honors_Thesis_Part_2,1,6,2020-08-29T10:46:17-07:00,7.0242168903351,5,versionA_stim.csv,IS_JOLVersionA.csv,"ITEM SPECIFIC Version A",OLD,,,,,,0,Instruct,-,5,"You will now complete a practice session. Please study the following items and rate your ability to remember them. Remember to think about how the two items are unique!",,Instruct17,5706,,,-1,-1,,,,,1
5db8a4f15f7e1a000a20d09c,mzs4vm5loc,Emily_Honors_Thesis_Part_2,1,7,2020-08-29T10:46:36-07:00,18.253900051117,5,versionA_stim.csv,IS_JOLVersionA.csv,"ITEM SPECIFIC Version A",OLD,HAM,BONE,PRACTICE,PRACTICE,183,185,JOL,User,-,"How likely are you to correctly recall the second item in the pair?|Type your response on a scale from 0-100 and then press Enter.",Study/JOL,PRACTICE,16951,,,13878,14354,,,,25,1
5db8a4f15f7e1a000a20d09c,mzs4vm5loc,Emily_Honors_Thesis_Part_2,1,8,2020-08-29T10:46:55-07:00,19.058428049088,5,versionA_stim.csv,IS_JOLVersionA.csv,"ITEM SPECIFIC Version A",OLD,CHOCOLATE,BAR,PRACTICE,PRACTICE,187,189,JOL,User,-,"How likely are you to correctly recall the second item in the pair?|Type your response on a scale from 0-100 and then press Enter.",Study/JOL,PRACTICE,17717,,,11058,17327,,,,40,1
5db8a4f15f7e1a000a20d09c,mzs4vm5loc,Emily_Honors_Thesis_Part_2,1,9,2020-08-29T10:47:03-07:00,8.2289278507233,5,versionA_stim.csv,IS_JOLVersionA.csv,"ITEM SPECIFIC Version A",OLD,FASHION,MODEL,PRACTICE,PRACTICE,190,182,JOL,User,-,"How likely are you to correctly recall the second item in the pair?|Type your response on a scale from 0-100 and then press Enter.",Study/JOL,PRACTICE,5598,,,3897,5125,,,,80,1
5db8a4f15f7e1a000a20d09c,mzs4vm5loc,Emily_Honors_Thesis_Part_2,1,10,2020-08-29T10:47:10-07:00,7.3619601726532,5,versionA_stim.csv,IS_JOLVersionA.csv,"ITEM SPECIFIC Version A",OLD,DISBELIEVE,SKEPTIC,PRACTICE,PRACTICE,186,184,JOL,User,-,"How likely are you to correctly recall the second item in the pair?|Type your response on a scale from 0-100 and then press Enter.",Study/JOL,PRACTICE,5955,,,4036,5611,,,,75,1
5db8a4f15f7e1a000a20d09c,mzs4vm5loc,Emily_Honors_Thesis_Part_2,1,11,2020-08-29T10:47:15-07:00,4.7912719249725,5,versionA_stim.csv,IS_JOLVersionA.csv,"ITEM SPECIFIC Version A",OLD,PADDLE,ROW,PRACTICE,PRACTICE,184,190,JOL,User,-,"How likely are you to correctly recall the second item in the pair?|Type your response on a scale from 0-100 and then press Enter.",Study/JOL,PRACTICE,3503,,,3131,3204,,,,70,1
5db8a4f15f7e1a000a20d09c,mzs4vm5loc,Emily_Honors_Thesis_Part_2,1,12,2020-08-29T10:47:21-07:00,5.8014578819275,5,versionA_stim.csv,IS_JOLVersionA.csv,"ITEM SPECIFIC Version A",OLD,HINGE,SWING,PRACTICE,PRACTICE,185,186,JOL,User,-,"How likely are you to correctly recall the second item in the pair?|Type your response on a scale from 0-100 and then press Enter.",Study/JOL,PRACTICE,4571,,,4099,4099,,,,0,1
5db8a4f15f7e1a000a20d09c,mzs4vm5loc,Emily_Honors_Thesis_Part_2,1,13,2020-08-29T10:47:29-07:00,7.6834971904755,5,versionA_stim.csv,IS_JOLVersionA.csv,"ITEM SPECIFIC Version A",OLD,DEAF,MUTE,PRACTICE,PRACTICE,182,187,JOL,User,-,"How likely are you to correctly recall the second item in the pair?|Type your response on a scale from 0-100 and then press Enter.",Study/JOL,PRACTICE,6441,,,3156,6099,,,,100,1
5db8a4f15f7e1a000a20d09c,mzs4vm5loc,Emily_Honors_Thesis_Part_2,1,14,2020-08-29T10:47:35-07:00,6.3313608169556,5,versionA_stim.csv,IS_JOLVersionA.csv,"ITEM SPECIFIC Version A",OLD,AARDVARK,ZOO,PRACTICE,PRACTICE,181,191,JOL,User,-,"How likely are you to correctly recall the second item in the pair?|Type your response on a scale from 0-100 and then press Enter.",Study/JOL,PRACTICE,5072,,,4366,4575,,,,90,1
5db8a4f15f7e1a000a20d09c,mzs4vm5loc,Emily_Honors_Thesis_Part_2,1,15,2020-08-29T10:47:40-07:00,5.3541541099548,5,versionA_stim.csv,IS_JOLVersionA.csv,"ITEM SPECIFIC Version A",OLD,BEHAVIOR,SOCIAL,PRACTICE,PRACTICE,189,188,JOL,User,-,"How likely are you to correctly recall the second item in the pair?|Type your response on a scale from 0-100 and then press Enter.",Study/JOL,PRACTICE,4134,,,3248,3793,,,,60,1
5db8a4f15f7e1a000a20d09c,mzs4vm5loc,Emily_Honors_Thesis_Part_2,1,16,2020-08-29T10:47:46-07:00,5.4617559909821,5,versionA_stim.csv,IS_JOLVersionA.csv,"ITEM SPECIFIC Version A",OLD,CHIME,MUSIC,PRACTICE,PRACTICE,188,183,JOL,User,-,"How likely are you to correctly recall the second item in the pair?|Type your response on a scale from 0-100 and then press Enter.",Study/JOL,PRACTICE,4178,,,3015,3840,,,,70,1
5db8a4f15f7e1a000a20d09c,mzs4vm5loc,Emily_Honors_Thesis_Part_2,1,17,2020-08-29T10:47:50-07:00,4.6145129203796,5,versionA_stim.csv,IS_JOLVersionA.csv,"ITEM SPECIFIC Version A",OLD,,,,,,0,Instruct,User,-,"You have completed this section. Please press Enter to continue.",,Instruct18,3298,,,-1,-1,,,,,1
5db8a4f15f7e1a000a20d09c,mzs4vm5loc,Emily_Honors_Thesis_Part_2,1,18,2020-08-29T10:47:55-07:00,4.192018032074,5,versionA_stim.csv,IS_JOLVersionA.csv,"ITEM SPECIFIC Version A",OLD,,,,,,0,Instruct,User,-,"You will now begin the study. Press Enter when you are ready to begin.",,Instruct16,2909,,,-1,-1,,,,,1
5db8a4f15f7e1a000a20d09c,mzs4vm5loc,Emily_Honors_Thesis_Part_2,1,19,2020-08-29T10:48:04-07:00,9.7401449680328,5,versionA_stim.csv,IS_JOLVersionA.csv,"ITEM SPECIFIC Version A",OLD,BASEBALL,CATCHER,Buffer,Buffer,2,3,JOL,User,-,"How likely are you to correctly recall the second item in the pair?|Type your response on a scale from 0-100 and then press Enter.",Study/JOL,BUFFER,8411,,,5262,8129,,,,80,1
5db8a4f15f7e1a000a20d09c,mzs4vm5loc,Emily_Honors_Thesis_Part_2,1,20,2020-08-29T10:48:09-07:00,4.9168281555176,5,versionA_stim.csv,IS_JOLVersionA.csv,"ITEM SPECIFIC Version A",OLD,SCARE,HIDE,Buffer,Buffer,4,4,JOL,User,-,"How likely are you to correctly recall the second item in the pair?|Type your response on a scale from 0-100 and then press Enter.",Study/JOL,BUFFER,3725,,,2425,3557,,,,95,1
5db8a4f15f7e1a000a20d09c,mzs4vm5loc,Emily_Honors_Thesis_Part_2,1,21,2020-08-29T10:48:13-07:00,3.8709998130798,5,versionA_stim.csv,IS_JOLVersionA.csv,"ITEM SPECIFIC Version A",OLD,PEANUT,BUTTER,Buffer,Buffer,3,5,JOL,User,-,"How likely are you to correctly recall the second item in the pair?|Type your response on a scale from 0-100 and then press Enter.",Study/JOL,BUFFER,2691,,,1956,2322,,,,100,1
5db8a4f15f7e1a000a20d09c,mzs4vm5loc,Emily_Honors_Thesis_Part_2,1,22,2020-08-29T10:48:19-07:00,6.2093551158905,5,versionA_stim.csv,IS_JOLVersionA.csv,"ITEM SPECIFIC Version A",OLD,TREES,GREEN,Buffer,Buffer,1,6,JOL,User,-,"How likely are you to correctly recall the second item in the pair?|Type your response on a scale from 0-100 and then press Enter.",Study/JOL,BUFFER,4570,,,3481,4220,,,,98,1
5db8a4f15f7e1a000a20d09c,mzs4vm5loc,Emily_Honors_Thesis_Part_2,1,23,2020-08-29T10:48:24-07:00,4.3212890625,5,versionA_stim.csv,IS_JOLVersionA.csv,"ITEM SPECIFIC Version A",OLD,SPACE,JAM,Buffer,Buffer,5,2,JOL,User,-,"How likely are you to correctly recall the second item in the pair?|Type your response on a scale from 0-100 and then press Enter.",Study/JOL,BUFFER,3001,,,2450,2450,,,,0,1
5db8a4f15f7e1a000a20d09c,mzs4vm5loc,Emily_Honors_Thesis_Part_2,1,24,2020-08-29T10:48:30-07:00,6.8398258686066,5,versionA_stim.csv,IS_JOLVersionA.csv,"ITEM SPECIFIC Version A",OLD,DEBATE,SIGHT,ON,U,73,9,JOL,User,-,"How likely are you to correctly recall the second item in the pair?|Type your response on a scale from 0-100 and then press Enter.",Study/JOL,"Study Phase",5612,,,4961,4961,,,,0,1
5db8a4f15f7e1a000a20d09c,mzs4vm5loc,Emily_Honors_Thesis_Part_2,1,25,2020-08-29T10:48:36-07:00,5.8832850456238,5,versionA_stim.csv,IS_JOLVersionA.csv,"ITEM SPECIFIC Version A",OLD,MACHINE,POSITION,ON,U,76,66,JOL,User,-,"How likely are you to correctly recall the second item in the pair?|Type your response on a scale from 0-100 and then press Enter.",Study/JOL,"Study Phase",4674,,,3150,3150,,,,1,1
5db8a4f15f7e1a000a20d09c,mzs4vm5loc,Emily_Honors_Thesis_Part_2,1,26,2020-08-29T10:48:44-07:00,7.1705770492554,5,versionA_stim.csv,IS_JOLVersionA.csv,"ITEM SPECIFIC Version A",OLD,CHISEL,HAMMER,ON,F,9,11,JOL,User,-,"How likely are you to correctly recall the second item in the pair?|Type your response on a scale from 0-100 and then press Enter.",Study/JOL,"Study Phase",5746,,,3132,5397,,,,70,1
5db8a4f15f7e1a000a20d09c,mzs4vm5loc,Emily_Honors_Thesis_Part_2,1,27,2020-08-29T10:48:48-07:00,4.7544069290161,5,versionA_stim.csv,IS_JOLVersionA.csv,"ITEM SPECIFIC Version A",OLD,TAKE,SEIZE,ON,B,29,42,JOL,User,-,"How likely are you to correctly recall the second item in the pair?|Type your response on a scale from 0-100 and then press Enter.",Study/JOL,"Study Phase",3478,,,2982,3193,,,,80,1
5db8a4f15f7e1a000a20d09c,mzs4vm5loc,Emily_Honors_Thesis_Part_2,1,28,2020-08-29T10:48:52-07:00,3.68439412117,5,versionA_stim.csv,IS_JOLVersionA.csv,"ITEM SPECIFIC Version A",OLD,DARK,CAVE,ON,B,28,69,JOL,User,-,"How likely are you to correctly recall the second item in the pair?|Type your response on a scale from 0-100 and then press Enter.",Study/JOL,"Study Phase",2479,,,2043,2195,,,,60,1
5db8a4f15f7e1a000a20d09c,mzs4vm5loc,Emily_Honors_Thesis_Part_2,1,29,2020-08-29T10:48:57-07:00,4.585159778595,5,versionA_stim.csv,IS_JOLVersionA.csv,"ITEM SPECIFIC Version A",OLD,DUMP,WASTE,ON,S,49,74,JOL,User,-,"How likely are you to correctly recall the second item in the pair?|Type your response on a scale from 0-100 and then press Enter.",Study/JOL,"Study Phase",3388,,,2910,3113,,,,90,1
5db8a4f15f7e1a000a20d09c,mzs4vm5loc,Emily_Honors_Thesis_Part_2,1,30,2020-08-29T10:49:03-07:00,6.1696012020111,5,versionA_stim.csv,IS_JOLVersionA.csv,"ITEM SPECIFIC Version A",OLD,SLEEP,DROWSY,ON,B,41,37,JOL,User,-,"How likely are you to correctly recall the second item in the pair?|Type your response on a scale from 0-100 and then press Enter.",Study/JOL,"Study Phase",4928,,,3845,4657,,,,100,1
5db8a4f15f7e1a000a20d09c,mzs4vm5loc,Emily_Honors_Thesis_Part_2,1,31,2020-08-29T10:49:07-07:00,4.1875519752502,5,versionA_stim.csv,IS_JOLVersionA.csv,"ITEM SPECIFIC Version A",OLD,MATH,DIVISION,ON,B,33,79,JOL,User,-,"How likely are you to correctly recall the second item in the pair?|Type your response on a scale from 0-100 and then press Enter.",Study/JOL,"Study Phase",2865,,,2384,2495,,,,40,1
5db8a4f15f7e1a000a20d09c,mzs4vm5loc,Emily_Honors_Thesis_Part_2,1,32,2020-08-29T10:49:18-07:00,10.973562002182,5,versionA_stim.csv,IS_JOLVersionA.csv,"ITEM SPECIFIC Version A",OLD,PLANE,PILOT,ON,B,44,14,JOL,User,-,"How likely are you to correctly recall the second item in the pair?|Type your response on a scale from 0-100 and then press Enter.",Study/JOL,"Study Phase",9822,,,9261,9449,,,,80,1
5db8a4f15f7e1a000a20d09c,mzs4vm5loc,Emily_Honors_Thesis_Part_2,1,33,2020-08-29T10:49:23-07:00,5.4737529754639,5,versionA_stim.csv,IS_JOLVersionA.csv,"ITEM SPECIFIC Version A",OLD,GEOLOGY,ROCK,ON,F,19,24,JOL,User,-,"How likely are you to correctly recall the second item in the pair?|Type your response on a scale from 0-100 and then press Enter.",Study/JOL,"Study Phase",4143,,,3661,3768,,,,30,1
5db8a4f15f7e1a000a20d09c,mzs4vm5loc,Emily_Honors_Thesis_Part_2,1,34,2020-08-29T10:49:30-07:00,6.2468709945679,5,versionA_stim.csv,IS_JOLVersionA.csv,"ITEM SPECIFIC Version A",OLD,MEANING,DEFINITION,ON,S,62,59,JOL,User,-,"How likely are you to correctly recall the second item in the pair?|Type your response on a scale from 0-100 and then press Enter.",Study/JOL,"Study Phase",4994,,,2076,4733,,,,95,1
5db8a4f15f7e1a000a20d09c,mzs4vm5loc,Emily_Honors_Thesis_Part_2,1,35,2020-08-29T10:49:35-07:00,5.3016738891602,5,versionA_stim.csv,IS_JOLVersionA.csv,"ITEM SPECIFIC Version A",OLD,DISCOVER,FLOOR,ON,U,71,56,JOL,User,-,"How likely are you to correctly recall the second item in the pair?|Type your response on a scale from 0-100 and then press Enter.",Study/JOL,"Study Phase",3972,,,3425,3425,,,,0,1
5db8a4f15f7e1a000a20d09c,mzs4vm5loc,Emily_Honors_Thesis_Part_2,1,36,2020-08-29T10:49:41-07:00,6.5829901695251,5,versionA_stim.csv,IS_JOLVersionA.csv,"ITEM SPECIFIC Version A",OLD,REVOLUTION,WAR,ON,F,20,50,JOL,User,-,"How likely are you to correctly recall the second item in the pair?|Type your response on a scale from 0-100 and then press Enter.",Study/JOL,"Study Phase",5332,,,3459,5022,,,,15,1
5db8a4f15f7e1a000a20d09c,mzs4vm5loc,Emily_Honors_Thesis_Part_2,1,37,2020-08-29T10:49:46-07:00,4.6014518737793,5,versionA_stim.csv,IS_JOLVersionA.csv,"ITEM SPECIFIC Version A",OLD,NUMBER,AMOUNT,ON,S,47,60,JOL,User,-,"How likely are you to correctly recall the second item in the pair?|Type your response on a scale from 0-100 and then press Enter.",Study/JOL,"Study Phase",3320,,,2653,2984,,,,100,1
5db8a4f15f7e1a000a20d09c,mzs4vm5loc,Emily_Honors_Thesis_Part_2,1,38,2020-08-29T10:49:52-07:00,5.688038110733,5,versionA_stim.csv,IS_JOLVersionA.csv,"ITEM SPECIFIC Version A",OLD,CREDIT,CARD,ON,F,23,64,JOL,User,-,"How likely are you to correctly recall the second item in the pair?|Type your response on a scale from 0-100 and then press Enter.",Study/JOL,"Study Phase",4548,,,4034,4181,,,,99,1
5db8a4f15f7e1a000a20d09c,mzs4vm5loc,Emily_Honors_Thesis_Part_2,1,39,2020-08-29T10:49:57-07:00,4.875648021698,5,versionA_stim.csv,IS_JOLVersionA.csv,"ITEM SPECIFIC Version A",OLD,SWAN,BIRD,ON,F,14,30,JOL,User,-,"How likely are you to correctly recall the second item in the pair?|Type your response on a scale from 0-100 and then press Enter.",Study/JOL,"Study Phase",3570,,,3070,3246,,,,90,1
5db8a4f15f7e1a000a20d09c,mzs4vm5loc,Emily_Honors_Thesis_Part_2,1,40,2020-08-29T10:50:01-07:00,4.5161290168762,5,versionA_stim.csv,IS_JOLVersionA.csv,"ITEM SPECIFIC Version A",OLD,ARCHITECTURE,DESIGN,ON,S,51,67,JOL,User,-,"How likely are you to correctly recall the second item in the pair?|Type your response on a scale from 0-100 and then press Enter.",Study/JOL,"Study Phase",3313,,,2417,2933,,,,92,1
5db8a4f15f7e1a000a20d09c,mzs4vm5loc,Emily_Honors_Thesis_Part_2,1,41,2020-08-29T10:50:07-07:00,6.2194747924805,5,versionA_stim.csv,IS_JOLVersionA.csv,"ITEM SPECIFIC Version A",OLD,KIDNEY,LIVER,ON,S,53,73,JOL,User,-,"How likely are you to correctly recall the second item in the pair?|Type your response on a scale from 0-100 and then press Enter.",Study/JOL,"Study Phase",4958,,,3221,4763,,,,85,1
5db8a4f15f7e1a000a20d09c,mzs4vm5loc,Emily_Honors_Thesis_Part_2,1,42,2020-08-29T10:50:13-07:00,5.8094880580902,5,versionA_stim.csv,IS_JOLVersionA.csv,"ITEM SPECIFIC Version A",OLD,GREAT,FANTASTIC,ON,B,35,32,JOL,User,-,"How likely are you to correctly recall the second item in the pair?|Type your response on a scale from 0-100 and then press Enter.",Study/JOL,"Study Phase",4560,,,2981,4106,,,,45,1
5db8a4f15f7e1a000a20d09c,mzs4vm5loc,Emily_Honors_Thesis_Part_2,1,43,2020-08-29T10:50:19-07:00,6.2576060295105,5,versionA_stim.csv,IS_JOLVersionA.csv,"ITEM SPECIFIC Version A",OLD,FULL,ENOUGH,ON,B,26,33,JOL,User,-,"How likely are you to correctly recall the second item in the pair?|Type your response on a scale from 0-100 and then press Enter.",Study/JOL,"Study Phase",4960,,,4361,4552,,,,40,1
5db8a4f15f7e1a000a20d09c,mzs4vm5loc,Emily_Honors_Thesis_Part_2,1,44,2020-08-29T10:50:24-07:00,4.8726561069489,5,versionA_stim.csv,IS_JOLVersionA.csv,"ITEM SPECIFIC Version A",OLD,BUG,WASP,ON,B,32,80,JOL,User,-,"How likely are you to correctly recall the second item in the pair?|Type your response on a scale from 0-100 and then press Enter.",Study/JOL,"Study Phase",3666,,,2694,3140,,,,99,1
5db8a4f15f7e1a000a20d09c,mzs4vm5loc,Emily_Honors_Thesis_Part_2,1,45,2020-08-29T10:50:30-07:00,5.4275858402252,5,versionA_stim.csv,IS_JOLVersionA.csv,"ITEM SPECIFIC Version A",OLD,BABY,CHILD,ON,S,64,40,JOL,User,-,"How likely are you to correctly recall the second item in the pair?|Type your response on a scale from 0-100 and then press Enter.",Study/JOL,"Study Phase",4202,,,3364,3874,,,,89,1
5db8a4f15f7e1a000a20d09c,mzs4vm5loc,Emily_Honors_Thesis_Part_2,1,46,2020-08-29T10:50:37-07:00,7.3458690643311,5,versionA_stim.csv,IS_JOLVersionA.csv,"ITEM SPECIFIC Version A",OLD,LAW,ATTORNEY,ON,B,34,54,JOL,User,-,"How likely are you to correctly recall the second item in the pair?|Type your response on a scale from 0-100 and then press Enter.",Study/JOL,"Study Phase",6042,,,3834,5887,,,,76,1
5db8a4f15f7e1a000a20d09c,mzs4vm5loc,Emily_Honors_Thesis_Part_2,1,47,2020-08-29T10:50:45-07:00,7.8320460319519,5,versionA_stim.csv,IS_JOLVersionA.csv,"ITEM SPECIFIC Version A",OLD,DEATH,BUSINESS,ON,U,72,29,JOL,User,-,"How likely are you to correctly recall the second item in the pair?|Type your response on a scale from 0-100 and then press Enter.",Study/JOL,"Study Phase",6548,,,2003,5745,,,,0,1
5db8a4f15f7e1a000a20d09c,mzs4vm5loc,Emily_Honors_Thesis_Part_2,1,48,2020-08-29T10:50:50-07:00,4.6429738998413,5,versionA_stim.csv,IS_JOLVersionA.csv,"ITEM SPECIFIC Version A",OLD,LIFT,WOMAN,ON,U,69,70,JOL,User,-,"How likely are you to correctly recall the second item in the pair?|Type your response on a scale from 0-100 and then press Enter.",Study/JOL,"Study Phase",3420,,,3181,3181,,,,2,1
5db8a4f15f7e1a000a20d09c,mzs4vm5loc,Emily_Honors_Thesis_Part_2,1,49,2020-08-29T10:50:55-07:00,5.0502209663391,5,versionA_stim.csv,IS_JOLVersionA.csv,"ITEM SPECIFIC Version A",OLD,CASH,WOULD,ON,U,83,12,JOL,User,-,"How likely are you to correctly recall the second item in the pair?|Type your response on a scale from 0-100 and then press Enter.",Study/JOL,"Study Phase",3894,,,1824,3514,,,,0,1
5db8a4f15f7e1a000a20d09c,mzs4vm5loc,Emily_Honors_Thesis_Part_2,1,50,2020-08-29T10:51:00-07:00,4.9611020088196,5,versionA_stim.csv,IS_JOLVersionA.csv,"ITEM SPECIFIC Version A",OLD,BALL,RACKET,ON,B,38,23,JOL,User,-,"How likely are you to correctly recall the second item in the pair?|Type your response on a scale from 0-100 and then press Enter.",Study/JOL,"Study Phase",3752,,,2830,3401,,,,30,1
5db8a4f15f7e1a000a20d09c,mzs4vm5loc,Emily_Honors_Thesis_Part_2,1,51,2020-08-29T10:51:06-07:00,6.5939240455627,5,versionA_stim.csv,IS_JOLVersionA.csv,"ITEM SPECIFIC Version A",OLD,PUSHER,CLUTTER,ON,U,66,58,JOL,User,-,"How likely are you to correctly recall the second item in the pair?|Type your response on a scale from 0-100 and then press Enter.",Study/JOL,"Study Phase",5332,,,5076,5076,,,,4,1
5db8a4f15f7e1a000a20d09c,mzs4vm5loc,Emily_Honors_Thesis_Part_2,1,52,2020-08-29T10:51:15-07:00,9.3103210926056,5,versionA_stim.csv,IS_JOLVersionA.csv,"ITEM SPECIFIC Version A",OLD,WORK,CHORE,ON,B,39,63,JOL,User,-,"How likely are you to correctly recall the second item in the pair?|Type your response on a scale from 0-100 and then press Enter.",Study/JOL,"Study Phase",7130,,,4139,6946,,,,85,1
5db8a4f15f7e1a000a20d09c,mzs4vm5loc,Emily_Honors_Thesis_Part_2,1,53,2020-08-29T10:51:22-07:00,6.233717918396,5,versionA_stim.csv,IS_JOLVersionA.csv,"ITEM SPECIFIC Version A",OLD,HYGIENE,CLEAN,ON,F,17,25,JOL,User,-,"How likely are you to correctly recall the second item in the pair?|Type your response on a scale from 0-100 and then press Enter.",Study/JOL,"Study Phase",4951,,,4015,4505,,,,99,1
5db8a4f15f7e1a000a20d09c,mzs4vm5loc,Emily_Honors_Thesis_Part_2,1,54,2020-08-29T10:51:27-07:00,5.2446050643921,5,versionA_stim.csv,IS_JOLVersionA.csv,"ITEM SPECIFIC Version A",OLD,ROOT,PLANT,ON,F,13,35,JOL,User,-,"How likely are you to correctly recall the second item in the pair?|Type your response on a scale from 0-100 and then press Enter.",Study/JOL,"Study Phase",4060,,,2364,3848,,,,86,1
5db8a4f15f7e1a000a20d09c,mzs4vm5loc,Emily_Honors_Thesis_Part_2,1,55,2020-08-29T10:51:32-07:00,5.1482479572296,5,versionA_stim.csv,IS_JOLVersionA.csv,"ITEM SPECIFIC Version A",OLD,WINE,CHEESE,ON,S,57,72,JOL,User,-,"How likely are you to correctly recall the second item in the pair?|Type your response on a scale from 0-100 and then press Enter.",Study/JOL,"Study Phase",3849,,,3580,3580,,,,5,1
5db8a4f15f7e1a000a20d09c,mzs4vm5loc,Emily_Honors_Thesis_Part_2,1,56,2020-08-29T10:51:37-07:00,4.8505289554596,5,versionA_stim.csv,IS_JOLVersionA.csv,"ITEM SPECIFIC Version A",OLD,BATHROOM,TOILET,ON,S,58,36,JOL,User,-,"How likely are you to correctly recall the second item in the pair?|Type your response on a scale from 0-100 and then press Enter.",Study/JOL,"Study Phase",3678,,,2520,3293,,,,100,1
5db8a4f15f7e1a000a20d09c,mzs4vm5loc,Emily_Honors_Thesis_Part_2,1,57,2020-08-29T10:51:43-07:00,5.595458984375,5,versionA_stim.csv,IS_JOLVersionA.csv,"ITEM SPECIFIC Version A",OLD,CLOTHES,ATTIRE,ON,B,43,19,JOL,User,-,"How likely are you to correctly recall the second item in the pair?|Type your response on a scale from 0-100 and then press Enter.",Study/JOL,"Study Phase",4362,,,3771,4021,,,,90,1
5db8a4f15f7e1a000a20d09c,mzs4vm5loc,Emily_Honors_Thesis_Part_2,1,58,2020-08-29T10:51:48-07:00,5.3651859760284,5,versionA_stim.csv,IS_JOLVersionA.csv,"ITEM SPECIFIC Version A",OLD,,,,,,0,Instruct,-,3,"Remember to focus on how the two items are unique while you study and make your ratings!",,CHECK2,4160,,,-1,-1,,,,,1
5db8a4f15f7e1a000a20d09c,mzs4vm5loc,Emily_Honors_Thesis_Part_2,1,59,2020-08-29T10:52:06-07:00,17.78667807579,5,versionA_stim.csv,IS_JOLVersionA.csv,"ITEM SPECIFIC Version A",OLD,SHOE,FOOT,ON,S,60,43,JOL,User,-,"How likely are you to correctly recall the second item in the pair?|Type your response on a scale from 0-100 and then press Enter.",Study/JOL,"Study Phase",16465,,,15371,15942,,,,100,1
5db8a4f15f7e1a000a20d09c,mzs4vm5loc,Emily_Honors_Thesis_Part_2,1,60,2020-08-29T10:52:15-07:00,8.9870641231537,5,versionA_stim.csv,IS_JOLVersionA.csv,"ITEM SPECIFIC Version A",OLD,ALLOW,TUCK,ON,U,78,31,JOL,User,-,"How likely are you to correctly recall the second item in the pair?|Type your response on a scale from 0-100 and then press Enter.",Study/JOL,"Study Phase",7592,,,6931,7111,,,,10,1
5db8a4f15f7e1a000a20d09c,mzs4vm5loc,Emily_Honors_Thesis_Part_2,1,61,2020-08-29T10:52:21-07:00,6.4505488872528,5,versionA_stim.csv,IS_JOLVersionA.csv,"ITEM SPECIFIC Version A",OLD,LETTUCE,SALAD,ON,S,59,55,JOL,User,-,"How likely are you to correctly recall the second item in the pair?|Type your response on a scale from 0-100 and then press Enter.",Study/JOL,"Study Phase",4793,,,2973,4349,,,,95,1
5db8a4f15f7e1a000a20d09c,mzs4vm5loc,Emily_Honors_Thesis_Part_2,1,62,2020-08-29T10:52:29-07:00,7.3652839660645,5,versionA_stim.csv,IS_JOLVersionA.csv,"ITEM SPECIFIC Version A",OLD,HERD,COW,ON,F,22,27,JOL,User,-,"How likely are you to correctly recall the second item in the pair?|Type your response on a scale from 0-100 and then press Enter.",Study/JOL,"Study Phase",6080,,,4367,5560,,,,50,1
5db8a4f15f7e1a000a20d09c,mzs4vm5loc,Emily_Honors_Thesis_Part_2,1,63,2020-08-29T10:52:38-07:00,9.363095998764,5,versionA_stim.csv,IS_JOLVersionA.csv,"ITEM SPECIFIC Version A",OLD,TRIAL,JURY,ON,S,50,44,JOL,User,-,"How likely are you to correctly recall the second item in the pair?|Type your response on a scale from 0-100 and then press Enter.",Study/JOL,"Study Phase",8026,,,3625,7523,,,,70,1
5db8a4f15f7e1a000a20d09c,mzs4vm5loc,Emily_Honors_Thesis_Part_2,1,64,2020-08-29T10:52:44-07:00,6.234393119812,5,versionA_stim.csv,IS_JOLVersionA.csv,"ITEM SPECIFIC Version A",OLD,STRONG,ACCIDENT,ON,U,80,61,JOL,User,-,"How likely are you to correctly recall the second item in the pair?|Type your response on a scale from 0-100 and then press Enter.",Study/JOL,"Study Phase",4952,,,3995,4559,,,,10,1
5db8a4f15f7e1a000a20d09c,mzs4vm5loc,Emily_Honors_Thesis_Part_2,1,65,2020-08-29T10:52:50-07:00,5.8875858783722,5,versionA_stim.csv,IS_JOLVersionA.csv,"ITEM SPECIFIC Version A",OLD,HIDE,SICK,ON,U,84,8,JOL,User,-,"How likely are you to correctly recall the second item in the pair?|Type your response on a scale from 0-100 and then press Enter.",Study/JOL,"Study Phase",4618,,,2702,4199,,,,0,1
5db8a4f15f7e1a000a20d09c,mzs4vm5loc,Emily_Honors_Thesis_Part_2,1,66,2020-08-29T10:52:57-07:00,7.1388020515442,5,versionA_stim.csv,IS_JOLVersionA.csv,"ITEM SPECIFIC Version A",OLD,DIETARY,SACKING,ON,U,67,86,JOL,User,-,"How likely are you to correctly recall the second item in the pair?|Type your response on a scale from 0-100 and then press Enter.",Study/JOL,"Study Phase",5842,,,3664,5499,,,,15,1
5db8a4f15f7e1a000a20d09c,mzs4vm5loc,Emily_Honors_Thesis_Part_2,1,67,2020-08-29T10:53:01-07:00,4.3120861053467,5,versionA_stim.csv,IS_JOLVersionA.csv,"ITEM SPECIFIC Version A",OLD,KING,VASE,ON,U,85,77,JOL,User,-,"How likely are you to correctly recall the second item in the pair?|Type your response on a scale from 0-100 and then press Enter.",Study/JOL,"Study Phase",3096,,,2678,2679,,,,2,1
5db8a4f15f7e1a000a20d09c,mzs4vm5loc,Emily_Honors_Thesis_Part_2,1,68,2020-08-29T10:53:06-07:00,4.5141348838806,5,versionA_stim.csv,IS_JOLVersionA.csv,"ITEM SPECIFIC Version A",OLD,FIRE,BLAZE,ON,B,45,68,JOL,User,-,"How likely are you to correctly recall the second item in the pair?|Type your response on a scale from 0-100 and then press Enter.",Study/JOL,"Study Phase",3216,,,2631,2901,,,,90,1
5db8a4f15f7e1a000a20d09c,mzs4vm5loc,Emily_Honors_Thesis_Part_2,1,69,2020-08-29T10:53:12-07:00,6.3632230758667,5,versionA_stim.csv,IS_JOLVersionA.csv,"ITEM SPECIFIC Version A",OLD,SMELL,STENCH,ON,B,42,83,JOL,User,-,"How likely are you to correctly recall the second item in the pair?|Type your response on a scale from 0-100 and then press Enter.",Study/JOL,"Study Phase",5182,,,3742,4936,,,,95,1
5db8a4f15f7e1a000a20d09c,mzs4vm5loc,Emily_Honors_Thesis_Part_2,1,70,2020-08-29T10:53:18-07:00,5.5734298229218,5,versionA_stim.csv,IS_JOLVersionA.csv,"ITEM SPECIFIC Version A",OLD,PARK,HUNGRY,ON,U,68,49,JOL,User,-,"How likely are you to correctly recall the second item in the pair?|Type your response on a scale from 0-100 and then press Enter.",Study/JOL,"Study Phase",4405,,,2414,3996,,,,0,1
5db8a4f15f7e1a000a20d09c,mzs4vm5loc,Emily_Honors_Thesis_Part_2,1,71,2020-08-29T10:53:25-07:00,6.7481491565704,5,versionA_stim.csv,IS_JOLVersionA.csv,"ITEM SPECIFIC Version A",OLD,ARTERY,BRONZE,ON,U,74,65,JOL,User,-,"How likely are you to correctly recall the second item in the pair?|Type your response on a scale from 0-100 and then press Enter.",Study/JOL,"Study Phase",5423,,,1307,4802,,,,0,1
5db8a4f15f7e1a000a20d09c,mzs4vm5loc,Emily_Honors_Thesis_Part_2,1,72,2020-08-29T10:53:29-07:00,4.3725080490112,5,versionA_stim.csv,IS_JOLVersionA.csv,"ITEM SPECIFIC Version A",OLD,HOT,CHILI,ON,B,37,34,JOL,User,-,"How likely are you to correctly recall the second item in the pair?|Type your response on a scale from 0-100 and then press Enter.",Study/JOL,"Study Phase",3269,,,2787,2929,,,,20,1
5db8a4f15f7e1a000a20d09c,mzs4vm5loc,Emily_Honors_Thesis_Part_2,1,73,2020-08-29T10:53:34-07:00,5.4166729450226,5,versionA_stim.csv,IS_JOLVersionA.csv,"ITEM SPECIFIC Version A",OLD,ORCHID,FLOWER,ON,F,24,62,JOL,User,-,"How likely are you to correctly recall the second item in the pair?|Type your response on a scale from 0-100 and then press Enter.",Study/JOL,"Study Phase",4122,,,3372,3698,,,,100,1
5db8a4f15f7e1a000a20d09c,mzs4vm5loc,Emily_Honors_Thesis_Part_2,1,74,2020-08-29T10:53:41-07:00,6.5006968975067,5,versionA_stim.csv,IS_JOLVersionA.csv,"ITEM SPECIFIC Version A",OLD,HAPPY,CAR,ON,U,77,52,JOL,User,-,"How likely are you to correctly recall the second item in the pair?|Type your response on a scale from 0-100 and then press Enter.",Study/JOL,"Study Phase",5290,,,3167,4740,,,,10,1
5db8a4f15f7e1a000a20d09c,mzs4vm5loc,Emily_Honors_Thesis_Part_2,1,75,2020-08-29T10:53:49-07:00,7.7113370895386,5,versionA_stim.csv,IS_JOLVersionA.csv,"ITEM SPECIFIC Version A",OLD,PAW,DOG,ON,F,15,53,JOL,User,-,"How likely are you to correctly recall the second item in the pair?|Type your response on a scale from 0-100 and then press Enter.",Study/JOL,"Study Phase",5541,,,2967,4592,,,,30,1
5db8a4f15f7e1a000a20d09c,mzs4vm5loc,Emily_Honors_Thesis_Part_2,1,76,2020-08-29T10:53:54-07:00,5.6943259239197,5,versionA_stim.csv,IS_JOLVersionA.csv,"ITEM SPECIFIC Version A",OLD,BRIDGE,WATER,ON,F,18,75,JOL,User,-,"How likely are you to correctly recall the second item in the pair?|Type your response on a scale from 0-100 and then press Enter.",Study/JOL,"Study Phase",4223,,,3653,3806,,,,50,1
5db8a4f15f7e1a000a20d09c,mzs4vm5loc,Emily_Honors_Thesis_Part_2,1,77,2020-08-29T10:54:04-07:00,9.1640779972076,5,versionA_stim.csv,IS_JOLVersionA.csv,"ITEM SPECIFIC Version A",OLD,HONEY,BEE,ON,S,63,51,JOL,User,-,"How likely are you to correctly recall the second item in the pair?|Type your response on a scale from 0-100 and then press Enter.",Study/JOL,"Study Phase",7946,,,3039,7563,,,,95,1
5db8a4f15f7e1a000a20d09c,mzs4vm5loc,Emily_Honors_Thesis_Part_2,1,78,2020-08-29T10:54:11-07:00,7.7932350635529,5,versionA_stim.csv,IS_JOLVersionA.csv,"ITEM SPECIFIC Version A",OLD,DUE,ASSIGNMENT,ON,S,46,15,JOL,User,-,"How likely are you to correctly recall the second item in the pair?|Type your response on a scale from 0-100 and then press Enter.",Study/JOL,"Study Phase",6291,,,4225,5998,,,,99,1
5db8a4f15f7e1a000a20d09c,mzs4vm5loc,Emily_Honors_Thesis_Part_2,1,79,2020-08-29T10:54:15-07:00,3.4763860702515,5,versionA_stim.csv,IS_JOLVersionA.csv,"ITEM SPECIFIC Version A",OLD,PAST,FUTURE,ON,S,61,82,JOL,User,-,"How likely are you to correctly recall the second item in the pair?|Type your response on a scale from 0-100 and then press Enter.",Study/JOL,"Study Phase",2144,,,1641,1908,,,,100,1
5db8a4f15f7e1a000a20d09c,mzs4vm5loc,Emily_Honors_Thesis_Part_2,1,80,2020-08-29T10:54:20-07:00,5.6541059017181,5,versionA_stim.csv,IS_JOLVersionA.csv,"ITEM SPECIFIC Version A",OLD,ART,LION,ON,U,79,10,JOL,User,-,"How likely are you to correctly recall the second item in the pair?|Type your response on a scale from 0-100 and then press Enter.",Study/JOL,"Study Phase",4496,,,1940,4194,,,,0,1
5db8a4f15f7e1a000a20d09c,mzs4vm5loc,Emily_Honors_Thesis_Part_2,1,81,2020-08-29T10:54:25-07:00,4.6363561153412,5,versionA_stim.csv,IS_JOLVersionA.csv,"ITEM SPECIFIC Version A",OLD,DIGESTION,STOMACH,ON,F,7,26,JOL,User,-,"How likely are you to correctly recall the second item in the pair?|Type your response on a scale from 0-100 and then press Enter.",Study/JOL,"Study Phase",3381,,,2720,2768,,,,60,1
5db8a4f15f7e1a000a20d09c,mzs4vm5loc,Emily_Honors_Thesis_Part_2,1,82,2020-08-29T10:54:32-07:00,7.3713569641113,5,versionA_stim.csv,IS_JOLVersionA.csv,"ITEM SPECIFIC Version A",OLD,HORNET,STING,ON,F,11,84,JOL,User,-,"How likely are you to correctly recall the second item in the pair?|Type your response on a scale from 0-100 and then press Enter.",Study/JOL,"Study Phase",6207,,,5702,5829,,,,20,1
5db8a4f15f7e1a000a20d09c,mzs4vm5loc,Emily_Honors_Thesis_Part_2,1,83,2020-08-29T10:54:37-07:00,4.4997189044952,5,versionA_stim.csv,IS_JOLVersionA.csv,"ITEM SPECIFIC Version A",OLD,EDITOR,NEWS,ON,F,10,39,JOL,User,-,"How likely are you to correctly recall the second item in the pair?|Type your response on a scale from 0-100 and then press Enter.",Study/JOL,"Study Phase",3252,,,2456,2600,,,,30,1
5db8a4f15f7e1a000a20d09c,mzs4vm5loc,Emily_Honors_Thesis_Part_2,1,84,2020-08-29T10:54:45-07:00,7.9607589244843,5,versionA_stim.csv,IS_JOLVersionA.csv,"ITEM SPECIFIC Version A",OLD,DELINQUENT,BAD,ON,F,6,20,JOL,User,-,"How likely are you to correctly recall the second item in the pair?|Type your response on a scale from 0-100 and then press Enter.",Study/JOL,"Study Phase",6788,,,3768,6454,,,,28,1
5db8a4f15f7e1a000a20d09c,mzs4vm5loc,Emily_Honors_Thesis_Part_2,1,85,2020-08-29T10:54:49-07:00,3.8230910301208,5,versionA_stim.csv,IS_JOLVersionA.csv,"ITEM SPECIFIC Version A",OLD,VALLEY,ADD,ON,U,82,21,JOL,User,-,"How likely are you to correctly recall the second item in the pair?|Type your response on a scale from 0-100 and then press Enter.",Study/JOL,"Study Phase",2461,,,1824,1824,,,,0,1
5db8a4f15f7e1a000a20d09c,mzs4vm5loc,Emily_Honors_Thesis_Part_2,1,86,2020-08-29T10:54:54-07:00,5.5888481140137,5,versionA_stim.csv,IS_JOLVersionA.csv,"ITEM SPECIFIC Version A",OLD,CIRCLE,ROUND,ON,S,65,48,JOL,User,-,"How likely are you to correctly recall the second item in the pair?|Type your response on a scale from 0-100 and then press Enter.",Study/JOL,"Study Phase",4314,,,2083,3941,,,,80,1
5db8a4f15f7e1a000a20d09c,mzs4vm5loc,Emily_Honors_Thesis_Part_2,1,87,2020-08-29T10:54:59-07:00,4.5310380458832,5,versionA_stim.csv,IS_JOLVersionA.csv,"ITEM SPECIFIC Version A",OLD,LOCATION,SITE,ON,S,48,78,JOL,User,-,"How likely are you to correctly recall the second item in the pair?|Type your response on a scale from 0-100 and then press Enter.",Study/JOL,"Study Phase",3309,,,2779,2961,,,,70,1
5db8a4f15f7e1a000a20d09c,mzs4vm5loc,Emily_Honors_Thesis_Part_2,1,88,2020-08-29T10:55:03-07:00,4.4007608890533,5,versionA_stim.csv,IS_JOLVersionA.csv,"ITEM SPECIFIC Version A",OLD,BLOW,WIND,ON,S,55,45,JOL,User,-,"How likely are you to correctly recall the second item in the pair?|Type your response on a scale from 0-100 and then press Enter.",Study/JOL,"Study Phase",3152,,,2088,2754,,,,79,1
5db8a4f15f7e1a000a20d09c,mzs4vm5loc,Emily_Honors_Thesis_Part_2,1,89,2020-08-29T10:55:10-07:00,7.1956899166107,5,versionA_stim.csv,IS_JOLVersionA.csv,"ITEM SPECIFIC Version A",OLD,HUNGER,FAMINE,ON,B,40,46,JOL,User,-,"How likely are you to correctly recall the second item in the pair?|Type your response on a scale from 0-100 and then press Enter.",Study/JOL,"Study Phase",5973,,,5243,5385,,,,82,1
5db8a4f15f7e1a000a20d09c,mzs4vm5loc,Emily_Honors_Thesis_Part_2,1,90,2020-08-29T10:55:14-07:00,4.0229070186615,5,versionA_stim.csv,IS_JOLVersionA.csv,"ITEM SPECIFIC Version A",OLD,POP,SODA,ON,S,56,17,JOL,User,-,"How likely are you to correctly recall the second item in the pair?|Type your response on a scale from 0-100 and then press Enter.",Study/JOL,"Study Phase",2758,,,2071,2345,,,,90,1
5db8a4f15f7e1a000a20d09c,mzs4vm5loc,Emily_Honors_Thesis_Part_2,1,91,2020-08-29T10:55:22-07:00,7.5856041908264,5,versionA_stim.csv,IS_JOLVersionA.csv,"ITEM SPECIFIC Version A",OLD,SENTENCE,WORD,ON,B,31,13,JOL,User,-,"How likely are you to correctly recall the second item in the pair?|Type your response on a scale from 0-100 and then press Enter.",Study/JOL,"Study Phase",6424,,,4237,6009,,,,98,1
5db8a4f15f7e1a000a20d09c,mzs4vm5loc,Emily_Honors_Thesis_Part_2,1,92,2020-08-29T10:55:28-07:00,5.8240358829498,5,versionA_stim.csv,IS_JOLVersionA.csv,"ITEM SPECIFIC Version A",OLD,WAY,OUT,ON,F,16,18,JOL,User,-,"How likely are you to correctly recall the second item in the pair?|Type your response on a scale from 0-100 and then press Enter.",Study/JOL,"Study Phase",3595,,,3201,3202,,,,5,1
5db8a4f15f7e1a000a20d09c,mzs4vm5loc,Emily_Honors_Thesis_Part_2,1,93,2020-08-29T10:55:34-07:00,5.7975840568542,5,versionA_stim.csv,IS_JOLVersionA.csv,"ITEM SPECIFIC Version A",OLD,WAGE,MONEY,ON,F,8,38,JOL,User,-,"How likely are you to correctly recall the second item in the pair?|Type your response on a scale from 0-100 and then press Enter.",Study/JOL,"Study Phase",4538,,,3403,3812,,,,90,1
5db8a4f15f7e1a000a20d09c,mzs4vm5loc,Emily_Honors_Thesis_Part_2,1,94,2020-08-29T10:55:38-07:00,4.7710258960724,5,versionA_stim.csv,IS_JOLVersionA.csv,"ITEM SPECIFIC Version A",OLD,DISCUSSION,TALK,ON,F,21,81,JOL,User,-,"How likely are you to correctly recall the second item in the pair?|Type your response on a scale from 0-100 and then press Enter.",Study/JOL,"Study Phase",3636,,,1645,3426,,,,95,1
5db8a4f15f7e1a000a20d09c,mzs4vm5loc,Emily_Honors_Thesis_Part_2,1,95,2020-08-29T10:55:47-07:00,8.8124029636383,5,versionA_stim.csv,IS_JOLVersionA.csv,"ITEM SPECIFIC Version A",OLD,BEGIN,END,ON,S,54,16,JOL,User,-,"How likely are you to correctly recall the second item in the pair?|Type your response on a scale from 0-100 and then press Enter.",Study/JOL,"Study Phase",7618,,,4247,7300,,,,98,1
5db8a4f15f7e1a000a20d09c,mzs4vm5loc,Emily_Honors_Thesis_Part_2,1,96,2020-08-29T10:55:53-07:00,6.15318608284,5,versionA_stim.csv,IS_JOLVersionA.csv,"ITEM SPECIFIC Version A",OLD,SOON,BELT,ON,U,70,71,JOL,User,-,"How likely are you to correctly recall the second item in the pair?|Type your response on a scale from 0-100 and then press Enter.",Study/JOL,"Study Phase",4787,,,4321,4322,,,,0,1
5db8a4f15f7e1a000a20d09c,mzs4vm5loc,Emily_Honors_Thesis_Part_2,1,97,2020-08-29T10:56:00-07:00,6.7298240661621,5,versionA_stim.csv,IS_JOLVersionA.csv,"ITEM SPECIFIC Version A",OLD,HEIGHT,GROWTH,ON,B,30,7,JOL,User,-,"How likely are you to correctly recall the second item in the pair?|Type your response on a scale from 0-100 and then press Enter.",Study/JOL,"Study Phase",5531,,,4233,5161,,,,100,1
5db8a4f15f7e1a000a20d09c,mzs4vm5loc,Emily_Honors_Thesis_Part_2,1,98,2020-08-29T10:56:04-07:00,4.3148758411407,5,versionA_stim.csv,IS_JOLVersionA.csv,"ITEM SPECIFIC Version A",OLD,SUGAR,RIDDLE,ON,U,81,85,JOL,User,-,"How likely are you to correctly recall the second item in the pair?|Type your response on a scale from 0-100 and then press Enter.",Study/JOL,"Study Phase",3010,,,2304,2305,,,,0,1
5db8a4f15f7e1a000a20d09c,mzs4vm5loc,Emily_Honors_Thesis_Part_2,1,99,2020-08-29T10:56:09-07:00,4.119518995285,5,versionA_stim.csv,IS_JOLVersionA.csv,"ITEM SPECIFIC Version A",OLD,GRILL,BAR,ON,S,52,57,JOL,User,-,"How likely are you to correctly recall the second item in the pair?|Type your response on a scale from 0-100 and then press Enter.",Study/JOL,"Study Phase",2868,,,2248,2248,,,,2,1
5db8a4f15f7e1a000a20d09c,mzs4vm5loc,Emily_Honors_Thesis_Part_2,1,100,2020-08-29T10:56:17-07:00,8.3041729927063,5,versionA_stim.csv,IS_JOLVersionA.csv,"ITEM SPECIFIC Version A",OLD,TUNA,FISH,ON,F,25,41,JOL,User,-,"How likely are you to correctly recall the second item in the pair?|Type your response on a scale from 0-100 and then press Enter.",Study/JOL,"Study Phase",7056,,,3310,6540,,,,40,1
5db8a4f15f7e1a000a20d09c,mzs4vm5loc,Emily_Honors_Thesis_Part_2,1,101,2020-08-29T10:56:24-07:00,7.3248941898346,5,versionA_stim.csv,IS_JOLVersionA.csv,"ITEM SPECIFIC Version A",OLD,BITTER,COLD,ON,F,12,76,JOL,User,-,"How likely are you to correctly recall the second item in the pair?|Type your response on a scale from 0-100 and then press Enter.",Study/JOL,"Study Phase",6095,,,5462,5462,,,,1,1
5db8a4f15f7e1a000a20d09c,mzs4vm5loc,Emily_Honors_Thesis_Part_2,1,102,2020-08-29T10:56:29-07:00,4.7693059444427,5,versionA_stim.csv,IS_JOLVersionA.csv,"ITEM SPECIFIC Version A",OLD,FIX,HAND,ON,U,75,28,JOL,User,-,"How likely are you to correctly recall the second item in the pair?|Type your response on a scale from 0-100 and then press Enter.",Study/JOL,"Study Phase",3557,,,3182,3182,,,,0,1
5db8a4f15f7e1a000a20d09c,mzs4vm5loc,Emily_Honors_Thesis_Part_2,1,103,2020-08-29T10:56:38-07:00,9.3159830570221,5,versionA_stim.csv,IS_JOLVersionA.csv,"ITEM SPECIFIC Version A",OLD,DRINK,SIP,ON,B,27,47,JOL,User,-,"How likely are you to correctly recall the second item in the pair?|Type your response on a scale from 0-100 and then press Enter.",Study/JOL,"Study Phase",7998,,,6809,7598,,,,97,1
5db8a4f15f7e1a000a20d09c,mzs4vm5loc,Emily_Honors_Thesis_Part_2,1,104,2020-08-29T10:56:44-07:00,5.9572129249573,5,versionA_stim.csv,IS_JOLVersionA.csv,"ITEM SPECIFIC Version A",OLD,KEY,LATCH,ON,B,36,22,JOL,User,-,"How likely are you to correctly recall the second item in the pair?|Type your response on a scale from 0-100 and then press Enter.",Study/JOL,"Study Phase",4651,,,2372,4296,,,,89,1
5db8a4f15f7e1a000a20d09c,mzs4vm5loc,Emily_Honors_Thesis_Part_2,1,105,2020-08-29T10:56:50-07:00,5.4279580116272,5,versionA_stim.csv,IS_JOLVersionA.csv,"ITEM SPECIFIC Version A",OLD,THING,STUFF,Buffer2,Buffer,90,87,JOL,User,-,"How likely are you to correctly recall the second item in the pair?|Type your response on a scale from 0-100 and then press Enter.",Study/JOL,BUFFER2,4142,,,2296,3754,,,,68,1
5db8a4f15f7e1a000a20d09c,mzs4vm5loc,Emily_Honors_Thesis_Part_2,1,106,2020-08-29T10:56:58-07:00,8.0893790721893,5,versionA_stim.csv,IS_JOLVersionA.csv,"ITEM SPECIFIC Version A",OLD,MALT,CHOCOLATE,Buffer2,Buffer,88,91,JOL,User,-,"How likely are you to correctly recall the second item in the pair?|Type your response on a scale from 0-100 and then press Enter.",Study/JOL,BUFFER2,6745,,,2976,6494,,,,43,1
5db8a4f15f7e1a000a20d09c,mzs4vm5loc,Emily_Honors_Thesis_Part_2,1,107,2020-08-29T10:57:16-07:00,17.807565927505,5,versionA_stim.csv,IS_JOLVersionA.csv,"ITEM SPECIFIC Version A",OLD,MOON,SPACE,Buffer2,Buffer,89,89,JOL,User,-,"How likely are you to correctly recall the second item in the pair?|Type your response on a scale from 0-100 and then press Enter.",Study/JOL,BUFFER2,16151,,,6821,15316,,,,100,1
5db8a4f15f7e1a000a20d09c,mzs4vm5loc,Emily_Honors_Thesis_Part_2,1,108,2020-08-29T10:57:24-07:00,8.4655220508575,5,versionA_stim.csv,IS_JOLVersionA.csv,"ITEM SPECIFIC Version A",OLD,SHERIFF,POLICE,Buffer2,Buffer,87,90,JOL,User,-,"How likely are you to correctly recall the second item in the pair?|Type your response on a scale from 0-100 and then press Enter.",Study/JOL,BUFFER2,7198,,,6140,6599,,,,100,1
5db8a4f15f7e1a000a20d09c,mzs4vm5loc,Emily_Honors_Thesis_Part_2,1,109,2020-08-29T10:57:32-07:00,7.9056918621063,5,versionA_stim.csv,IS_JOLVersionA.csv,"ITEM SPECIFIC Version A",OLD,GEESE,GOOSE,Buffer2,Buffer,86,88,JOL,User,-,"How likely are you to correctly recall the second item in the pair?|Type your response on a scale from 0-100 and then press Enter.",Study/JOL,BUFFER2,6130,,,5550,5856,,,,80,1
5db8a4f15f7e1a000a20d09c,mzs4vm5loc,Emily_Honors_Thesis_Part_2,1,110,2020-08-29T10:57:37-07:00,5.1803710460663,5,versionA_stim.csv,IS_JOLVersionA.csv,"ITEM SPECIFIC Version A",OLD,,,,,,0,Instruct,User,-,"You have completed this section. Please press Enter.",Filler_Instruction,Instruct5,3905,,,-1,-1,,,,,1
5db8a4f15f7e1a000a20d09c,mzs4vm5loc,Emily_Honors_Thesis_Part_2,1,111,2020-08-29T10:58:08-07:00,30.69167304039,5,versionA_stim.csv,IS_JOLVersionA.csv,"ITEM SPECIFIC Version A",OLD,,,,,,0,FreeRecall,-,10,"What were you supposed to focus on while you studied each pair? (Hint: Think back to the instructions). Type your answer in the space below.",,CHECK3,29490,"The differences between the two objects in the pair",0,5938,27571,0,0,,,1
5db8a4f15f7e1a000a20d09c,mzs4vm5loc,Emily_Honors_Thesis_Part_2,1,112,2020-08-29T10:58:12-07:00,4.3398430347443,5,versionA_stim.csv,IS_JOLVersionA.csv,"ITEM SPECIFIC Version A",OLD,,,,,,0,Instruct,User,-,"You have completed this section. Please press Enter.",Filler_Instruction,Instruct2,2049,,,-1,-1,,,,,1
5db8a4f15f7e1a000a20d09c,mzs4vm5loc,Emily_Honors_Thesis_Part_2,1,113,2020-08-29T11:00:13-07:00,121.30889797211,5,versionA_stim.csv,IS_JOLVersionA.csv,"ITEM SPECIFIC Version A",OLD,,,,,,0,FreeRecall,120,120,"Please list the 50 US states in alphabetical order. The task will automatically advance to the next screen after two minutes.",,Filler1,120016,"Alabama Alaska Arizona Arkansas California Colorado Connecticut Delaware Florida Georgia Hawaii Idaho Illinois Indiana Iowa Kansas Kentucky Louisiana Maine Maryland Massachusetts Michigan Minnesota Mississippi Missouri Montana Nebraska Nevada New Hampshire New Jersey New Mexico New York North Carolina North Dakota Ohio Oklahoma Oregon Pennsylvania Rhode Island South Carolina South Dakota Tennessee Texas Utah Vermont Virginia Washington West Virginia Wisconsin Wyoming ",0,65380,83986,0,0,,,0.846
5db8a4f15f7e1a000a20d09c,mzs4vm5loc,Emily_Honors_Thesis_Part_2,1,114,2020-08-29T11:00:27-07:00,13.520685911179,5,versionA_stim.csv,IS_JOLVersionA.csv,"ITEM SPECIFIC Version A",OLD,,,,,,0,Instruct,-,10,"You will now be presented with the first word from each of the previously studied item pairs. Please type the missing word. If you do not know the word, you may guess or press Enter to skip forward to the next pair.",,Instruct3,11338,,,-1,-1,,,,,1
5db8a4f15f7e1a000a20d09c,mzs4vm5loc,Emily_Honors_Thesis_Part_2,1,115,2020-08-29T11:00:32-07:00,5.1838500499725,5,versionA_stim.csv,IS_JOLVersionA.csv,"ITEM SPECIFIC Version A",OLD,BRIDGE,WATER,ON,F,18,75,Test,User,-,,Recall,Recall1,3864,Water,100,2699,3477,1,1,,,1
5db8a4f15f7e1a000a20d09c,mzs4vm5loc,Emily_Honors_Thesis_Part_2,1,116,2020-08-29T11:00:36-07:00,4.2649419307709,5,versionA_stim.csv,IS_JOLVersionA.csv,"ITEM SPECIFIC Version A",OLD,WAY,OUT,ON,F,16,18,Test,User,-,,Recall,Recall1,3040,Out,100,2144,2677,1,1,,,1
5db8a4f15f7e1a000a20d09c,mzs4vm5loc,Emily_Honors_Thesis_Part_2,1,117,2020-08-29T11:00:42-07:00,5.2362539768219,5,versionA_stim.csv,IS_JOLVersionA.csv,"ITEM SPECIFIC Version A",OLD,MACHINE,POSITION,ON,U,76,66,Test,User,-,,Recall,Recall1,3806,Position,100,2059,3560,1,1,,,1
5db8a4f15f7e1a000a20d09c,mzs4vm5loc,Emily_Honors_Thesis_Part_2,1,118,2020-08-29T11:00:51-07:00,9.4323861598969,5,versionA_stim.csv,IS_JOLVersionA.csv,"ITEM SPECIFIC Version A",OLD,HOT,CHILI,ON,B,37,34,Test,User,-,,Recall,Recall1,8270,Chili,100,2018,8087,1,1,,,1
5db8a4f15f7e1a000a20d09c,mzs4vm5loc,Emily_Honors_Thesis_Part_2,1,119,2020-08-29T11:00:57-07:00,5.8036088943481,5,versionA_stim.csv,IS_JOLVersionA.csv,"ITEM SPECIFIC Version A",OLD,SWAN,BIRD,ON,F,14,30,Test,User,-,,Recall,Recall1,4487,Goose,0,1510,4238,0,0,,,1
5db8a4f15f7e1a000a20d09c,mzs4vm5loc,Emily_Honors_Thesis_Part_2,1,120,2020-08-29T11:01:01-07:00,3.9965369701385,5,versionA_stim.csv,IS_JOLVersionA.csv,"ITEM SPECIFIC Version A",OLD,HERD,COW,ON,F,22,27,Test,User,-,,Recall,Recall1,2743,Cow,100,1535,1997,1,1,,,1
5db8a4f15f7e1a000a20d09c,mzs4vm5loc,Emily_Honors_Thesis_Part_2,1,121,2020-08-29T11:01:07-07:00,5.9278500080109,5,versionA_stim.csv,IS_JOLVersionA.csv,"ITEM SPECIFIC Version A",OLD,DUMP,WASTE,ON,S,49,74,Test,User,-,,Recall,Recall1,4691,Waste,100,2217,4444,1,1,,,1
5db8a4f15f7e1a000a20d09c,mzs4vm5loc,Emily_Honors_Thesis_Part_2,1,122,2020-08-29T11:01:13-07:00,5.9395670890808,5,versionA_stim.csv,IS_JOLVersionA.csv,"ITEM SPECIFIC Version A",OLD,ARCHITECTURE,DESIGN,ON,S,51,67,Test,User,-,,Recall,Recall1,4742,DESIGN,100,1616,4546,1,1,,,1
5db8a4f15f7e1a000a20d09c,mzs4vm5loc,Emily_Honors_Thesis_Part_2,1,123,2020-08-29T11:01:21-07:00,7.7887799739838,5,versionA_stim.csv,IS_JOLVersionA.csv,"ITEM SPECIFIC Version A",OLD,HYGIENE,CLEAN,ON,F,17,25,Test,User,-,,Recall,Recall1,6567,CLEAN,100,2307,4695,1,1,,,1
5db8a4f15f7e1a000a20d09c,mzs4vm5loc,Emily_Honors_Thesis_Part_2,1,124,2020-08-29T11:01:25-07:00,4.6133420467377,5,versionA_stim.csv,IS_JOLVersionA.csv,"ITEM SPECIFIC Version A",OLD,TRIAL,JURY,ON,S,50,44,Test,User,-,,Recall,Recall1,3451,JURY,100,2607,3178,1,1,,,1
5db8a4f15f7e1a000a20d09c,mzs4vm5loc,Emily_Honors_Thesis_Part_2,1,125,2020-08-29T11:01:29-07:00,3.5751600265503,5,versionA_stim.csv,IS_JOLVersionA.csv,"ITEM SPECIFIC Version A",OLD,EDITOR,NEWS,ON,F,10,39,Test,User,-,,Recall,Recall1,2377,NEWS,100,1687,2084,1,1,,,1
5db8a4f15f7e1a000a20d09c,mzs4vm5loc,Emily_Honors_Thesis_Part_2,1,126,2020-08-29T11:01:33-07:00,4.3119859695435,5,versionA_stim.csv,IS_JOLVersionA.csv,"ITEM SPECIFIC Version A",OLD,FIRE,BLAZE,ON,B,45,68,Test,User,-,,Recall,Recall1,2395,BLAZE,100,1399,2124,1,1,,,1
5db8a4f15f7e1a000a20d09c,mzs4vm5loc,Emily_Honors_Thesis_Part_2,1,127,2020-08-29T11:01:38-07:00,4.9938230514526,5,versionA_stim.csv,IS_JOLVersionA.csv,"ITEM SPECIFIC Version A",OLD,PAST,FUTURE,ON,S,61,82,Test,User,-,,Recall,Recall1,3676,PRESENT,30.769230769231,1800,3481,0,0,,,1
5db8a4f15f7e1a000a20d09c,mzs4vm5loc,Emily_Honors_Thesis_Part_2,1,128,2020-08-29T11:01:41-07:00,3.0095198154449,5,versionA_stim.csv,IS_JOLVersionA.csv,"ITEM SPECIFIC Version A",OLD,POP,SODA,ON,S,56,17,Test,User,-,,Recall,Recall1,1763,SODA,100,1160,1527,1,1,,,1
5db8a4f15f7e1a000a20d09c,mzs4vm5loc,Emily_Honors_Thesis_Part_2,1,129,2020-08-29T11:01:47-07:00,5.887598991394,5,versionA_stim.csv,IS_JOLVersionA.csv,"ITEM SPECIFIC Version A",OLD,FIX,HAND,ON,U,75,28,Test,User,-,,Recall,Recall1,4680,,0,-1,-1,0,0,,,1
5db8a4f15f7e1a000a20d09c,mzs4vm5loc,Emily_Honors_Thesis_Part_2,1,130,2020-08-29T11:01:56-07:00,9.0498192310333,5,versionA_stim.csv,IS_JOLVersionA.csv,"ITEM SPECIFIC Version A",OLD,CLOTHES,ATTIRE,ON,B,43,19,Test,User,-,,Recall,Recall1,7630,ATTIRE,100,2268,7338,1,1,,,1
5db8a4f15f7e1a000a20d09c,mzs4vm5loc,Emily_Honors_Thesis_Part_2,1,131,2020-08-29T11:02:00-07:00,4.4839558601379,5,versionA_stim.csv,IS_JOLVersionA.csv,"ITEM SPECIFIC Version A",OLD,HORNET,STING,ON,F,11,84,Test,User,-,,Recall,Recall1,3296,STING,100,1965,3149,1,1,,,1
5db8a4f15f7e1a000a20d09c,mzs4vm5loc,Emily_Honors_Thesis_Part_2,1,132,2020-08-29T11:02:08-07:00,7.8043320178986,5,versionA_stim.csv,IS_JOLVersionA.csv,"ITEM SPECIFIC Version A",OLD,GREAT,FANTASTIC,ON,B,35,32,Test,User,-,,Recall,Recall1,6096,,0,-1,-1,0,0,,,1
5db8a4f15f7e1a000a20d09c,mzs4vm5loc,Emily_Honors_Thesis_Part_2,1,133,2020-08-29T11:02:14-07:00,5.7262740135193,5,versionA_stim.csv,IS_JOLVersionA.csv,"ITEM SPECIFIC Version A",OLD,DIETARY,SACKING,ON,U,67,86,Test,User,-,,Recall,Recall1,4435,SNACKS,61.538461538462,3156,4022,0,0,,,1
5db8a4f15f7e1a000a20d09c,mzs4vm5loc,Emily_Honors_Thesis_Part_2,1,134,2020-08-29T11:02:23-07:00,8.5815808773041,5,versionA_stim.csv,IS_JOLVersionA.csv,"ITEM SPECIFIC Version A",OLD,DISCUSSION,TALK,ON,F,21,81,Test,User,-,,Recall,Recall1,7009,TALK,100,2542,6727,1,1,,,1
5db8a4f15f7e1a000a20d09c,mzs4vm5loc,Emily_Honors_Thesis_Part_2,1,135,2020-08-29T11:02:26-07:00,3.4392201900482,5,versionA_stim.csv,IS_JOLVersionA.csv,"ITEM SPECIFIC Version A",OLD,CHISEL,HAMMER,ON,F,9,11,Test,User,-,,Recall,Recall1,2140,HAMMER,100,1239,1865,1,1,,,1
5db8a4f15f7e1a000a20d09c,mzs4vm5loc,Emily_Honors_Thesis_Part_2,1,136,2020-08-29T11:02:29-07:00,3.3791179656982,5,versionA_stim.csv,IS_JOLVersionA.csv,"ITEM SPECIFIC Version A",OLD,KEY,LATCH,ON,B,36,22,Test,User,-,,Recall,Recall1,2155,LATCH,100,1265,1904,1,1,,,1
5db8a4f15f7e1a000a20d09c,mzs4vm5loc,Emily_Honors_Thesis_Part_2,1,137,2020-08-29T11:02:35-07:00,5.4684879779816,5,versionA_stim.csv,IS_JOLVersionA.csv,"ITEM SPECIFIC Version A",OLD,TAKE,SEIZE,ON,B,29,42,Test,User,-,,Recall,Recall1,4266,BORROW,0,2842,4095,0,0,,,1
5db8a4f15f7e1a000a20d09c,mzs4vm5loc,Emily_Honors_Thesis_Part_2,1,138,2020-08-29T11:02:40-07:00,5.3332870006561,5,versionA_stim.csv,IS_JOLVersionA.csv,"ITEM SPECIFIC Version A",OLD,DELINQUENT,BAD,ON,F,6,20,Test,User,-,,Recall,Recall1,4092,BAD,100,1997,3560,1,1,,,1
5db8a4f15f7e1a000a20d09c,mzs4vm5loc,Emily_Honors_Thesis_Part_2,1,139,2020-08-29T11:02:44-07:00,3.340637922287,5,versionA_stim.csv,IS_JOLVersionA.csv,"ITEM SPECIFIC Version A",OLD,CIRCLE,ROUND,ON,S,65,48,Test,User,-,,Recall,Recall1,2057,ROUND,100,1161,1905,1,1,,,1
5db8a4f15f7e1a000a20d09c,mzs4vm5loc,Emily_Honors_Thesis_Part_2,1,140,2020-08-29T11:02:51-07:00,7.5711741447449,5,versionA_stim.csv,IS_JOLVersionA.csv,"ITEM SPECIFIC Version A",OLD,ROOT,PLANT,ON,F,13,35,Test,User,-,,Recall,Recall1,6310,PLANT,100,2769,6143,1,1,,,1
5db8a4f15f7e1a000a20d09c,mzs4vm5loc,Emily_Honors_Thesis_Part_2,1,141,2020-08-29T11:03:05-07:00,14.337641954422,5,versionA_stim.csv,IS_JOLVersionA.csv,"ITEM SPECIFIC Version A",OLD,HEIGHT,GROWTH,ON,B,30,7,Test,User,-,,Recall,Recall1,13165,,0,2319,9293,0,0,,,1
5db8a4f15f7e1a000a20d09c,mzs4vm5loc,Emily_Honors_Thesis_Part_2,1,142,2020-08-29T11:03:12-07:00,6.6823558807373,5,versionA_stim.csv,IS_JOLVersionA.csv,"ITEM SPECIFIC Version A",OLD,ARTERY,BRONZE,ON,U,74,65,Test,User,-,,Recall,Recall1,5331,LIVER,18.181818181818,2324,4862,0,0,,,1
5db8a4f15f7e1a000a20d09c,mzs4vm5loc,Emily_Honors_Thesis_Part_2,1,143,2020-08-29T11:03:20-07:00,7.9309420585632,5,versionA_stim.csv,IS_JOLVersionA.csv,"ITEM SPECIFIC Version A",OLD,CASH,WOULD,ON,U,83,12,Test,User,-,,Recall,Recall1,6588,WAGE,22.222222222222,1757,5249,0,0,,,1
5db8a4f15f7e1a000a20d09c,mzs4vm5loc,Emily_Honors_Thesis_Part_2,1,144,2020-08-29T11:03:31-07:00,11.052446126938,5,versionA_stim.csv,IS_JOLVersionA.csv,"ITEM SPECIFIC Version A",OLD,DUE,ASSIGNMENT,ON,S,46,15,Test,User,-,,Recall,Recall1,9729,,0,4487,6479,0,0,,,1
5db8a4f15f7e1a000a20d09c,mzs4vm5loc,Emily_Honors_Thesis_Part_2,1,145,2020-08-29T11:03:39-07:00,7.450514793396,5,versionA_stim.csv,IS_JOLVersionA.csv,"ITEM SPECIFIC Version A",OLD,BUG,WASP,ON,B,32,80,Test,User,-,,Recall,Recall1,6137,,0,4494,4870,0,0,,,1
5db8a4f15f7e1a000a20d09c,mzs4vm5loc,Emily_Honors_Thesis_Part_2,1,146,2020-08-29T11:03:47-07:00,8.352874994278,5,versionA_stim.csv,IS_JOLVersionA.csv,"ITEM SPECIFIC Version A",OLD,SLEEP,DROWSY,ON,B,41,37,Test,User,-,,Recall,Recall1,7104,,0,2774,2774,0,0,,,1
5db8a4f15f7e1a000a20d09c,mzs4vm5loc,Emily_Honors_Thesis_Part_2,1,147,2020-08-29T11:03:55-07:00,8.4949181079865,5,versionA_stim.csv,IS_JOLVersionA.csv,"ITEM SPECIFIC Version A",OLD,HIDE,SICK,ON,U,84,8,Test,User,-,,Recall,Recall1,7218,SICK,100,5422,6848,1,1,,,1
5db8a4f15f7e1a000a20d09c,mzs4vm5loc,Emily_Honors_Thesis_Part_2,1,148,2020-08-29T11:04:02-07:00,6.8728339672089,5,versionA_stim.csv,IS_JOLVersionA.csv,"ITEM SPECIFIC Version A",OLD,HAPPY,CAR,ON,U,77,52,Test,User,-,,Recall,Recall1,5621,SAD,33.333333333333,1799,5305,0,0,,,1
5db8a4f15f7e1a000a20d09c,mzs4vm5loc,Emily_Honors_Thesis_Part_2,1,149,2020-08-29T11:04:07-07:00,4.8663399219513,5,versionA_stim.csv,IS_JOLVersionA.csv,"ITEM SPECIFIC Version A",OLD,SMELL,STENCH,ON,B,42,83,Test,User,-,,Recall,Recall1,3610,STENCH,100,2407,3312,1,1,,,1
5db8a4f15f7e1a000a20d09c,mzs4vm5loc,Emily_Honors_Thesis_Part_2,1,150,2020-08-29T11:04:14-07:00,6.847944021225,5,versionA_stim.csv,IS_JOLVersionA.csv,"ITEM SPECIFIC Version A",OLD,GRILL,BAR,ON,S,52,57,Test,User,-,,Recall,Recall1,5665,BAR,100,1660,4661,1,1,,,1
5db8a4f15f7e1a000a20d09c,mzs4vm5loc,Emily_Honors_Thesis_Part_2,1,151,2020-08-29T11:04:20-07:00,6.3839921951294,5,versionA_stim.csv,IS_JOLVersionA.csv,"ITEM SPECIFIC Version A",OLD,WINE,CHEESE,ON,S,57,72,Test,User,-,,Recall,Recall1,5192,CHEESE,100,3076,5038,1,1,,,1
5db8a4f15f7e1a000a20d09c,mzs4vm5loc,Emily_Honors_Thesis_Part_2,1,152,2020-08-29T11:04:26-07:00,5.4892938137054,5,versionA_stim.csv,IS_JOLVersionA.csv,"ITEM SPECIFIC Version A",OLD,MATH,DIVISION,ON,B,33,79,Test,User,-,,Recall,Recall1,4271,DIVISION,100,1794,4038,1,1,,,1
5db8a4f15f7e1a000a20d09c,mzs4vm5loc,Emily_Honors_Thesis_Part_2,1,153,2020-08-29T11:04:44-07:00,17.943027019501,5,versionA_stim.csv,IS_JOLVersionA.csv,"ITEM SPECIFIC Version A",OLD,SOON,BELT,ON,U,70,71,Test,User,-,,Recall,Recall1,16620,,0,1423,1423,0,0,,,1
5db8a4f15f7e1a000a20d09c,mzs4vm5loc,Emily_Honors_Thesis_Part_2,1,154,2020-08-29T11:04:50-07:00,6.657888174057,5,versionA_stim.csv,IS_JOLVersionA.csv,"ITEM SPECIFIC Version A",OLD,DEATH,BUSINESS,ON,U,72,29,Test,User,-,,Recall,Recall1,5268,,0,2959,2959,0,0,,,1
5db8a4f15f7e1a000a20d09c,mzs4vm5loc,Emily_Honors_Thesis_Part_2,1,155,2020-08-29T11:05:00-07:00,9.0253388881683,5,versionA_stim.csv,IS_JOLVersionA.csv,"ITEM SPECIFIC Version A",OLD,NUMBER,AMOUNT,ON,S,47,60,Test,User,-,,Recall,Recall1,7201,MATHS,36.363636363636,4489,6988,0,0,,,1
5db8a4f15f7e1a000a20d09c,mzs4vm5loc,Emily_Honors_Thesis_Part_2,1,156,2020-08-29T11:05:04-07:00,4.6444809436798,5,versionA_stim.csv,IS_JOLVersionA.csv,"ITEM SPECIFIC Version A",OLD,KING,VASE,ON,U,85,77,Test,User,-,,Recall,Recall1,3445,,0,-1,-1,0,0,,,1
5db8a4f15f7e1a000a20d09c,mzs4vm5loc,Emily_Honors_Thesis_Part_2,1,157,2020-08-29T11:05:08-07:00,3.894387960434,5,versionA_stim.csv,IS_JOLVersionA.csv,"ITEM SPECIFIC Version A",OLD,BALL,RACKET,ON,B,38,23,Test,User,-,,Recall,Recall1,2584,ROUND,18.181818181818,1659,2379,0,0,,,1
5db8a4f15f7e1a000a20d09c,mzs4vm5loc,Emily_Honors_Thesis_Part_2,1,158,2020-08-29T11:05:20-07:00,12.099727153778,5,versionA_stim.csv,IS_JOLVersionA.csv,"ITEM SPECIFIC Version A",OLD,DIGESTION,STOMACH,ON,F,7,26,Test,User,-,,Recall,Recall1,10859,STOMACH,100,5349,10562,1,1,,,1
5db8a4f15f7e1a000a20d09c,mzs4vm5loc,Emily_Honors_Thesis_Part_2,1,159,2020-08-29T11:05:26-07:00,5.976438999176,5,versionA_stim.csv,IS_JOLVersionA.csv,"ITEM SPECIFIC Version A",OLD,SHOE,FOOT,ON,S,60,43,Test,User,-,,Recall,Recall1,4733,FOOT,100,1973,4287,1,1,,,1
5db8a4f15f7e1a000a20d09c,mzs4vm5loc,Emily_Honors_Thesis_Part_2,1,160,2020-08-29T11:05:34-07:00,7.8770308494568,5,versionA_stim.csv,IS_JOLVersionA.csv,"ITEM SPECIFIC Version A",OLD,DISCOVER,FLOOR,ON,U,71,56,Test,User,-,,Recall,Recall1,6638,,0,-1,-1,0,0,,,1
5db8a4f15f7e1a000a20d09c,mzs4vm5loc,Emily_Honors_Thesis_Part_2,1,161,2020-08-29T11:05:39-07:00,4.6095440387726,5,versionA_stim.csv,IS_JOLVersionA.csv,"ITEM SPECIFIC Version A",OLD,WORK,CHORE,ON,B,39,63,Test,User,-,,Recall,Recall1,3274,PLACE,40,2404,3063,0,0,,,1
5db8a4f15f7e1a000a20d09c,mzs4vm5loc,Emily_Honors_Thesis_Part_2,1,162,2020-08-29T11:05:43-07:00,4.3031549453735,5,versionA_stim.csv,IS_JOLVersionA.csv,"ITEM SPECIFIC Version A",OLD,BABY,CHILD,ON,S,64,40,Test,User,-,,Recall,Recall1,2932,,0,-1,-1,0,0,,,1
5db8a4f15f7e1a000a20d09c,mzs4vm5loc,Emily_Honors_Thesis_Part_2,1,163,2020-08-29T11:05:49-07:00,5.7780101299286,5,versionA_stim.csv,IS_JOLVersionA.csv,"ITEM SPECIFIC Version A",OLD,HONEY,BEE,ON,S,63,51,Test,User,-,,Recall,Recall1,4570,BEE,100,2128,3595,1,1,,,1
5db8a4f15f7e1a000a20d09c,mzs4vm5loc,Emily_Honors_Thesis_Part_2,1,164,2020-08-29T11:05:55-07:00,5.927668094635,5,versionA_stim.csv,IS_JOLVersionA.csv,"ITEM SPECIFIC Version A",OLD,DRINK,SIP,ON,B,27,47,Test,User,-,,Recall,Recall1,4553,EAT,0,3229,4288,0,0,,,1
5db8a4f15f7e1a000a20d09c,mzs4vm5loc,Emily_Honors_Thesis_Part_2,1,165,2020-08-29T11:05:57-07:00,2.588437795639,5,versionA_stim.csv,IS_JOLVersionA.csv,"ITEM SPECIFIC Version A",OLD,VALLEY,ADD,ON,U,82,21,Test,User,-,,Recall,Recall1,1364,,0,-1,-1,0,0,,,1
5db8a4f15f7e1a000a20d09c,mzs4vm5loc,Emily_Honors_Thesis_Part_2,1,166,2020-08-29T11:06:03-07:00,5.3763041496277,5,versionA_stim.csv,IS_JOLVersionA.csv,"ITEM SPECIFIC Version A",OLD,WAGE,MONEY,ON,F,8,38,Test,User,-,,Recall,Recall1,4155,CASH,0,2390,3783,0,0,,,1
5db8a4f15f7e1a000a20d09c,mzs4vm5loc,Emily_Honors_Thesis_Part_2,1,167,2020-08-29T11:06:07-07:00,4.8321218490601,5,versionA_stim.csv,IS_JOLVersionA.csv,"ITEM SPECIFIC Version A",OLD,PARK,HUNGRY,ON,U,68,49,Test,User,-,,Recall,Recall1,3574,,0,-1,-1,0,0,,,1
5db8a4f15f7e1a000a20d09c,mzs4vm5loc,Emily_Honors_Thesis_Part_2,1,168,2020-08-29T11:06:12-07:00,4.688371181488,5,versionA_stim.csv,IS_JOLVersionA.csv,"ITEM SPECIFIC Version A",OLD,FULL,ENOUGH,ON,B,26,33,Test,User,-,,Recall,Recall1,3234,ENOUGH,100,1888,3113,1,1,,,1
5db8a4f15f7e1a000a20d09c,mzs4vm5loc,Emily_Honors_Thesis_Part_2,1,169,2020-08-29T11:06:16-07:00,3.8564598560333,5,versionA_stim.csv,IS_JOLVersionA.csv,"ITEM SPECIFIC Version A",OLD,LIFT,WOMAN,ON,U,69,70,Test,User,-,,Recall,Recall1,2564,WOMAN,100,1498,2348,1,1,,,1
5db8a4f15f7e1a000a20d09c,mzs4vm5loc,Emily_Honors_Thesis_Part_2,1,170,2020-08-29T11:06:20-07:00,4.2574310302734,5,versionA_stim.csv,IS_JOLVersionA.csv,"ITEM SPECIFIC Version A",OLD,KIDNEY,LIVER,ON,S,53,73,Test,User,-,,Recall,Recall1,2968,LIVER,100,1497,2801,1,1,,,1
5db8a4f15f7e1a000a20d09c,mzs4vm5loc,Emily_Honors_Thesis_Part_2,1,171,2020-08-29T11:06:28-07:00,7.9487919807434,5,versionA_stim.csv,IS_JOLVersionA.csv,"ITEM SPECIFIC Version A",OLD,BEGIN,END,ON,S,54,16,Test,User,-,,Recall,Recall1,6786,END,100,4090,5526,1,1,,,1
5db8a4f15f7e1a000a20d09c,mzs4vm5loc,Emily_Honors_Thesis_Part_2,1,172,2020-08-29T11:06:35-07:00,6.8627150058746,5,versionA_stim.csv,IS_JOLVersionA.csv,"ITEM SPECIFIC Version A",OLD,LAW,ATTORNEY,ON,B,34,54,Test,User,-,,Recall,Recall1,5660,JURY,33.333333333333,1504,5368,0,0,,,1
5db8a4f15f7e1a000a20d09c,mzs4vm5loc,Emily_Honors_Thesis_Part_2,1,173,2020-08-29T11:06:40-07:00,4.6826570034027,5,versionA_stim.csv,IS_JOLVersionA.csv,"ITEM SPECIFIC Version A",OLD,ORCHID,FLOWER,ON,F,24,62,Test,User,-,,Recall,Recall1,3434,FLOWER,100,1618,3196,1,1,,,1
5db8a4f15f7e1a000a20d09c,mzs4vm5loc,Emily_Honors_Thesis_Part_2,1,174,2020-08-29T11:06:45-07:00,5.6840059757233,5,versionA_stim.csv,IS_JOLVersionA.csv,"ITEM SPECIFIC Version A",OLD,LOCATION,SITE,ON,S,48,78,Test,User,-,,Recall,Recall1,4502,,0,-1,-1,0,0,,,1
5db8a4f15f7e1a000a20d09c,mzs4vm5loc,Emily_Honors_Thesis_Part_2,1,175,2020-08-29T11:06:52-07:00,6.3669800758362,5,versionA_stim.csv,IS_JOLVersionA.csv,"ITEM SPECIFIC Version A",OLD,SUGAR,RIDDLE,ON,U,81,85,Test,User,-,,Recall,Recall1,5156,,0,3434,3434,0,0,,,1
5db8a4f15f7e1a000a20d09c,mzs4vm5loc,Emily_Honors_Thesis_Part_2,1,176,2020-08-29T11:06:55-07:00,3.2129368782043,5,versionA_stim.csv,IS_JOLVersionA.csv,"ITEM SPECIFIC Version A",OLD,PLANE,PILOT,ON,B,44,14,Test,User,-,,Recall,Recall1,1960,,0,-1,-1,0,0,,,1
5db8a4f15f7e1a000a20d09c,mzs4vm5loc,Emily_Honors_Thesis_Part_2,1,177,2020-08-29T11:06:58-07:00,3.2871181964874,5,versionA_stim.csv,IS_JOLVersionA.csv,"ITEM SPECIFIC Version A",OLD,REVOLUTION,WAR,ON,F,20,50,Test,User,-,,Recall,Recall1,2011,WAR,100,1447,1715,1,1,,,1
5db8a4f15f7e1a000a20d09c,mzs4vm5loc,Emily_Honors_Thesis_Part_2,1,178,2020-08-29T11:07:06-07:00,7.3658850193024,5,versionA_stim.csv,IS_JOLVersionA.csv,"ITEM SPECIFIC Version A",OLD,BITTER,COLD,ON,F,12,76,Test,User,-,,Recall,Recall1,6220,COLD,100,2274,5767,1,1,,,1
5db8a4f15f7e1a000a20d09c,mzs4vm5loc,Emily_Honors_Thesis_Part_2,1,179,2020-08-29T11:07:09-07:00,3.4003148078918,5,versionA_stim.csv,IS_JOLVersionA.csv,"ITEM SPECIFIC Version A",OLD,LETTUCE,SALAD,ON,S,59,55,Test,User,-,,Recall,Recall1,2061,SALAD,100,1250,1857,1,1,,,1
5db8a4f15f7e1a000a20d09c,mzs4vm5loc,Emily_Honors_Thesis_Part_2,1,180,2020-08-29T11:07:14-07:00,4.8056681156158,5,versionA_stim.csv,IS_JOLVersionA.csv,"ITEM SPECIFIC Version A",OLD,STRONG,ACCIDENT,ON,U,80,61,Test,User,-,,Recall,Recall1,3368,WEAK,16.666666666667,2214,2588,0,0,,,1
5db8a4f15f7e1a000a20d09c,mzs4vm5loc,Emily_Honors_Thesis_Part_2,1,181,2020-08-29T11:07:20-07:00,5.8465900421143,5,versionA_stim.csv,IS_JOLVersionA.csv,"ITEM SPECIFIC Version A",OLD,ALLOW,TUCK,ON,U,78,31,Test,User,-,,Recall,Recall1,4311,,0,-1,-1,0,0,,,1
5db8a4f15f7e1a000a20d09c,mzs4vm5loc,Emily_Honors_Thesis_Part_2,1,182,2020-08-29T11:07:23-07:00,3.2073609828949,5,versionA_stim.csv,IS_JOLVersionA.csv,"ITEM SPECIFIC Version A",OLD,PAW,DOG,ON,F,15,53,Test,User,-,,Recall,Recall1,1942,DOG,100,1462,1770,1,1,,,1
5db8a4f15f7e1a000a20d09c,mzs4vm5loc,Emily_Honors_Thesis_Part_2,1,183,2020-08-29T11:07:26-07:00,3.4802539348602,5,versionA_stim.csv,IS_JOLVersionA.csv,"ITEM SPECIFIC Version A",OLD,GEOLOGY,ROCK,ON,F,19,24,Test,User,-,,Recall,Recall1,2156,,0,-1,-1,0,0,,,1
5db8a4f15f7e1a000a20d09c,mzs4vm5loc,Emily_Honors_Thesis_Part_2,1,184,2020-08-29T11:07:33-07:00,7.0970270633698,5,versionA_stim.csv,IS_JOLVersionA.csv,"ITEM SPECIFIC Version A",OLD,BATHROOM,TOILET,ON,S,58,36,Test,User,-,,Recall,Recall1,5790,TOILET,100,3372,5573,1,1,,,1
5db8a4f15f7e1a000a20d09c,mzs4vm5loc,Emily_Honors_Thesis_Part_2,1,185,2020-08-29T11:07:37-07:00,3.401526927948,5,versionA_stim.csv,IS_JOLVersionA.csv,"ITEM SPECIFIC Version A",OLD,CREDIT,CARD,ON,F,23,64,Test,User,-,,Recall,Recall1,2113,CARD,100,1285,1834,1,1,,,1
5db8a4f15f7e1a000a20d09c,mzs4vm5loc,Emily_Honors_Thesis_Part_2,1,186,2020-08-29T11:07:41-07:00,4.4744889736176,5,versionA_stim.csv,IS_JOLVersionA.csv,"ITEM SPECIFIC Version A",OLD,PUSHER,CLUTTER,ON,U,66,58,Test,User,-,,Recall,Recall1,3271,PULLER,46.153846153846,1615,2601,0,0,,,1
5db8a4f15f7e1a000a20d09c,mzs4vm5loc,Emily_Honors_Thesis_Part_2,1,187,2020-08-29T11:07:47-07:00,5.2524769306183,5,versionA_stim.csv,IS_JOLVersionA.csv,"ITEM SPECIFIC Version A",OLD,MEANING,DEFINITION,ON,S,62,59,Test,User,-,,Recall,Recall1,4020,DEFINITION,100,2224,3712,1,1,,,1
5db8a4f15f7e1a000a20d09c,mzs4vm5loc,Emily_Honors_Thesis_Part_2,1,188,2020-08-29T11:07:52-07:00,5.596871137619,5,versionA_stim.csv,IS_JOLVersionA.csv,"ITEM SPECIFIC Version A",OLD,SENTENCE,WORD,ON,B,31,13,Test,User,-,,Recall,Recall1,4413,WORD,100,1874,3668,1,1,,,1
5db8a4f15f7e1a000a20d09c,mzs4vm5loc,Emily_Honors_Thesis_Part_2,1,189,2020-08-29T11:07:56-07:00,3.7672049999237,5,versionA_stim.csv,IS_JOLVersionA.csv,"ITEM SPECIFIC Version A",OLD,DARK,CAVE,ON,B,28,69,Test,User,-,,Recall,Recall1,2460,CAVE,100,1854,2308,1,1,,,1
5db8a4f15f7e1a000a20d09c,mzs4vm5loc,Emily_Honors_Thesis_Part_2,1,190,2020-08-29T11:07:59-07:00,3.0443780422211,5,versionA_stim.csv,IS_JOLVersionA.csv,"ITEM SPECIFIC Version A",OLD,BLOW,WIND,ON,S,55,45,Test,User,-,,Recall,Recall1,1678,,0,-1,-1,0,0,,,1
5db8a4f15f7e1a000a20d09c,mzs4vm5loc,Emily_Honors_Thesis_Part_2,1,191,2020-08-29T11:08:03-07:00,3.7821609973907,5,versionA_stim.csv,IS_JOLVersionA.csv,"ITEM SPECIFIC Version A",OLD,DEBATE,SIGHT,ON,U,73,9,Test,User,-,,Recall,Recall1,2551,DISCUSS,16.666666666667,1542,2395,0,0,,,1
5db8a4f15f7e1a000a20d09c,mzs4vm5loc,Emily_Honors_Thesis_Part_2,1,192,2020-08-29T11:08:06-07:00,3.2415099143982,5,versionA_stim.csv,IS_JOLVersionA.csv,"ITEM SPECIFIC Version A",OLD,HUNGER,FAMINE,ON,B,40,46,Test,User,-,,Recall,Recall1,2025,,0,-1,-1,0,0,,,1
5db8a4f15f7e1a000a20d09c,mzs4vm5loc,Emily_Honors_Thesis_Part_2,1,193,2020-08-29T11:08:09-07:00,3.1211869716644,5,versionA_stim.csv,IS_JOLVersionA.csv,"ITEM SPECIFIC Version A",OLD,TUNA,FISH,ON,F,25,41,Test,User,-,,Recall,Recall1,1846,FISH,100,1070,1670,1,1,,,1
5db8a4f15f7e1a000a20d09c,mzs4vm5loc,Emily_Honors_Thesis_Part_2,1,194,2020-08-29T11:08:12-07:00,2.7047009468079,5,versionA_stim.csv,IS_JOLVersionA.csv,"ITEM SPECIFIC Version A",OLD,ART,LION,ON,U,79,10,Test,User,-,,Recall,Recall1,1455,,0,-1,-1,0,0,,,1
5db8a4f15f7e1a000a20d09c,mzs4vm5loc,Emily_Honors_Thesis_Part_2,1,195,2020-08-29T11:08:29-07:00,17.083257198334,5,versionA_stim.csv,IS_JOLVersionA.csv,"ITEM SPECIFIC Version A",OLD,,,,,,0,Instruct,-,10,"You will now be presented with a new set of word pairs. Please study each pair. Remember that your memory will be tested! When finished, press Enter to move to the next pair.",Initial_Instruct,Instruct4,15900,,,-1,-1,,,,,1
5db8a4f15f7e1a000a20d09c,mzs4vm5loc,Emily_Honors_Thesis_Part_2,1,196,2020-08-29T11:08:42-07:00,13.366969823837,5,versionA_stim.csv,IS_JOLVersionA.csv,"ITEM SPECIFIC Version A",OLD,,,,,,0,Instruct,,10,"You will again be asked to rate your ability to remember these items using a 0 to 100 scale. Remember to use the full range of the scale!",,Instruct10,11045,,,-1,-1,,,,,1
5db8a4f15f7e1a000a20d09c,mzs4vm5loc,Emily_Honors_Thesis_Part_2,1,197,2020-08-29T11:09:00-07:00,17.556488037109,5,versionA_stim.csv,IS_JOLVersionA.csv,"ITEM SPECIFIC Version A",OLD,,,,,,0,Instruct,-,15,"As you study and make your ratings, please think about the unique featues of each item and how the two concepts are DIFFERENT from each other. For example, if you see the pair TURTLE-CAT, think about how TURTLES have shells and are reptiles, while CATS are mammals and have fur.",,Instruct20,16046,,,-1,-1,,,,,1
5db8a4f15f7e1a000a20d09c,mzs4vm5loc,Emily_Honors_Thesis_Part_2,1,198,2020-08-29T11:09:17-07:00,16.661306142807,5,versionA_stim.csv,IS_JOLVersionA.csv,"ITEM SPECIFIC Version A",OLD,,,,,,0,FreeRecall,-,10,"What you should think about as you study each item pair? Type your response in the box below.",,CHECK4,15280,"Differences between the items in the pair",0,4015,12342,0,0,,,1
5db8a4f15f7e1a000a20d09c,mzs4vm5loc,Emily_Honors_Thesis_Part_2,1,199,2020-08-29T11:09:23-07:00,6.4595608711243,5,versionA_stim.csv,IS_JOLVersionA.csv,"ITEM SPECIFIC Version A",OLD,,,,,,0,Instruct,User,-,"Press Enter when you are readty to begin",,Instruct11,5243,,,-1,-1,,,,,1
5db8a4f15f7e1a000a20d09c,mzs4vm5loc,Emily_Honors_Thesis_Part_2,1,200,2020-08-29T11:09:31-07:00,8.3950250148773,5,versionA_stim.csv,IS_JOLVersionA.csv,"ITEM SPECIFIC Version A",OLD,ICE,FROZEN,Buffer3,Buffer,94,93,JOL,User,-,"How likely are you to correctly recall the second item in the pair?|Type your response on a scale from 0-100 and then press Enter.",Study/JOL,BUFFER3,6970,,,5965,6526,,,,100,1
5db8a4f15f7e1a000a20d09c,mzs4vm5loc,Emily_Honors_Thesis_Part_2,1,201,2020-08-29T11:09:35-07:00,4.0497050285339,5,versionA_stim.csv,IS_JOLVersionA.csv,"ITEM SPECIFIC Version A",OLD,TOOL,SHED,Buffer3,Buffer,178,96,JOL,User,-,"How likely are you to correctly recall the second item in the pair?|Type your response on a scale from 0-100 and then press Enter.",Study/JOL,BUFFER3,2734,,,2157,2331,,,,50,1
5db8a4f15f7e1a000a20d09c,mzs4vm5loc,Emily_Honors_Thesis_Part_2,1,202,2020-08-29T11:09:42-07:00,6.191957950592,5,versionA_stim.csv,IS_JOLVersionA.csv,"ITEM SPECIFIC Version A",OLD,DAYS,WEAKS,Buffer3,Buffer,176,92,JOL,User,-,"How likely are you to correctly recall the second item in the pair?|Type your response on a scale from 0-100 and then press Enter.",Study/JOL,BUFFER3,4924,,,3484,4308,,,,1,1
5db8a4f15f7e1a000a20d09c,mzs4vm5loc,Emily_Honors_Thesis_Part_2,1,203,2020-08-29T11:09:51-07:00,9.6985731124878,5,versionA_stim.csv,IS_JOLVersionA.csv,"ITEM SPECIFIC Version A",OLD,SPRING,MARCH,Buffer3,Buffer,179,95,JOL,User,-,"How likely are you to correctly recall the second item in the pair?|Type your response on a scale from 0-100 and then press Enter.",Study/JOL,BUFFER3,8335,,,2406,7873,,,,60,1
5db8a4f15f7e1a000a20d09c,mzs4vm5loc,Emily_Honors_Thesis_Part_2,1,204,2020-08-29T11:09:56-07:00,5.0898218154907,5,versionA_stim.csv,IS_JOLVersionA.csv,"ITEM SPECIFIC Version A",OLD,CARROT,POTATO,Buffer3,Buffer,91,94,JOL,User,-,"How likely are you to correctly recall the second item in the pair?|Type your response on a scale from 0-100 and then press Enter.",Study/JOL,BUFFER3,3812,,,3136,3536,,,,70,1
5db8a4f15f7e1a000a20d09c,mzs4vm5loc,Emily_Honors_Thesis_Part_2,1,205,2020-08-29T11:10:00-07:00,3.9542350769043,5,versionA_stim.csv,IS_JOLVersionA.csv,"ITEM SPECIFIC Version A",OLD,MONEY,BANKER,ON2,B,132,131,JOL,User,-,"How likely are you to correctly recall the second item in the pair?|Type your response on a scale from 0-100 and then press Enter.",Study/JOL,"Study Phase2",2824,,,2168,2473,,,,80,1
5db8a4f15f7e1a000a20d09c,mzs4vm5loc,Emily_Honors_Thesis_Part_2,1,206,2020-08-29T11:10:08-07:00,7.2689919471741,5,versionA_stim.csv,IS_JOLVersionA.csv,"ITEM SPECIFIC Version A",OLD,PHONE,COMMUNICATION,ON2,S,149,101,JOL,User,-,"How likely are you to correctly recall the second item in the pair?|Type your response on a scale from 0-100 and then press Enter.",Study/JOL,"Study Phase2",5020,,,1762,4743,,,,65,1
5db8a4f15f7e1a000a20d09c,mzs4vm5loc,Emily_Honors_Thesis_Part_2,1,207,2020-08-29T11:10:12-07:00,4.7427780628204,5,versionA_stim.csv,IS_JOLVersionA.csv,"ITEM SPECIFIC Version A",OLD,FRUIT,STRAWBERRY,ON2,B,124,164,JOL,User,-,"How likely are you to correctly recall the second item in the pair?|Type your response on a scale from 0-100 and then press Enter.",Study/JOL,"Study Phase2",3594,,,1924,2298,,,,55,1
5db8a4f15f7e1a000a20d09c,mzs4vm5loc,Emily_Honors_Thesis_Part_2,1,208,2020-08-29T11:10:18-07:00,5.2766540050507,5,versionA_stim.csv,IS_JOLVersionA.csv,"ITEM SPECIFIC Version A",OLD,EXTENSION,LONG,ON2,F,96,134,JOL,User,-,"How likely are you to correctly recall the second item in the pair?|Type your response on a scale from 0-100 and then press Enter.",Study/JOL,"Study Phase2",3978,,,2324,3609,,,,53,1
5db8a4f15f7e1a000a20d09c,mzs4vm5loc,Emily_Honors_Thesis_Part_2,1,209,2020-08-29T11:10:21-07:00,3.761754989624,5,versionA_stim.csv,IS_JOLVersionA.csv,"ITEM SPECIFIC Version A",OLD,DRY,WET,ON2,S,146,114,JOL,User,-,"How likely are you to correctly recall the second item in the pair?|Type your response on a scale from 0-100 and then press Enter.",Study/JOL,"Study Phase2",2499,,,1835,2119,,,,80,1
5db8a4f15f7e1a000a20d09c,mzs4vm5loc,Emily_Honors_Thesis_Part_2,1,210,2020-08-29T11:10:25-07:00,3.9240009784698,5,versionA_stim.csv,IS_JOLVersionA.csv,"ITEM SPECIFIC Version A",OLD,JUSTICE,MAROON,ON2,U,156,162,JOL,User,-,"How likely are you to correctly recall the second item in the pair?|Type your response on a scale from 0-100 and then press Enter.",Study/JOL,"Study Phase2",2670,,,2193,2194,,,,0,1
5db8a4f15f7e1a000a20d09c,mzs4vm5loc,Emily_Honors_Thesis_Part_2,1,211,2020-08-29T11:10:30-07:00,4.6940290927887,5,versionA_stim.csv,IS_JOLVersionA.csv,"ITEM SPECIFIC Version A",OLD,RIGHTS,EQUAL,ON2,S,137,161,JOL,User,-,"How likely are you to correctly recall the second item in the pair?|Type your response on a scale from 0-100 and then press Enter.",Study/JOL,"Study Phase2",3380,,,2732,2943,,,,20,1
5db8a4f15f7e1a000a20d09c,mzs4vm5loc,Emily_Honors_Thesis_Part_2,1,212,2020-08-29T11:10:36-07:00,6.323312997818,5,versionA_stim.csv,IS_JOLVersionA.csv,"ITEM SPECIFIC Version A",OLD,DRIVER,CAR,ON2,F,106,103,JOL,User,-,"How likely are you to correctly recall the second item in the pair?|Type your response on a scale from 0-100 and then press Enter.",Study/JOL,"Study Phase2",5087,,,2447,4384,,,,40,1
5db8a4f15f7e1a000a20d09c,mzs4vm5loc,Emily_Honors_Thesis_Part_2,1,213,2020-08-29T11:10:40-07:00,4.0013749599457,5,versionA_stim.csv,IS_JOLVersionA.csv,"ITEM SPECIFIC Version A",OLD,BOTH,OUNCE,ON2,U,172,104,JOL,User,-,"How likely are you to correctly recall the second item in the pair?|Type your response on a scale from 0-100 and then press Enter.",Study/JOL,"Study Phase2",2762,,,2347,2347,,,,0,1
5db8a4f15f7e1a000a20d09c,mzs4vm5loc,Emily_Honors_Thesis_Part_2,1,214,2020-08-29T11:10:45-07:00,4.677964925766,5,versionA_stim.csv,IS_JOLVersionA.csv,"ITEM SPECIFIC Version A",OLD,FIGHT,BRAWL,ON2,B,135,132,JOL,User,-,"How likely are you to correctly recall the second item in the pair?|Type your response on a scale from 0-100 and then press Enter.",Study/JOL,"Study Phase2",3463,,,2933,3132,,,,90,1
5db8a4f15f7e1a000a20d09c,mzs4vm5loc,Emily_Honors_Thesis_Part_2,1,215,2020-08-29T11:10:50-07:00,4.7797000408173,5,versionA_stim.csv,IS_JOLVersionA.csv,"ITEM SPECIFIC Version A",OLD,CAR,WINDSHIELD,ON2,B,117,143,JOL,User,-,"How likely are you to correctly recall the second item in the pair?|Type your response on a scale from 0-100 and then press Enter.",Study/JOL,"Study Phase2",3493,,,2224,3100,,,,80,1
5db8a4f15f7e1a000a20d09c,mzs4vm5loc,Emily_Honors_Thesis_Part_2,1,216,2020-08-29T11:10:53-07:00,3.3163709640503,5,versionA_stim.csv,IS_JOLVersionA.csv,"ITEM SPECIFIC Version A",OLD,GLASS,BREAKABLE,ON2,B,127,116,JOL,User,-,"How likely are you to correctly recall the second item in the pair?|Type your response on a scale from 0-100 and then press Enter.",Study/JOL,"Study Phase2",2096,,,1326,1876,,,,85,1
5db8a4f15f7e1a000a20d09c,mzs4vm5loc,Emily_Honors_Thesis_Part_2,1,217,2020-08-29T11:10:57-07:00,4.2373270988464,5,versionA_stim.csv,IS_JOLVersionA.csv,"ITEM SPECIFIC Version A",OLD,CACTUS,PLANT,ON2,F,98,107,JOL,User,-,"How likely are you to correctly recall the second item in the pair?|Type your response on a scale from 0-100 and then press Enter.",Study/JOL,"Study Phase2",2959,,,1936,2736,,,,80,1
5db8a4f15f7e1a000a20d09c,mzs4vm5loc,Emily_Honors_Thesis_Part_2,1,218,2020-08-29T11:11:01-07:00,3.3852570056915,5,versionA_stim.csv,IS_JOLVersionA.csv,"ITEM SPECIFIC Version A",OLD,SAFETY,SEATBELT,ON2,S,147,147,JOL,User,-,"How likely are you to correctly recall the second item in the pair?|Type your response on a scale from 0-100 and then press Enter.",Study/JOL,"Study Phase2",2188,,,1554,1794,,,,78,1
5db8a4f15f7e1a000a20d09c,mzs4vm5loc,Emily_Honors_Thesis_Part_2,1,219,2020-08-29T11:11:05-07:00,4.5162220001221,5,versionA_stim.csv,IS_JOLVersionA.csv,"ITEM SPECIFIC Version A",OLD,HONEST,TRUTHFUL,ON2,B,133,145,JOL,User,-,"How likely are you to correctly recall the second item in the pair?|Type your response on a scale from 0-100 and then press Enter.",Study/JOL,"Study Phase2",3283,,,2330,3040,,,,90,1
5db8a4f15f7e1a000a20d09c,mzs4vm5loc,Emily_Honors_Thesis_Part_2,1,220,2020-08-29T11:11:13-07:00,7.3698558807373,5,versionA_stim.csv,IS_JOLVersionA.csv,"ITEM SPECIFIC Version A",OLD,CRACKLE,ABLE,ON2,U,162,130,JOL,User,-,"How likely are you to correctly recall the second item in the pair?|Type your response on a scale from 0-100 and then press Enter.",Study/JOL,"Study Phase2",5093,,,3731,3732,,,,4,1
5db8a4f15f7e1a000a20d09c,mzs4vm5loc,Emily_Honors_Thesis_Part_2,1,221,2020-08-29T11:11:19-07:00,6.1438901424408,5,versionA_stim.csv,IS_JOLVersionA.csv,"ITEM SPECIFIC Version A",OLD,STAR,ACTRESS,ON2,B,120,150,JOL,User,-,"How likely are you to correctly recall the second item in the pair?|Type your response on a scale from 0-100 and then press Enter.",Study/JOL,"Study Phase2",4913,,,2328,4504,,,,9,1
5db8a4f15f7e1a000a20d09c,mzs4vm5loc,Emily_Honors_Thesis_Part_2,1,222,2020-08-29T11:11:26-07:00,7.0288510322571,5,versionA_stim.csv,IS_JOLVersionA.csv,"ITEM SPECIFIC Version A",OLD,SHELL,SHAKE,ON2,U,163,170,JOL,User,-,"How likely are you to correctly recall the second item in the pair?|Type your response on a scale from 0-100 and then press Enter.",Study/JOL,"Study Phase2",5845,,,3896,5418,,,,0,1
5db8a4f15f7e1a000a20d09c,mzs4vm5loc,Emily_Honors_Thesis_Part_2,1,223,2020-08-29T11:11:30-07:00,4.2585999965668,5,versionA_stim.csv,IS_JOLVersionA.csv,"ITEM SPECIFIC Version A",OLD,TURN,FLIP,ON2,B,116,174,JOL,User,-,"How likely are you to correctly recall the second item in the pair?|Type your response on a scale from 0-100 and then press Enter.",Study/JOL,"Study Phase2",2969,,,2233,2233,,,,1,1
5db8a4f15f7e1a000a20d09c,mzs4vm5loc,Emily_Honors_Thesis_Part_2,1,224,2020-08-29T11:11:35-07:00,4.5129888057709,5,versionA_stim.csv,IS_JOLVersionA.csv,"ITEM SPECIFIC Version A",OLD,BIRD,PENGUIN,ON2,B,119,172,JOL,User,-,"How likely are you to correctly recall the second item in the pair?|Type your response on a scale from 0-100 and then press Enter.",Study/JOL,"Study Phase2",3278,,,1787,2917,,,,98,1
5db8a4f15f7e1a000a20d09c,mzs4vm5loc,Emily_Honors_Thesis_Part_2,1,225,2020-08-29T11:11:39-07:00,4.4600460529327,5,versionA_stim.csv,IS_JOLVersionA.csv,"ITEM SPECIFIC Version A",OLD,LITTER,TRASH,ON2,F,103,128,JOL,User,-,"How likely are you to correctly recall the second item in the pair?|Type your response on a scale from 0-100 and then press Enter.",Study/JOL,"Study Phase2",2977,,,1851,2481,,,,89,1
5db8a4f15f7e1a000a20d09c,mzs4vm5loc,Emily_Honors_Thesis_Part_2,1,226,2020-08-29T11:11:43-07:00,3.9321570396423,5,versionA_stim.csv,IS_JOLVersionA.csv,"ITEM SPECIFIC Version A",OLD,POP,BALLOON,ON2,B,123,153,JOL,User,-,"How likely are you to correctly recall the second item in the pair?|Type your response on a scale from 0-100 and then press Enter.",Study/JOL,"Study Phase2",2790,,,1637,2266,,,,90,1
5db8a4f15f7e1a000a20d09c,mzs4vm5loc,Emily_Honors_Thesis_Part_2,1,227,2020-08-29T11:11:50-07:00,7.4074289798737,5,versionA_stim.csv,IS_JOLVersionA.csv,"ITEM SPECIFIC Version A",OLD,RAZOR,SHAVE,ON2,S,136,158,JOL,User,-,"How likely are you to correctly recall the second item in the pair?|Type your response on a scale from 0-100 and then press Enter.",Study/JOL,"Study Phase2",6285,,,2006,5976,,,,88,1
5db8a4f15f7e1a000a20d09c,mzs4vm5loc,Emily_Honors_Thesis_Part_2,1,228,2020-08-29T11:11:58-07:00,7.41876912117,5,versionA_stim.csv,IS_JOLVersionA.csv,"ITEM SPECIFIC Version A",OLD,CAKE,CLOTHES,ON2,U,166,176,JOL,User,-,"How likely are you to correctly recall the second item in the pair?|Type your response on a scale from 0-100 and then press Enter.",Study/JOL,"Study Phase2",5088,,,3745,4532,,,,0,1
5db8a4f15f7e1a000a20d09c,mzs4vm5loc,Emily_Honors_Thesis_Part_2,1,229,2020-08-29T11:12:12-07:00,14.096754789352,5,versionA_stim.csv,IS_JOLVersionA.csv,"ITEM SPECIFIC Version A",OLD,NAME,HATE,ON2,U,167,171,JOL,User,-,"How likely are you to correctly recall the second item in the pair?|Type your response on a scale from 0-100 and then press Enter.",Study/JOL,"Study Phase2",12051,,,11526,11869,,,,2,0.964
5db8a4f15f7e1a000a20d09c,mzs4vm5loc,Emily_Honors_Thesis_Part_2,1,230,2020-08-29T11:12:16-07:00,4.3029072284698,5,versionA_stim.csv,IS_JOLVersionA.csv,"ITEM SPECIFIC Version A",OLD,MAZE,ELECTION,ON2,U,159,159,JOL,User,-,"How likely are you to correctly recall the second item in the pair?|Type your response on a scale from 0-100 and then press Enter.",Study/JOL,"Study Phase2",3033,,,2693,2693,,,,0,1
5db8a4f15f7e1a000a20d09c,mzs4vm5loc,Emily_Honors_Thesis_Part_2,1,231,2020-08-29T11:12:20-07:00,4.0716087818146,5,versionA_stim.csv,IS_JOLVersionA.csv,"ITEM SPECIFIC Version A",OLD,ELEMENT,CARBON,ON2,S,141,133,JOL,User,-,"How likely are you to correctly recall the second item in the pair?|Type your response on a scale from 0-100 and then press Enter.",Study/JOL,"Study Phase2",2777,,,2345,2427,,,,10,1
5db8a4f15f7e1a000a20d09c,mzs4vm5loc,Emily_Honors_Thesis_Part_2,1,232,2020-08-29T11:12:25-07:00,5.0600662231445,5,versionA_stim.csv,IS_JOLVersionA.csv,"ITEM SPECIFIC Version A",OLD,STRETCH,CLOTH,ON2,U,157,148,JOL,User,-,"How likely are you to correctly recall the second item in the pair?|Type your response on a scale from 0-100 and then press Enter.",Study/JOL,"Study Phase2",3522,,,1720,3241,,,,5,1
5db8a4f15f7e1a000a20d09c,mzs4vm5loc,Emily_Honors_Thesis_Part_2,1,233,2020-08-29T11:12:32-07:00,6.4066569805145,5,versionA_stim.csv,IS_JOLVersionA.csv,"ITEM SPECIFIC Version A",OLD,SLEEP,NAP,ON2,B,134,122,JOL,User,-,"How likely are you to correctly recall the second item in the pair?|Type your response on a scale from 0-100 and then press Enter.",Study/JOL,"Study Phase2",5072,,,3544,4697,,,,20,1
5db8a4f15f7e1a000a20d09c,mzs4vm5loc,Emily_Honors_Thesis_Part_2,1,234,2020-08-29T11:12:38-07:00,5.8504388332367,5,versionA_stim.csv,IS_JOLVersionA.csv,"ITEM SPECIFIC Version A",OLD,KEYS,JOKE,ON2,U,165,175,JOL,User,-,"How likely are you to correctly recall the second item in the pair?|Type your response on a scale from 0-100 and then press Enter.",Study/JOL,"Study Phase2",4528,,,3549,4129,,,,0,1
5db8a4f15f7e1a000a20d09c,mzs4vm5loc,Emily_Honors_Thesis_Part_2,1,235,2020-08-29T11:12:42-07:00,4.1508390903473,5,versionA_stim.csv,IS_JOLVersionA.csv,"ITEM SPECIFIC Version A",OLD,ROD,REEL,ON2,S,150,167,JOL,User,-,"How likely are you to correctly recall the second item in the pair?|Type your response on a scale from 0-100 and then press Enter.",Study/JOL,"Study Phase2",3055,,,2693,2694,,,,2,1
5db8a4f15f7e1a000a20d09c,mzs4vm5loc,Emily_Honors_Thesis_Part_2,1,236,2020-08-29T11:12:47-07:00,4.8430759906769,5,versionA_stim.csv,IS_JOLVersionA.csv,"ITEM SPECIFIC Version A",OLD,INCENSE,SMELL,ON2,F,110,155,JOL,User,-,"How likely are you to correctly recall the second item in the pair?|Type your response on a scale from 0-100 and then press Enter.",Study/JOL,"Study Phase2",3663,,,2645,2645,,,,0,1
5db8a4f15f7e1a000a20d09c,mzs4vm5loc,Emily_Honors_Thesis_Part_2,1,237,2020-08-29T11:12:51-07:00,3.9560079574585,5,versionA_stim.csv,IS_JOLVersionA.csv,"ITEM SPECIFIC Version A",OLD,DOCUMENT,PAPER,ON2,F,109,120,JOL,User,-,"How likely are you to correctly recall the second item in the pair?|Type your response on a scale from 0-100 and then press Enter.",Study/JOL,"Study Phase2",2658,,,2133,2409,,,,90,1
5db8a4f15f7e1a000a20d09c,mzs4vm5loc,Emily_Honors_Thesis_Part_2,1,238,2020-08-29T11:12:54-07:00,3.2192590236664,5,versionA_stim.csv,IS_JOLVersionA.csv,"ITEM SPECIFIC Version A",OLD,WRIST,BRACELET,ON2,S,140,137,JOL,User,-,"How likely are you to correctly recall the second item in the pair?|Type your response on a scale from 0-100 and then press Enter.",Study/JOL,"Study Phase2",1997,,,1467,1644,,,,50,1
5db8a4f15f7e1a000a20d09c,mzs4vm5loc,Emily_Honors_Thesis_Part_2,1,239,2020-08-29T11:13:00-07:00,6.1390929222107,5,versionA_stim.csv,IS_JOLVersionA.csv,"ITEM SPECIFIC Version A",OLD,,,,,,0,Instruct,-,3,"Remember to focus on how the two items are unique while you study and make your ratings!",,CHECK5,4823,,,-1,-1,,,,,1
5db8a4f15f7e1a000a20d09c,mzs4vm5loc,Emily_Honors_Thesis_Part_2,1,240,2020-08-29T11:13:05-07:00,4.8470289707184,5,versionA_stim.csv,IS_JOLVersionA.csv,"ITEM SPECIFIC Version A",OLD,CAT,PANTHER,ON2,B,126,139,JOL,User,-,"How likely are you to correctly recall the second item in the pair?|Type your response on a scale from 0-100 and then press Enter.",Study/JOL,"Study Phase2",3373,,,2670,2933,,,,80,1
5db8a4f15f7e1a000a20d09c,mzs4vm5loc,Emily_Honors_Thesis_Part_2,1,241,2020-08-29T11:13:09-07:00,3.8608200550079,5,versionA_stim.csv,IS_JOLVersionA.csv,"ITEM SPECIFIC Version A",OLD,ALONE,LONELY,ON2,S,145,144,JOL,User,-,"How likely are you to correctly recall the second item in the pair?|Type your response on a scale from 0-100 and then press Enter.",Study/JOL,"Study Phase2",2515,,,1945,2221,,,,100,1
5db8a4f15f7e1a000a20d09c,mzs4vm5loc,Emily_Honors_Thesis_Part_2,1,242,2020-08-29T11:13:14-07:00,4.9198610782623,5,versionA_stim.csv,IS_JOLVersionA.csv,"ITEM SPECIFIC Version A",OLD,TRUTH,LIE,ON2,S,148,111,JOL,User,-,"How likely are you to correctly recall the second item in the pair?|Type your response on a scale from 0-100 and then press Enter.",Study/JOL,"Study Phase2",3740,,,1791,3319,,,,99,1
5db8a4f15f7e1a000a20d09c,mzs4vm5loc,Emily_Honors_Thesis_Part_2,1,243,2020-08-29T11:13:20-07:00,6.1343500614166,5,versionA_stim.csv,IS_JOLVersionA.csv,"ITEM SPECIFIC Version A",OLD,MASON,JAR,ON2,S,138,163,JOL,User,-,"How likely are you to correctly recall the second item in the pair?|Type your response on a scale from 0-100 and then press Enter.",Study/JOL,"Study Phase2",4924,,,2407,4580,,,,94,1
5db8a4f15f7e1a000a20d09c,mzs4vm5loc,Emily_Honors_Thesis_Part_2,1,244,2020-08-29T11:13:24-07:00,4.7902548313141,5,versionA_stim.csv,IS_JOLVersionA.csv,"ITEM SPECIFIC Version A",OLD,SHEARS,SCISSORS,ON2,F,112,142,JOL,User,-,"How likely are you to correctly recall the second item in the pair?|Type your response on a scale from 0-100 and then press Enter.",Study/JOL,"Study Phase2",3446,,,2786,3064,,,,99,1
5db8a4f15f7e1a000a20d09c,mzs4vm5loc,Emily_Honors_Thesis_Part_2,1,245,2020-08-29T11:13:32-07:00,7.8713471889496,5,versionA_stim.csv,IS_JOLVersionA.csv,"ITEM SPECIFIC Version A",OLD,MEAT,OBTAIN,ON2,U,161,135,JOL,User,-,"How likely are you to correctly recall the second item in the pair?|Type your response on a scale from 0-100 and then press Enter.",Study/JOL,"Study Phase2",6689,,,5999,6350,,,,70,1
5db8a4f15f7e1a000a20d09c,mzs4vm5loc,Emily_Honors_Thesis_Part_2,1,246,2020-08-29T11:13:37-07:00,4.5160570144653,5,versionA_stim.csv,IS_JOLVersionA.csv,"ITEM SPECIFIC Version A",OLD,DEAD,COFFIN,ON2,B,128,173,JOL,User,-,"How likely are you to correctly recall the second item in the pair?|Type your response on a scale from 0-100 and then press Enter.",Study/JOL,"Study Phase2",3307,,,2114,2987,,,,76,1
5db8a4f15f7e1a000a20d09c,mzs4vm5loc,Emily_Honors_Thesis_Part_2,1,247,2020-08-29T11:13:46-07:00,8.7860639095306,5,versionA_stim.csv,IS_JOLVersionA.csv,"ITEM SPECIFIC Version A",OLD,CLUE,GAME,ON2,F,97,140,JOL,User,-,"How likely are you to correctly recall the second item in the pair?|Type your response on a scale from 0-100 and then press Enter.",Study/JOL,"Study Phase2",7544,,,3412,7166,,,,40,1
5db8a4f15f7e1a000a20d09c,mzs4vm5loc,Emily_Honors_Thesis_Part_2,1,248,2020-08-29T11:13:54-07:00,8.1099369525909,5,versionA_stim.csv,IS_JOLVersionA.csv,"ITEM SPECIFIC Version A",OLD,MAIN,SCAR,ON2,U,175,157,JOL,User,-,"How likely are you to correctly recall the second item in the pair?|Type your response on a scale from 0-100 and then press Enter.",Study/JOL,"Study Phase2",6806,,,2906,6108,,,,0,1
5db8a4f15f7e1a000a20d09c,mzs4vm5loc,Emily_Honors_Thesis_Part_2,1,249,2020-08-29T11:14:00-07:00,6.1796000003815,5,versionA_stim.csv,IS_JOLVersionA.csv,"ITEM SPECIFIC Version A",OLD,BEST,FAVORITE,ON2,B,125,160,JOL,User,-,"How likely are you to correctly recall the second item in the pair?|Type your response on a scale from 0-100 and then press Enter.",Study/JOL,"Study Phase2",4872,,,4339,4478,,,,10,1
5db8a4f15f7e1a000a20d09c,mzs4vm5loc,Emily_Honors_Thesis_Part_2,1,250,2020-08-29T11:14:05-07:00,5.0462300777435,5,versionA_stim.csv,IS_JOLVersionA.csv,"ITEM SPECIFIC Version A",OLD,LEASE,TOIL,ON2,U,170,124,JOL,User,-,"How likely are you to correctly recall the second item in the pair?|Type your response on a scale from 0-100 and then press Enter.",Study/JOL,"Study Phase2",3865,,,3469,3470,,,,2,1
5db8a4f15f7e1a000a20d09c,mzs4vm5loc,Emily_Honors_Thesis_Part_2,1,251,2020-08-29T11:14:09-07:00,4.392539024353,5,versionA_stim.csv,IS_JOLVersionA.csv,"ITEM SPECIFIC Version A",OLD,MIRROR,CHILDREN,ON2,U,174,110,JOL,User,-,"How likely are you to correctly recall the second item in the pair?|Type your response on a scale from 0-100 and then press Enter.",Study/JOL,"Study Phase2",3043,,,2668,2669,,,,1,1
5db8a4f15f7e1a000a20d09c,mzs4vm5loc,Emily_Honors_Thesis_Part_2,1,252,2020-08-29T11:14:14-07:00,4.353698015213,5,versionA_stim.csv,IS_JOLVersionA.csv,"ITEM SPECIFIC Version A",OLD,FEUD,FIGHT,ON2,F,113,119,JOL,User,-,"How likely are you to correctly recall the second item in the pair?|Type your response on a scale from 0-100 and then press Enter.",Study/JOL,"Study Phase2",3043,,,2495,2627,,,,40,1
5db8a4f15f7e1a000a20d09c,mzs4vm5loc,Emily_Honors_Thesis_Part_2,1,253,2020-08-29T11:14:24-07:00,10.679363965988,5,versionA_stim.csv,IS_JOLVersionA.csv,"ITEM SPECIFIC Version A",OLD,CHOP,CUT,ON2,F,107,97,JOL,User,-,"How likely are you to correctly recall the second item in the pair?|Type your response on a scale from 0-100 and then press Enter.",Study/JOL,"Study Phase2",9436,,,5181,9069,,,,68,1
5db8a4f15f7e1a000a20d09c,mzs4vm5loc,Emily_Honors_Thesis_Part_2,1,254,2020-08-29T11:14:30-07:00,5.4378139972687,5,versionA_stim.csv,IS_JOLVersionA.csv,"ITEM SPECIFIC Version A",OLD,EVEN,REVENGE,ON2,B,122,136,JOL,User,-,"How likely are you to correctly recall the second item in the pair?|Type your response on a scale from 0-100 and then press Enter.",Study/JOL,"Study Phase2",4194,,,2795,3780,,,,45,1
5db8a4f15f7e1a000a20d09c,mzs4vm5loc,Emily_Honors_Thesis_Part_2,1,255,2020-08-29T11:14:35-07:00,5.2260408401489,5,versionA_stim.csv,IS_JOLVersionA.csv,"ITEM SPECIFIC Version A",OLD,PLANE,AIRCRAFT,ON2,B,129,112,JOL,User,-,"How likely are you to correctly recall the second item in the pair?|Type your response on a scale from 0-100 and then press Enter.",Study/JOL,"Study Phase2",3979,,,1659,3687,,,,70,1
5db8a4f15f7e1a000a20d09c,mzs4vm5loc,Emily_Honors_Thesis_Part_2,1,256,2020-08-29T11:14:43-07:00,7.8247570991516,5,versionA_stim.csv,IS_JOLVersionA.csv,"ITEM SPECIFIC Version A",OLD,EARTH,GROUND,ON2,S,144,118,JOL,User,-,"How likely are you to correctly recall the second item in the pair?|Type your response on a scale from 0-100 and then press Enter.",Study/JOL,"Study Phase2",6650,,,4694,6395,,,,100,1
5db8a4f15f7e1a000a20d09c,mzs4vm5loc,Emily_Honors_Thesis_Part_2,1,257,2020-08-29T11:14:47-07:00,4.414370059967,5,versionA_stim.csv,IS_JOLVersionA.csv,"ITEM SPECIFIC Version A",OLD,CANDLE,WAX,ON2,S,139,113,JOL,User,-,"How likely are you to correctly recall the second item in the pair?|Type your response on a scale from 0-100 and then press Enter.",Study/JOL,"Study Phase2",3118,,,2563,2822,,,,90,1
5db8a4f15f7e1a000a20d09c,mzs4vm5loc,Emily_Honors_Thesis_Part_2,1,258,2020-08-29T11:14:51-07:00,3.8408360481262,5,versionA_stim.csv,IS_JOLVersionA.csv,"ITEM SPECIFIC Version A",OLD,ADJOURN,END,ON2,F,101,115,JOL,User,-,"How likely are you to correctly recall the second item in the pair?|Type your response on a scale from 0-100 and then press Enter.",Study/JOL,"Study Phase2",2440,,,2041,2041,,,,0,1
5db8a4f15f7e1a000a20d09c,mzs4vm5loc,Emily_Honors_Thesis_Part_2,1,259,2020-08-29T11:14:56-07:00,5.1974899768829,5,versionA_stim.csv,IS_JOLVersionA.csv,"ITEM SPECIFIC Version A",OLD,FURRY,DOG,ON2,F,102,98,JOL,User,-,"How likely are you to correctly recall the second item in the pair?|Type your response on a scale from 0-100 and then press Enter.",Study/JOL,"Study Phase2",3779,,,1317,3424,,,,99,1
5db8a4f15f7e1a000a20d09c,mzs4vm5loc,Emily_Honors_Thesis_Part_2,1,260,2020-08-29T11:15:03-07:00,7.0540900230408,5,versionA_stim.csv,IS_JOLVersionA.csv,"ITEM SPECIFIC Version A",OLD,GONE,AWAY,ON2,S,142,108,JOL,User,-,"How likely are you to correctly recall the second item in the pair?|Type your response on a scale from 0-100 and then press Enter.",Study/JOL,"Study Phase2",4784,,,3242,4370,,,,89,1
5db8a4f15f7e1a000a20d09c,mzs4vm5loc,Emily_Honors_Thesis_Part_2,1,261,2020-08-29T11:15:08-07:00,5.0709328651428,5,versionA_stim.csv,IS_JOLVersionA.csv,"ITEM SPECIFIC Version A",OLD,TANTRUM,TEMPER,ON2,S,154,126,JOL,User,-,"How likely are you to correctly recall the second item in the pair?|Type your response on a scale from 0-100 and then press Enter.",Study/JOL,"Study Phase2",3779,,,2002,3327,,,,75,1
5db8a4f15f7e1a000a20d09c,mzs4vm5loc,Emily_Honors_Thesis_Part_2,1,262,2020-08-29T11:15:16-07:00,7.8905169963837,5,versionA_stim.csv,IS_JOLVersionA.csv,"ITEM SPECIFIC Version A",OLD,DINE,EAT,ON2,F,111,105,JOL,User,-,"How likely are you to correctly recall the second item in the pair?|Type your response on a scale from 0-100 and then press Enter.",Study/JOL,"Study Phase2",5634,,,2800,4624,,,,59,1
5db8a4f15f7e1a000a20d09c,mzs4vm5loc,Emily_Honors_Thesis_Part_2,1,263,2020-08-29T11:15:20-07:00,3.4990470409393,5,versionA_stim.csv,IS_JOLVersionA.csv,"ITEM SPECIFIC Version A",OLD,VEHICLE,CHARM,ON2,U,160,151,JOL,User,-,"How likely are you to correctly recall the second item in the pair?|Type your response on a scale from 0-100 and then press Enter.",Study/JOL,"Study Phase2",2259,,,1877,1877,,,,0,1
5db8a4f15f7e1a000a20d09c,mzs4vm5loc,Emily_Honors_Thesis_Part_2,1,264,2020-08-29T11:15:24-07:00,3.7682418823242,5,versionA_stim.csv,IS_JOLVersionA.csv,"ITEM SPECIFIC Version A",OLD,MOAT,CLEAR,ON2,U,169,102,JOL,User,-,"How likely are you to correctly recall the second item in the pair?|Type your response on a scale from 0-100 and then press Enter.",Study/JOL,"Study Phase2",2514,,,2159,2159,,,,1,1
5db8a4f15f7e1a000a20d09c,mzs4vm5loc,Emily_Honors_Thesis_Part_2,1,265,2020-08-29T11:15:32-07:00,8.1466031074524,5,versionA_stim.csv,IS_JOLVersionA.csv,"ITEM SPECIFIC Version A",OLD,SHOELACE,TIE,ON2,F,99,169,JOL,User,-,"How likely are you to correctly recall the second item in the pair?|Type your response on a scale from 0-100 and then press Enter.",Study/JOL,"Study Phase2",6959,,,4463,6639,,,,50,1
5db8a4f15f7e1a000a20d09c,mzs4vm5loc,Emily_Honors_Thesis_Part_2,1,266,2020-08-29T11:15:36-07:00,4.0367300510406,5,versionA_stim.csv,IS_JOLVersionA.csv,"ITEM SPECIFIC Version A",OLD,MULE,DONKEY,ON2,F,108,99,JOL,User,-,"How likely are you to correctly recall the second item in the pair?|Type your response on a scale from 0-100 and then press Enter.",Study/JOL,"Study Phase2",2804,,,2243,2551,,,,100,1
5db8a4f15f7e1a000a20d09c,mzs4vm5loc,Emily_Honors_Thesis_Part_2,1,267,2020-08-29T11:15:40-07:00,3.7212300300598,5,versionA_stim.csv,IS_JOLVersionA.csv,"ITEM SPECIFIC Version A",OLD,AFFECTION,LOVE,ON2,F,115,117,JOL,User,-,"How likely are you to correctly recall the second item in the pair?|Type your response on a scale from 0-100 and then press Enter.",Study/JOL,"Study Phase2",2210,,,1579,1844,,,,90,1
5db8a4f15f7e1a000a20d09c,mzs4vm5loc,Emily_Honors_Thesis_Part_2,1,268,2020-08-29T11:15:43-07:00,3.3984799385071,5,versionA_stim.csv,IS_JOLVersionA.csv,"ITEM SPECIFIC Version A",OLD,OWN,HAVE,ON2,S,153,123,JOL,User,-,"How likely are you to correctly recall the second item in the pair?|Type your response on a scale from 0-100 and then press Enter.",Study/JOL,"Study Phase2",2114,,,1662,1789,,,,95,1
5db8a4f15f7e1a000a20d09c,mzs4vm5loc,Emily_Honors_Thesis_Part_2,1,269,2020-08-29T11:15:49-07:00,6.1343059539795,5,versionA_stim.csv,IS_JOLVersionA.csv,"ITEM SPECIFIC Version A",OLD,FLEA,TICK,ON2,S,151,125,JOL,User,-,"How likely are you to correctly recall the second item in the pair?|Type your response on a scale from 0-100 and then press Enter.",Study/JOL,"Study Phase2",4941,,,3525,3920,,,,30,1
5db8a4f15f7e1a000a20d09c,mzs4vm5loc,Emily_Honors_Thesis_Part_2,1,270,2020-08-29T11:15:59-07:00,9.8085420131683,5,versionA_stim.csv,IS_JOLVersionA.csv,"ITEM SPECIFIC Version A",OLD,WATER,DRINK,ON2,S,143,156,JOL,User,-,"How likely are you to correctly recall the second item in the pair?|Type your response on a scale from 0-100 and then press Enter.",Study/JOL,"Study Phase2",8407,,,4178,7958,,,,99,1
5db8a4f15f7e1a000a20d09c,mzs4vm5loc,Emily_Honors_Thesis_Part_2,1,271,2020-08-29T11:16:05-07:00,5.8384220600128,5,versionA_stim.csv,IS_JOLVersionA.csv,"ITEM SPECIFIC Version A",OLD,BAD,VILLAIN,ON2,B,118,129,JOL,User,-,"How likely are you to correctly recall the second item in the pair?|Type your response on a scale from 0-100 and then press Enter.",Study/JOL,"Study Phase2",4688,,,1334,4243,,,,99,1
5db8a4f15f7e1a000a20d09c,mzs4vm5loc,Emily_Honors_Thesis_Part_2,1,272,2020-08-29T11:16:12-07:00,7.615709066391,5,versionA_stim.csv,IS_JOLVersionA.csv,"ITEM SPECIFIC Version A",OLD,FISH,SARDINE,ON2,B,130,100,JOL,User,-,"How likely are you to correctly recall the second item in the pair?|Type your response on a scale from 0-100 and then press Enter.",Study/JOL,"Study Phase2",6277,,,2547,5945,,,,87,1
5db8a4f15f7e1a000a20d09c,mzs4vm5loc,Emily_Honors_Thesis_Part_2,1,273,2020-08-29T11:16:17-07:00,4.5314078330994,5,versionA_stim.csv,IS_JOLVersionA.csv,"ITEM SPECIFIC Version A",OLD,LOUD,NOISE,ON2,S,152,152,JOL,User,-,"How likely are you to correctly recall the second item in the pair?|Type your response on a scale from 0-100 and then press Enter.",Study/JOL,"Study Phase2",3261,,,2414,2731,,,,89,1
5db8a4f15f7e1a000a20d09c,mzs4vm5loc,Emily_Honors_Thesis_Part_2,1,274,2020-08-29T11:16:24-07:00,7.0535199642181,5,versionA_stim.csv,IS_JOLVersionA.csv,"ITEM SPECIFIC Version A",OLD,SUN,TAN,ON2,S,155,138,JOL,User,-,"How likely are you to correctly recall the second item in the pair?|Type your response on a scale from 0-100 and then press Enter.",Study/JOL,"Study Phase2",5525,,,2573,4909,,,,64,1
5db8a4f15f7e1a000a20d09c,mzs4vm5loc,Emily_Honors_Thesis_Part_2,1,275,2020-08-29T11:16:35-07:00,10.619882106781,5,versionA_stim.csv,IS_JOLVersionA.csv,"ITEM SPECIFIC Version A",OLD,DETECTIVE,MYSTERY,ON2,F,100,109,JOL,User,-,"How likely are you to correctly recall the second item in the pair?|Type your response on a scale from 0-100 and then press Enter.",Study/JOL,"Study Phase2",9452,,,4245,8901,,,,72,0.957
5db8a4f15f7e1a000a20d09c,mzs4vm5loc,Emily_Honors_Thesis_Part_2,1,276,2020-08-29T11:16:42-07:00,7.151969909668,5,versionA_stim.csv,IS_JOLVersionA.csv,"ITEM SPECIFIC Version A",OLD,CHERRY,RED,ON2,F,104,146,JOL,User,-,"How likely are you to correctly recall the second item in the pair?|Type your response on a scale from 0-100 and then press Enter.",Study/JOL,"Study Phase2",5909,,,2227,5520,,,,28,1
