Username,ID,ExperimentName,Session,Trial,Date,TimeDif,"Condition Number","Stimuli File","Order File","Condition Description","Condition Notes",Stimuli*Cue,Stimuli*Answer,Stimuli*Shuffle,"Stimuli*Stimuli Notes",Stimuli*Value,Procedure*Item,"Procedure*Trial Type","Procedure*Max Time","Procedure*Min Time",Procedure*Text,"Procedure*Procedure Notes",Procedure*Shuffle,Response*RT,Response*Response,Response*Accuracy,Response*RTfirst,Response*RTlast,Response*strictAcc,Response*lenientAcc,Response*focus,Response*JOL,Response*Focus
59ad75aba372d6000157ee35,rus15x4zw1,Emily_Honors_Thesis_Part_2,1,1,2020-08-29T11:01:08-07:00,12.029082775116,4,versionC_stim.csv,READ_JOLVersionD.csv,"READ Version D",OLD,,,,,,0,Instruct,-,10,"In this section, you will be presented with a series of word pairs. As you study, you will be asked to rate your ability to remember the second item in the pair if you were only shown the first at test. You will make these ratings using a 0 to 100 Scale.",,Instruct13,11526,,,-1,-1,,,,,1
59ad75aba372d6000157ee35,rus15x4zw1,Emily_Honors_Thesis_Part_2,1,2,2020-08-29T11:01:20-07:00,12.453748226166,4,versionC_stim.csv,READ_JOLVersionD.csv,"READ Version D",OLD,,,,,,0,Instruct,-,10,"For example, if you are given the pair CAT - DOG, a rating of 0 indicates that you would not remember DOG at test, while a rating of 100 indicates full certainty that you would remember the word DOG at test.",,Instruct14,11913,,,-1,-1,,,,,1
59ad75aba372d6000157ee35,rus15x4zw1,Emily_Honors_Thesis_Part_2,1,3,2020-08-29T11:01:32-07:00,11.395799875259,4,versionC_stim.csv,READ_JOLVersionD.csv,"READ Version D",OLD,,,,,,0,Instruct,-,10,"When making your ratings, it is criticial that you use the full range of the scale. You will be disqualified for only giving ratings of 0 or 100! After making your rating, press Enter to advance to the next pair.",,Instruct15,10912,,,-1,-1,,,,,1
59ad75aba372d6000157ee35,rus15x4zw1,Emily_Honors_Thesis_Part_2,1,4,2020-08-29T11:01:38-07:00,6.2262980937958,4,versionC_stim.csv,READ_JOLVersionD.csv,"READ Version D",OLD,,,,,,0,Instruct,-,5,"You will now complete a practice session. Please study the following items and rate your ability to remember them.",,Instruct17,5762,,,-1,-1,,,,,1
59ad75aba372d6000157ee35,rus15x4zw1,Emily_Honors_Thesis_Part_2,1,5,2020-08-29T11:01:44-07:00,5.893052816391,4,versionC_stim.csv,READ_JOLVersionD.csv,"READ Version D",OLD,CHIME,MUSIC,PRACTICE,PRACTICE,188,184,JOL,User,-,"How likely are you to correctly recall the second item in the pair?|Type your response on a scale from 0-100 and then press Enter.",Study/JOL,PRACTICE,5388,,,3228,3438,,,,80,1
59ad75aba372d6000157ee35,rus15x4zw1,Emily_Honors_Thesis_Part_2,1,6,2020-08-29T11:01:51-07:00,6.7292060852051,4,versionC_stim.csv,READ_JOLVersionD.csv,"READ Version D",OLD,AARDVARK,ZOO,PRACTICE,PRACTICE,181,183,JOL,User,-,"How likely are you to correctly recall the second item in the pair?|Type your response on a scale from 0-100 and then press Enter.",Study/JOL,PRACTICE,6242,,,3775,4148,,,,70,1
59ad75aba372d6000157ee35,rus15x4zw1,Emily_Honors_Thesis_Part_2,1,7,2020-08-29T11:01:57-07:00,6.7683420181274,4,versionC_stim.csv,READ_JOLVersionD.csv,"READ Version D",OLD,HAM,BONE,PRACTICE,PRACTICE,183,182,JOL,User,-,"How likely are you to correctly recall the second item in the pair?|Type your response on a scale from 0-100 and then press Enter.",Study/JOL,PRACTICE,6250,,,4162,4559,,,,70,1
59ad75aba372d6000157ee35,rus15x4zw1,Emily_Honors_Thesis_Part_2,1,8,2020-08-29T11:02:05-07:00,7.3171000480652,4,versionC_stim.csv,READ_JOLVersionD.csv,"READ Version D",OLD,DISBELIEVE,SKEPTIC,PRACTICE,PRACTICE,186,186,JOL,User,-,"How likely are you to correctly recall the second item in the pair?|Type your response on a scale from 0-100 and then press Enter.",Study/JOL,PRACTICE,6802,,,5107,5278,,,,80,1
59ad75aba372d6000157ee35,rus15x4zw1,Emily_Honors_Thesis_Part_2,1,9,2020-08-29T11:02:11-07:00,5.9812309741974,4,versionC_stim.csv,READ_JOLVersionD.csv,"READ Version D",OLD,DEAF,MUTE,PRACTICE,PRACTICE,182,189,JOL,User,-,"How likely are you to correctly recall the second item in the pair?|Type your response on a scale from 0-100 and then press Enter.",Study/JOL,PRACTICE,5517,,,3527,3699,,,,90,1
59ad75aba372d6000157ee35,rus15x4zw1,Emily_Honors_Thesis_Part_2,1,10,2020-08-29T11:02:17-07:00,6.2798240184784,4,versionC_stim.csv,READ_JOLVersionD.csv,"READ Version D",OLD,BEHAVIOR,SOCIAL,PRACTICE,PRACTICE,189,191,JOL,User,-,"How likely are you to correctly recall the second item in the pair?|Type your response on a scale from 0-100 and then press Enter.",Study/JOL,PRACTICE,5809,,,3129,4684,,,,60,1
59ad75aba372d6000157ee35,rus15x4zw1,Emily_Honors_Thesis_Part_2,1,11,2020-08-29T11:02:22-07:00,5.0776410102844,4,versionC_stim.csv,READ_JOLVersionD.csv,"READ Version D",OLD,FASHION,MODEL,PRACTICE,PRACTICE,190,188,JOL,User,-,"How likely are you to correctly recall the second item in the pair?|Type your response on a scale from 0-100 and then press Enter.",Study/JOL,PRACTICE,4598,,,3365,3559,,,,90,1
59ad75aba372d6000157ee35,rus15x4zw1,Emily_Honors_Thesis_Part_2,1,12,2020-08-29T11:02:31-07:00,9.0765609741211,4,versionC_stim.csv,READ_JOLVersionD.csv,"READ Version D",OLD,HINGE,SWING,PRACTICE,PRACTICE,185,185,JOL,User,-,"How likely are you to correctly recall the second item in the pair?|Type your response on a scale from 0-100 and then press Enter.",Study/JOL,PRACTICE,8580,,,7227,7413,,,,90,1
59ad75aba372d6000157ee35,rus15x4zw1,Emily_Honors_Thesis_Part_2,1,13,2020-08-29T11:02:38-07:00,7.1031489372253,4,versionC_stim.csv,READ_JOLVersionD.csv,"READ Version D",OLD,PADDLE,ROW,PRACTICE,PRACTICE,184,187,JOL,User,-,"How likely are you to correctly recall the second item in the pair?|Type your response on a scale from 0-100 and then press Enter.",Study/JOL,PRACTICE,6627,,,5681,5867,,,,90,1
59ad75aba372d6000157ee35,rus15x4zw1,Emily_Honors_Thesis_Part_2,1,14,2020-08-29T11:02:44-07:00,5.9484720230103,4,versionC_stim.csv,READ_JOLVersionD.csv,"READ Version D",OLD,CHOCOLATE,BAR,PRACTICE,PRACTICE,187,190,JOL,User,-,"How likely are you to correctly recall the second item in the pair?|Type your response on a scale from 0-100 and then press Enter.",Study/JOL,PRACTICE,5503,,,4054,4811,,,,100,1
59ad75aba372d6000157ee35,rus15x4zw1,Emily_Honors_Thesis_Part_2,1,15,2020-08-29T11:02:46-07:00,1.9279289245605,4,versionC_stim.csv,READ_JOLVersionD.csv,"READ Version D",OLD,,,,,,0,Instruct,User,-,"You have completed this section. Please press Enter to continue.",,Instruct18,1542,,,-1,-1,,,,,1
59ad75aba372d6000157ee35,rus15x4zw1,Emily_Honors_Thesis_Part_2,1,16,2020-08-29T11:02:48-07:00,1.8144500255585,4,versionC_stim.csv,READ_JOLVersionD.csv,"READ Version D",OLD,,,,,,0,Instruct,User,-,"You will now begin the study. Press Enter when you are ready to begin.",,Instruct16,1409,,,-1,-1,,,,,1
59ad75aba372d6000157ee35,rus15x4zw1,Emily_Honors_Thesis_Part_2,1,17,2020-08-29T11:02:52-07:00,4.2796671390533,4,versionC_stim.csv,READ_JOLVersionD.csv,"READ Version D",OLD,MARCH,SPRING,Buffer3,Buffer,179,92,JOL,User,-,"How likely are you to correctly recall the second item in the pair?|Type your response on a scale from 0-100 and then press Enter.",Study/JOL,BUFFER,3781,,,3121,3364,,,,80,1
59ad75aba372d6000157ee35,rus15x4zw1,Emily_Honors_Thesis_Part_2,1,18,2020-08-29T11:02:57-07:00,4.7351360321045,4,versionC_stim.csv,READ_JOLVersionD.csv,"READ Version D",OLD,POTATO,CARROT,Buffer3,Buffer,91,94,JOL,User,-,"How likely are you to correctly recall the second item in the pair?|Type your response on a scale from 0-100 and then press Enter.",Study/JOL,BUFFER,4220,,,3309,3793,,,,60,1
59ad75aba372d6000157ee35,rus15x4zw1,Emily_Honors_Thesis_Part_2,1,19,2020-08-29T11:03:00-07:00,3.2113800048828,4,versionC_stim.csv,READ_JOLVersionD.csv,"READ Version D",OLD,YEAR,MONTH,Buffer3,Buffer,177,95,JOL,User,-,"How likely are you to correctly recall the second item in the pair?|Type your response on a scale from 0-100 and then press Enter.",Study/JOL,BUFFER,2745,,,2057,2245,,,,90,1
59ad75aba372d6000157ee35,rus15x4zw1,Emily_Honors_Thesis_Part_2,1,20,2020-08-29T11:03:04-07:00,3.3261349201202,4,versionC_stim.csv,READ_JOLVersionD.csv,"READ Version D",OLD,ADVENTURE,CAMP,Buffer3,Buffer,95,96,JOL,User,-,"How likely are you to correctly recall the second item in the pair?|Type your response on a scale from 0-100 and then press Enter.",Study/JOL,BUFFER,2831,,,1624,2478,,,,90,1
59ad75aba372d6000157ee35,rus15x4zw1,Emily_Honors_Thesis_Part_2,1,21,2020-08-29T11:03:07-07:00,3.4699540138245,4,versionC_stim.csv,READ_JOLVersionD.csv,"READ Version D",OLD,FISH,SHRIMP,Buffer3,Buffer,93,93,JOL,User,-,"How likely are you to correctly recall the second item in the pair?|Type your response on a scale from 0-100 and then press Enter.",Study/JOL,BUFFER,2986,,,2154,2604,,,,60,1
59ad75aba372d6000157ee35,rus15x4zw1,Emily_Honors_Thesis_Part_2,1,22,2020-08-29T11:03:14-07:00,6.7758359909058,4,versionC_stim.csv,READ_JOLVersionD.csv,"READ Version D",OLD,PAPER,DOCUMENT,ON2,B,109,142,JOL,User,-,"How likely are you to correctly recall the second item in the pair?|Type your response on a scale from 0-100 and then press Enter.",Study/JOL,"Study Phase",6304,,,4389,5968,,,,80,1
59ad75aba372d6000157ee35,rus15x4zw1,Emily_Honors_Thesis_Part_2,1,23,2020-08-29T11:03:18-07:00,4.4425849914551,4,versionC_stim.csv,READ_JOLVersionD.csv,"READ Version D",OLD,BANKER,MONEY,ON2,F,132,134,JOL,User,-,"How likely are you to correctly recall the second item in the pair?|Type your response on a scale from 0-100 and then press Enter.",Study/JOL,"Study Phase",3958,,,2273,2793,,,,90,1
59ad75aba372d6000157ee35,rus15x4zw1,Emily_Honors_Thesis_Part_2,1,24,2020-08-29T11:03:23-07:00,4.4345810413361,4,versionC_stim.csv,READ_JOLVersionD.csv,"READ Version D",OLD,TRUTHFUL,HONEST,ON2,F,133,99,JOL,User,-,"How likely are you to correctly recall the second item in the pair?|Type your response on a scale from 0-100 and then press Enter.",Study/JOL,"Study Phase",3969,,,2172,3567,,,,100,1
59ad75aba372d6000157ee35,rus15x4zw1,Emily_Honors_Thesis_Part_2,1,25,2020-08-29T11:03:26-07:00,3.610426902771,4,versionC_stim.csv,READ_JOLVersionD.csv,"READ Version D",OLD,HAVE,OWN,ON2,S,153,156,JOL,User,-,"How likely are you to correctly recall the second item in the pair?|Type your response on a scale from 0-100 and then press Enter.",Study/JOL,"Study Phase",3156,,,2293,2793,,,,60,1
59ad75aba372d6000157ee35,rus15x4zw1,Emily_Honors_Thesis_Part_2,1,26,2020-08-29T11:03:30-07:00,3.532732963562,4,versionC_stim.csv,READ_JOLVersionD.csv,"READ Version D",OLD,FIGHT,FEUD,ON2,B,113,124,JOL,User,-,"How likely are you to correctly recall the second item in the pair?|Type your response on a scale from 0-100 and then press Enter.",Study/JOL,"Study Phase",3051,,,2412,2689,,,,80,1
59ad75aba372d6000157ee35,rus15x4zw1,Emily_Honors_Thesis_Part_2,1,27,2020-08-29T11:03:40-07:00,10.689038038254,4,versionC_stim.csv,READ_JOLVersionD.csv,"READ Version D",OLD,MYSTERY,DETECTIVE,ON2,B,100,126,JOL,User,-,"How likely are you to correctly recall the second item in the pair?|Type your response on a scale from 0-100 and then press Enter.",Study/JOL,"Study Phase",10215,,,9610,9884,,,,70,1
59ad75aba372d6000157ee35,rus15x4zw1,Emily_Honors_Thesis_Part_2,1,28,2020-08-29T11:03:47-07:00,6.5568759441376,4,versionC_stim.csv,READ_JOLVersionD.csv,"READ Version D",OLD,FAVORITE,BEST,ON2,F,125,107,JOL,User,-,"How likely are you to correctly recall the second item in the pair?|Type your response on a scale from 0-100 and then press Enter.",Study/JOL,"Study Phase",6091,,,2506,5771,,,,60,1
59ad75aba372d6000157ee35,rus15x4zw1,Emily_Honors_Thesis_Part_2,1,29,2020-08-29T11:03:50-07:00,2.899405002594,4,versionC_stim.csv,READ_JOLVersionD.csv,"READ Version D",OLD,GROUND,EARTH,ON2,S,144,135,JOL,User,-,"How likely are you to correctly recall the second item in the pair?|Type your response on a scale from 0-100 and then press Enter.",Study/JOL,"Study Phase",2440,,,1767,2054,,,,80,1
59ad75aba372d6000157ee35,rus15x4zw1,Emily_Honors_Thesis_Part_2,1,30,2020-08-29T11:03:55-07:00,4.6809091567993,4,versionC_stim.csv,READ_JOLVersionD.csv,"READ Version D",OLD,STRAWBERRY,FRUIT,ON2,F,124,166,JOL,User,-,"How likely are you to correctly recall the second item in the pair?|Type your response on a scale from 0-100 and then press Enter.",Study/JOL,"Study Phase",4209,,,3651,3837,,,,90,1
59ad75aba372d6000157ee35,rus15x4zw1,Emily_Honors_Thesis_Part_2,1,31,2020-08-29T11:03:59-07:00,4.6067898273468,4,versionC_stim.csv,READ_JOLVersionD.csv,"READ Version D",OLD,SHAKE,SHELL,ON2,U,163,128,JOL,User,-,"How likely are you to correctly recall the second item in the pair?|Type your response on a scale from 0-100 and then press Enter.",Study/JOL,"Study Phase",4140,,,3443,3836,,,,40,1
59ad75aba372d6000157ee35,rus15x4zw1,Emily_Honors_Thesis_Part_2,1,32,2020-08-29T11:04:02-07:00,3.1676549911499,4,versionC_stim.csv,READ_JOLVersionD.csv,"READ Version D",OLD,EAT,DINE,ON2,B,111,147,JOL,User,-,"How likely are you to correctly recall the second item in the pair?|Type your response on a scale from 0-100 and then press Enter.",Study/JOL,"Study Phase",2719,,,2086,2338,,,,80,1
59ad75aba372d6000157ee35,rus15x4zw1,Emily_Honors_Thesis_Part_2,1,33,2020-08-29T11:04:06-07:00,4.0284299850464,4,versionC_stim.csv,READ_JOLVersionD.csv,"READ Version D",OLD,REVENGE,EVEN,ON2,F,122,154,JOL,User,-,"How likely are you to correctly recall the second item in the pair?|Type your response on a scale from 0-100 and then press Enter.",Study/JOL,"Study Phase",3569,,,2784,3159,,,,50,1
59ad75aba372d6000157ee35,rus15x4zw1,Emily_Honors_Thesis_Part_2,1,34,2020-08-29T11:04:11-07:00,4.3864641189575,4,versionC_stim.csv,READ_JOLVersionD.csv,"READ Version D",OLD,GAME,CLUE,ON2,B,97,98,JOL,User,-,"How likely are you to correctly recall the second item in the pair?|Type your response on a scale from 0-100 and then press Enter.",Study/JOL,"Study Phase",3956,,,3138,3589,,,,40,1
59ad75aba372d6000157ee35,rus15x4zw1,Emily_Honors_Thesis_Part_2,1,35,2020-08-29T11:04:14-07:00,3.0831980705261,4,versionC_stim.csv,READ_JOLVersionD.csv,"READ Version D",OLD,DOG,FURRY,ON2,B,102,174,JOL,User,-,"How likely are you to correctly recall the second item in the pair?|Type your response on a scale from 0-100 and then press Enter.",Study/JOL,"Study Phase",2598,,,1943,2219,,,,60,1
59ad75aba372d6000157ee35,rus15x4zw1,Emily_Honors_Thesis_Part_2,1,36,2020-08-29T11:04:17-07:00,3.4044978618622,4,versionC_stim.csv,READ_JOLVersionD.csv,"READ Version D",OLD,CHILDREN,MIRROR,ON2,U,174,157,JOL,User,-,"How likely are you to correctly recall the second item in the pair?|Type your response on a scale from 0-100 and then press Enter.",Study/JOL,"Study Phase",2875,,,2144,2526,,,,30,1
59ad75aba372d6000157ee35,rus15x4zw1,Emily_Honors_Thesis_Part_2,1,37,2020-08-29T11:04:21-07:00,3.6518981456757,4,versionC_stim.csv,READ_JOLVersionD.csv,"READ Version D",OLD,END,ADJOURN,ON2,B,101,106,JOL,User,-,"How likely are you to correctly recall the second item in the pair?|Type your response on a scale from 0-100 and then press Enter.",Study/JOL,"Study Phase",3195,,,2443,2800,,,,60,1
59ad75aba372d6000157ee35,rus15x4zw1,Emily_Honors_Thesis_Part_2,1,38,2020-08-29T11:04:25-07:00,3.5457530021667,4,versionC_stim.csv,READ_JOLVersionD.csv,"READ Version D",OLD,TIE,SHOELACE,ON2,B,99,163,JOL,User,-,"How likely are you to correctly recall the second item in the pair?|Type your response on a scale from 0-100 and then press Enter.",Study/JOL,"Study Phase",3063,,,2350,2636,,,,70,1
59ad75aba372d6000157ee35,rus15x4zw1,Emily_Honors_Thesis_Part_2,1,39,2020-08-29T11:04:28-07:00,3.567412853241,4,versionC_stim.csv,READ_JOLVersionD.csv,"READ Version D",OLD,SCAR,MAIN,ON2,U,175,169,JOL,User,-,"How likely are you to correctly recall the second item in the pair?|Type your response on a scale from 0-100 and then press Enter.",Study/JOL,"Study Phase",3111,,,2326,2770,,,,50,1
59ad75aba372d6000157ee35,rus15x4zw1,Emily_Honors_Thesis_Part_2,1,40,2020-08-29T11:04:32-07:00,4.0530281066895,4,versionC_stim.csv,READ_JOLVersionD.csv,"READ Version D",OLD,DRINK,WATER,ON2,S,143,103,JOL,User,-,"How likely are you to correctly recall the second item in the pair?|Type your response on a scale from 0-100 and then press Enter.",Study/JOL,"Study Phase",3562,,,2531,3218,,,,100,1
59ad75aba372d6000157ee35,rus15x4zw1,Emily_Honors_Thesis_Part_2,1,41,2020-08-29T11:04:37-07:00,5.2216520309448,4,versionC_stim.csv,READ_JOLVersionD.csv,"READ Version D",OLD,WAX,CANDLE,ON2,S,139,121,JOL,User,-,"How likely are you to correctly recall the second item in the pair?|Type your response on a scale from 0-100 and then press Enter.",Study/JOL,"Study Phase",4741,,,1988,4457,,,,100,1
59ad75aba372d6000157ee35,rus15x4zw1,Emily_Honors_Thesis_Part_2,1,42,2020-08-29T11:04:40-07:00,3.1395018100739,4,versionC_stim.csv,READ_JOLVersionD.csv,"READ Version D",OLD,CLOTH,STRETCH,ON2,U,157,104,JOL,User,-,"How likely are you to correctly recall the second item in the pair?|Type your response on a scale from 0-100 and then press Enter.",Study/JOL,"Study Phase",2564,,,1994,2240,,,,70,1
59ad75aba372d6000157ee35,rus15x4zw1,Emily_Honors_Thesis_Part_2,1,43,2020-08-29T11:04:45-07:00,4.8993680477142,4,versionC_stim.csv,READ_JOLVersionD.csv,"READ Version D",OLD,RED,CHERRY,ON2,B,104,101,JOL,User,-,"How likely are you to correctly recall the second item in the pair?|Type your response on a scale from 0-100 and then press Enter.",Study/JOL,"Study Phase",4453,,,3363,4127,,,,60,1
59ad75aba372d6000157ee35,rus15x4zw1,Emily_Honors_Thesis_Part_2,1,44,2020-08-29T11:04:50-07:00,4.6154041290283,4,versionC_stim.csv,READ_JOLVersionD.csv,"READ Version D",OLD,COFFIN,DEAD,ON2,F,128,176,JOL,User,-,"How likely are you to correctly recall the second item in the pair?|Type your response on a scale from 0-100 and then press Enter.",Study/JOL,"Study Phase",3129,,,2583,2790,,,,80,1
59ad75aba372d6000157ee35,rus15x4zw1,Emily_Honors_Thesis_Part_2,1,45,2020-08-29T11:04:54-07:00,4.1809968948364,4,versionC_stim.csv,READ_JOLVersionD.csv,"READ Version D",OLD,HATE,NAME,ON2,U,167,137,JOL,User,-,"How likely are you to correctly recall the second item in the pair?|Type your response on a scale from 0-100 and then press Enter.",Study/JOL,"Study Phase",3545,,,2711,3200,,,,30,1
59ad75aba372d6000157ee35,rus15x4zw1,Emily_Honors_Thesis_Part_2,1,46,2020-08-29T11:05:01-07:00,6.3206629753113,4,versionC_stim.csv,READ_JOLVersionD.csv,"READ Version D",OLD,SEATBELT,SAFETY,ON2,S,147,143,JOL,User,-,"How likely are you to correctly recall the second item in the pair?|Type your response on a scale from 0-100 and then press Enter.",Study/JOL,"Study Phase",4659,,,3998,4298,,,,70,1
59ad75aba372d6000157ee35,rus15x4zw1,Emily_Honors_Thesis_Part_2,1,47,2020-08-29T11:05:06-07:00,5.0461161136627,4,versionC_stim.csv,READ_JOLVersionD.csv,"READ Version D",OLD,LONG,EXTENSION,ON2,B,96,158,JOL,User,-,"How likely are you to correctly recall the second item in the pair?|Type your response on a scale from 0-100 and then press Enter.",Study/JOL,"Study Phase",4600,,,3790,4197,,,,60,1
59ad75aba372d6000157ee35,rus15x4zw1,Emily_Honors_Thesis_Part_2,1,48,2020-08-29T11:05:09-07:00,3.7528388500214,4,versionC_stim.csv,READ_JOLVersionD.csv,"READ Version D",OLD,TAN,SUN,ON2,S,155,113,JOL,User,-,"How likely are you to correctly recall the second item in the pair?|Type your response on a scale from 0-100 and then press Enter.",Study/JOL,"Study Phase",3232,,,2651,2897,,,,80,1
59ad75aba372d6000157ee35,rus15x4zw1,Emily_Honors_Thesis_Part_2,1,49,2020-08-29T11:05:12-07:00,2.774346113205,4,versionC_stim.csv,READ_JOLVersionD.csv,"READ Version D",OLD,NOISE,LOUD,ON2,S,152,122,JOL,User,-,"How likely are you to correctly recall the second item in the pair?|Type your response on a scale from 0-100 and then press Enter.",Study/JOL,"Study Phase",2305,,,1659,1786,,,,90,1
59ad75aba372d6000157ee35,rus15x4zw1,Emily_Honors_Thesis_Part_2,1,50,2020-08-29T11:05:15-07:00,3.3284759521484,4,versionC_stim.csv,READ_JOLVersionD.csv,"READ Version D",OLD,AIRCRAFT,PLANE,ON2,F,129,162,JOL,User,-,"How likely are you to correctly recall the second item in the pair?|Type your response on a scale from 0-100 and then press Enter.",Study/JOL,"Study Phase",2869,,,1853,2557,,,,100,1
59ad75aba372d6000157ee35,rus15x4zw1,Emily_Honors_Thesis_Part_2,1,51,2020-08-29T11:05:20-07:00,4.2984981536865,4,versionC_stim.csv,READ_JOLVersionD.csv,"READ Version D",OLD,MAROON,JUSTICE,ON2,U,156,146,JOL,User,-,"How likely are you to correctly recall the second item in the pair?|Type your response on a scale from 0-100 and then press Enter.",Study/JOL,"Study Phase",3767,,,2766,3401,,,,20,1
59ad75aba372d6000157ee35,rus15x4zw1,Emily_Honors_Thesis_Part_2,1,52,2020-08-29T11:05:24-07:00,4.2432539463043,4,versionC_stim.csv,READ_JOLVersionD.csv,"READ Version D",OLD,DONKEY,MULE,ON2,B,108,100,JOL,User,-,"How likely are you to correctly recall the second item in the pair?|Type your response on a scale from 0-100 and then press Enter.",Study/JOL,"Study Phase",3782,,,3106,3437,,,,90,1
59ad75aba372d6000157ee35,rus15x4zw1,Emily_Honors_Thesis_Part_2,1,53,2020-08-29T11:05:29-07:00,4.8618319034576,4,versionC_stim.csv,READ_JOLVersionD.csv,"READ Version D",OLD,BREAKABLE,GLASS,ON2,F,127,139,JOL,User,-,"How likely are you to correctly recall the second item in the pair?|Type your response on a scale from 0-100 and then press Enter.",Study/JOL,"Study Phase",4413,,,2100,4155,,,,90,1
59ad75aba372d6000157ee35,rus15x4zw1,Emily_Honors_Thesis_Part_2,1,54,2020-08-29T11:05:32-07:00,3.0192840099335,4,versionC_stim.csv,READ_JOLVersionD.csv,"READ Version D",OLD,PLANT,CACTUS,ON2,B,98,115,JOL,User,-,"How likely are you to correctly recall the second item in the pair?|Type your response on a scale from 0-100 and then press Enter.",Study/JOL,"Study Phase",2538,,,2134,2248,,,,80,1
59ad75aba372d6000157ee35,rus15x4zw1,Emily_Honors_Thesis_Part_2,1,55,2020-08-29T11:05:37-07:00,5.6078391075134,4,versionC_stim.csv,READ_JOLVersionD.csv,"READ Version D",OLD,OBTAIN,MEAT,ON2,U,161,152,JOL,User,-,"How likely are you to correctly recall the second item in the pair?|Type your response on a scale from 0-100 and then press Enter.",Study/JOL,"Study Phase",5141,,,4273,4385,,,,70,1
59ad75aba372d6000157ee35,rus15x4zw1,Emily_Honors_Thesis_Part_2,1,56,2020-08-29T11:05:41-07:00,3.8324799537659,4,versionC_stim.csv,READ_JOLVersionD.csv,"READ Version D",OLD,SARDINE,FISH,ON2,F,130,161,JOL,User,-,"How likely are you to correctly recall the second item in the pair?|Type your response on a scale from 0-100 and then press Enter.",Study/JOL,"Study Phase",3362,,,2827,2950,,,,70,1
59ad75aba372d6000157ee35,rus15x4zw1,Emily_Honors_Thesis_Part_2,1,57,2020-08-29T11:05:44-07:00,2.4495809078217,4,versionC_stim.csv,READ_JOLVersionD.csv,"READ Version D",OLD,BRACELET,WRIST,ON2,S,140,114,JOL,User,-,"How likely are you to correctly recall the second item in the pair?|Type your response on a scale from 0-100 and then press Enter.",Study/JOL,"Study Phase",1967,,,1496,1625,,,,70,1
59ad75aba372d6000157ee35,rus15x4zw1,Emily_Honors_Thesis_Part_2,1,58,2020-08-29T11:05:47-07:00,3.0829291343689,4,versionC_stim.csv,READ_JOLVersionD.csv,"READ Version D",OLD,HEAD,SCALP,ON2,B,105,118,JOL,User,-,"How likely are you to correctly recall the second item in the pair?|Type your response on a scale from 0-100 and then press Enter.",Study/JOL,"Study Phase",2605,,,2135,2270,,,,60,1
59ad75aba372d6000157ee35,rus15x4zw1,Emily_Honors_Thesis_Part_2,1,59,2020-08-29T11:05:50-07:00,3.4528839588165,4,versionC_stim.csv,READ_JOLVersionD.csv,"READ Version D",OLD,CLOTHES,CAKE,ON2,U,166,133,JOL,User,-,"How likely are you to correctly recall the second item in the pair?|Type your response on a scale from 0-100 and then press Enter.",Study/JOL,"Study Phase",2998,,,2197,2671,,,,10,1
59ad75aba372d6000157ee35,rus15x4zw1,Emily_Honors_Thesis_Part_2,1,60,2020-08-29T11:05:54-07:00,3.2569899559021,4,versionC_stim.csv,READ_JOLVersionD.csv,"READ Version D",OLD,LIE,TRUTH,ON2,S,148,173,JOL,User,-,"How likely are you to correctly recall the second item in the pair?|Type your response on a scale from 0-100 and then press Enter.",Study/JOL,"Study Phase",2810,,,2406,2499,,,,90,1
59ad75aba372d6000157ee35,rus15x4zw1,Emily_Honors_Thesis_Part_2,1,61,2020-08-29T11:06:00-07:00,6.8611559867859,4,versionC_stim.csv,READ_JOLVersionD.csv,"READ Version D",OLD,FICTION,LISTEN,ON2,U,164,131,JOL,User,-,"How likely are you to correctly recall the second item in the pair?|Type your response on a scale from 0-100 and then press Enter.",Study/JOL,"Study Phase",6391,,,5612,6075,,,,10,1
59ad75aba372d6000157ee35,rus15x4zw1,Emily_Honors_Thesis_Part_2,1,62,2020-08-29T11:06:04-07:00,3.3048119544983,4,versionC_stim.csv,READ_JOLVersionD.csv,"READ Version D",OLD,SCISSORS,SHEARS,ON2,B,112,123,JOL,User,-,"How likely are you to correctly recall the second item in the pair?|Type your response on a scale from 0-100 and then press Enter.",Study/JOL,"Study Phase",2689,,,1929,2389,,,,60,1
59ad75aba372d6000157ee35,rus15x4zw1,Emily_Honors_Thesis_Part_2,1,63,2020-08-29T11:06:07-07:00,3.6983320713043,4,versionC_stim.csv,READ_JOLVersionD.csv,"READ Version D",OLD,BRAWL,FIGHT,ON2,F,135,102,JOL,User,-,"How likely are you to correctly recall the second item in the pair?|Type your response on a scale from 0-100 and then press Enter.",Study/JOL,"Study Phase",3233,,,2818,2953,,,,70,1
59ad75aba372d6000157ee35,rus15x4zw1,Emily_Honors_Thesis_Part_2,1,64,2020-08-29T11:06:11-07:00,3.5134589672089,4,versionC_stim.csv,READ_JOLVersionD.csv,"READ Version D",OLD,BALLOON,POP,ON2,F,123,138,JOL,User,-,"How likely are you to correctly recall the second item in the pair?|Type your response on a scale from 0-100 and then press Enter.",Study/JOL,"Study Phase",3038,,,2523,2693,,,,50,1
59ad75aba372d6000157ee35,rus15x4zw1,Emily_Honors_Thesis_Part_2,1,65,2020-08-29T11:06:13-07:00,2.1160941123962,4,versionC_stim.csv,READ_JOLVersionD.csv,"READ Version D",OLD,SHAVE,RAZOR,ON2,S,136,129,JOL,User,-,"How likely are you to correctly recall the second item in the pair?|Type your response on a scale from 0-100 and then press Enter.",Study/JOL,"Study Phase",1712,,,1303,1447,,,,80,1
59ad75aba372d6000157ee35,rus15x4zw1,Emily_Honors_Thesis_Part_2,1,66,2020-08-29T11:06:16-07:00,3.1638638973236,4,versionC_stim.csv,READ_JOLVersionD.csv,"READ Version D",OLD,ELECTION,MAZE,ON2,U,159,136,JOL,User,-,"How likely are you to correctly recall the second item in the pair?|Type your response on a scale from 0-100 and then press Enter.",Study/JOL,"Study Phase",2665,,,1847,2347,,,,10,1
59ad75aba372d6000157ee35,rus15x4zw1,Emily_Honors_Thesis_Part_2,1,67,2020-08-29T11:06:27-07:00,11.147599935532,4,versionC_stim.csv,READ_JOLVersionD.csv,"READ Version D",OLD,TOIL,LEASE,ON2,U,170,145,JOL,User,-,"How likely are you to correctly recall the second item in the pair?|Type your response on a scale from 0-100 and then press Enter.",Study/JOL,"Study Phase",10651,,,9712,10236,,,,10,1
59ad75aba372d6000157ee35,rus15x4zw1,Emily_Honors_Thesis_Part_2,1,68,2020-08-29T11:06:30-07:00,2.5327830314636,4,versionC_stim.csv,READ_JOLVersionD.csv,"READ Version D",OLD,NAP,SLEEP,ON2,F,134,111,JOL,User,-,"How likely are you to correctly recall the second item in the pair?|Type your response on a scale from 0-100 and then press Enter.",Study/JOL,"Study Phase",2050,,,1619,1744,,,,80,1
59ad75aba372d6000157ee35,rus15x4zw1,Emily_Honors_Thesis_Part_2,1,69,2020-08-29T11:06:34-07:00,3.9304101467133,4,versionC_stim.csv,READ_JOLVersionD.csv,"READ Version D",OLD,MORNING,TEMPERATURE,ON2,U,173,151,JOL,User,-,"How likely are you to correctly recall the second item in the pair?|Type your response on a scale from 0-100 and then press Enter.",Study/JOL,"Study Phase",3458,,,2642,3127,,,,20,1
59ad75aba372d6000157ee35,rus15x4zw1,Emily_Honors_Thesis_Part_2,1,70,2020-08-29T11:06:36-07:00,2.5524938106537,4,versionC_stim.csv,READ_JOLVersionD.csv,"READ Version D",OLD,CAR,DRIVER,ON2,B,106,120,JOL,User,-,"How likely are you to correctly recall the second item in the pair?|Type your response on a scale from 0-100 and then press Enter.",Study/JOL,"Study Phase",2056,,,1591,1715,,,,80,1
59ad75aba372d6000157ee35,rus15x4zw1,Emily_Honors_Thesis_Part_2,1,71,2020-08-29T11:06:41-07:00,4.8639321327209,4,versionC_stim.csv,READ_JOLVersionD.csv,"READ Version D",OLD,COLD,CHILL,ON2,B,114,117,JOL,User,-,"How likely are you to correctly recall the second item in the pair?|Type your response on a scale from 0-100 and then press Enter.",Study/JOL,"Study Phase",3402,,,1502,3143,,,,70,1
59ad75aba372d6000157ee35,rus15x4zw1,Emily_Honors_Thesis_Part_2,1,72,2020-08-29T11:06:44-07:00,3.1724960803986,4,versionC_stim.csv,READ_JOLVersionD.csv,"READ Version D",OLD,LONELY,ALONE,ON2,S,145,150,JOL,User,-,"How likely are you to correctly recall the second item in the pair?|Type your response on a scale from 0-100 and then press Enter.",Study/JOL,"Study Phase",2724,,,2363,2452,,,,80,1
59ad75aba372d6000157ee35,rus15x4zw1,Emily_Honors_Thesis_Part_2,1,73,2020-08-29T11:06:49-07:00,4.6818919181824,4,versionC_stim.csv,READ_JOLVersionD.csv,"READ Version D",OLD,TRASH,LITTER,ON2,B,103,155,JOL,User,-,"How likely are you to correctly recall the second item in the pair?|Type your response on a scale from 0-100 and then press Enter.",Study/JOL,"Study Phase",4217,,,1324,3764,,,,100,1
59ad75aba372d6000157ee35,rus15x4zw1,Emily_Honors_Thesis_Part_2,1,74,2020-08-29T11:06:53-07:00,3.7186100482941,4,versionC_stim.csv,READ_JOLVersionD.csv,"READ Version D",OLD,THIMBLE,THREAD,ON2,F,121,127,JOL,User,-,"How likely are you to correctly recall the second item in the pair?|Type your response on a scale from 0-100 and then press Enter.",Study/JOL,"Study Phase",3244,,,2827,2936,,,,60,1
59ad75aba372d6000157ee35,rus15x4zw1,Emily_Honors_Thesis_Part_2,1,75,2020-08-29T11:06:56-07:00,2.8491289615631,4,versionC_stim.csv,READ_JOLVersionD.csv,"READ Version D",OLD,VILLAIN,BAD,ON2,F,118,140,JOL,User,-,"How likely are you to correctly recall the second item in the pair?|Type your response on a scale from 0-100 and then press Enter.",Study/JOL,"Study Phase",2370,,,1976,2059,,,,90,1
59ad75aba372d6000157ee35,rus15x4zw1,Emily_Honors_Thesis_Part_2,1,76,2020-08-29T11:06:59-07:00,3.035847902298,4,versionC_stim.csv,READ_JOLVersionD.csv,"READ Version D",OLD,CHARM,VEHICLE,ON2,U,160,171,JOL,User,-,"How likely are you to correctly recall the second item in the pair?|Type your response on a scale from 0-100 and then press Enter.",Study/JOL,"Study Phase",2556,,,1793,2244,,,,30,1
59ad75aba372d6000157ee35,rus15x4zw1,Emily_Honors_Thesis_Part_2,1,77,2020-08-29T11:07:05-07:00,6.6399440765381,4,versionC_stim.csv,READ_JOLVersionD.csv,"READ Version D",OLD,LOVE,AFFECTION,ON2,B,115,172,JOL,User,-,"How likely are you to correctly recall the second item in the pair?|Type your response on a scale from 0-100 and then press Enter.",Study/JOL,"Study Phase",6144,,,4044,5494,,,,60,1
59ad75aba372d6000157ee35,rus15x4zw1,Emily_Honors_Thesis_Part_2,1,78,2020-08-29T11:07:12-07:00,6.3197870254517,4,versionC_stim.csv,READ_JOLVersionD.csv,"READ Version D",OLD,TICK,FLEA,ON2,S,151,125,JOL,User,-,"How likely are you to correctly recall the second item in the pair?|Type your response on a scale from 0-100 and then press Enter.",Study/JOL,"Study Phase",5847,,,5178,5504,,,,60,1
59ad75aba372d6000157ee35,rus15x4zw1,Emily_Honors_Thesis_Part_2,1,79,2020-08-29T11:07:16-07:00,4.5831129550934,4,versionC_stim.csv,READ_JOLVersionD.csv,"READ Version D",OLD,ABLE,CRACKLE,ON2,U,162,175,JOL,User,-,"How likely are you to correctly recall the second item in the pair?|Type your response on a scale from 0-100 and then press Enter.",Study/JOL,"Study Phase",4102,,,3147,3636,,,,10,1
59ad75aba372d6000157ee35,rus15x4zw1,Emily_Honors_Thesis_Part_2,1,80,2020-08-29T11:07:20-07:00,3.8657810688019,4,versionC_stim.csv,READ_JOLVersionD.csv,"READ Version D",OLD,SMELL,INCENSE,ON2,B,110,159,JOL,User,-,"How likely are you to correctly recall the second item in the pair?|Type your response on a scale from 0-100 and then press Enter.",Study/JOL,"Study Phase",3378,,,1638,2842,,,,30,1
59ad75aba372d6000157ee35,rus15x4zw1,Emily_Honors_Thesis_Part_2,1,81,2020-08-29T11:07:24-07:00,4.1266570091248,4,versionC_stim.csv,READ_JOLVersionD.csv,"READ Version D",OLD,JAR,MASON,ON2,S,138,132,JOL,User,-,"How likely are you to correctly recall the second item in the pair?|Type your response on a scale from 0-100 and then press Enter.",Study/JOL,"Study Phase",3655,,,1639,2137,,,,50,1
59ad75aba372d6000157ee35,rus15x4zw1,Emily_Honors_Thesis_Part_2,1,82,2020-08-29T11:07:28-07:00,3.3096508979797,4,versionC_stim.csv,READ_JOLVersionD.csv,"READ Version D",OLD,WINDSHIELD,CAR,ON2,F,117,116,JOL,User,-,"How likely are you to correctly recall the second item in the pair?|Type your response on a scale from 0-100 and then press Enter.",Study/JOL,"Study Phase",2862,,,2096,2458,,,,60,1
59ad75aba372d6000157ee35,rus15x4zw1,Emily_Honors_Thesis_Part_2,1,83,2020-08-29T11:07:31-07:00,3.3374400138855,4,versionC_stim.csv,READ_JOLVersionD.csv,"READ Version D",OLD,CLEAR,MOAT,ON2,U,169,97,JOL,User,-,"How likely are you to correctly recall the second item in the pair?|Type your response on a scale from 0-100 and then press Enter.",Study/JOL,"Study Phase",2885,,,2048,2524,,,,40,1
59ad75aba372d6000157ee35,rus15x4zw1,Emily_Honors_Thesis_Part_2,1,84,2020-08-29T11:07:34-07:00,3.3182439804077,4,versionC_stim.csv,READ_JOLVersionD.csv,"READ Version D",OLD,WET,DRY,ON2,S,146,130,JOL,User,-,"How likely are you to correctly recall the second item in the pair?|Type your response on a scale from 0-100 and then press Enter.",Study/JOL,"Study Phase",2853,,,1756,2018,,,,70,1
59ad75aba372d6000157ee35,rus15x4zw1,Emily_Honors_Thesis_Part_2,1,85,2020-08-29T11:07:37-07:00,2.6587791442871,4,versionC_stim.csv,READ_JOLVersionD.csv,"READ Version D",OLD,PANTHER,CAT,ON2,F,126,165,JOL,User,-,"How likely are you to correctly recall the second item in the pair?|Type your response on a scale from 0-100 and then press Enter.",Study/JOL,"Study Phase",2156,,,1428,1728,,,,80,1
59ad75aba372d6000157ee35,rus15x4zw1,Emily_Honors_Thesis_Part_2,1,86,2020-08-29T11:07:43-07:00,6.2231249809265,4,versionC_stim.csv,READ_JOLVersionD.csv,"READ Version D",OLD,BANG,FUZZY,ON2,U,168,148,JOL,User,-,"How likely are you to correctly recall the second item in the pair?|Type your response on a scale from 0-100 and then press Enter.",Study/JOL,"Study Phase",5786,,,4893,5364,,,,30,1
59ad75aba372d6000157ee35,rus15x4zw1,Emily_Honors_Thesis_Part_2,1,87,2020-08-29T11:07:47-07:00,3.7565019130707,4,versionC_stim.csv,READ_JOLVersionD.csv,"READ Version D",OLD,CUT,CHOP,ON2,B,107,119,JOL,User,-,"How likely are you to correctly recall the second item in the pair?|Type your response on a scale from 0-100 and then press Enter.",Study/JOL,"Study Phase",3294,,,2513,2892,,,,60,1
59ad75aba372d6000157ee35,rus15x4zw1,Emily_Honors_Thesis_Part_2,1,88,2020-08-29T11:07:53-07:00,5.9334859848022,4,versionC_stim.csv,READ_JOLVersionD.csv,"READ Version D",OLD,COMMUNICATION,PHONE,ON2,S,149,153,JOL,User,-,"How likely are you to correctly recall the second item in the pair?|Type your response on a scale from 0-100 and then press Enter.",Study/JOL,"Study Phase",5438,,,2036,5118,,,,50,1
59ad75aba372d6000157ee35,rus15x4zw1,Emily_Honors_Thesis_Part_2,1,89,2020-08-29T11:07:56-07:00,2.9318790435791,4,versionC_stim.csv,READ_JOLVersionD.csv,"READ Version D",OLD,TEMPER,TANTRUM,ON2,S,154,168,JOL,User,-,"How likely are you to correctly recall the second item in the pair?|Type your response on a scale from 0-100 and then press Enter.",Study/JOL,"Study Phase",2484,,,1767,2100,,,,60,1
59ad75aba372d6000157ee35,rus15x4zw1,Emily_Honors_Thesis_Part_2,1,90,2020-08-29T11:08:00-07:00,4.3613889217377,4,versionC_stim.csv,READ_JOLVersionD.csv,"READ Version D",OLD,LEAGUE,BASEBALL,ON2,F,131,160,JOL,User,-,"How likely are you to correctly recall the second item in the pair?|Type your response on a scale from 0-100 and then press Enter.",Study/JOL,"Study Phase",2888,,,2118,2513,,,,40,1
59ad75aba372d6000157ee35,rus15x4zw1,Emily_Honors_Thesis_Part_2,1,91,2020-08-29T11:08:07-07:00,6.5102350711823,4,versionC_stim.csv,READ_JOLVersionD.csv,"READ Version D",OLD,PENGUIN,BIRD,ON2,F,119,105,JOL,User,-,"How likely are you to correctly recall the second item in the pair?|Type your response on a scale from 0-100 and then press Enter.",Study/JOL,"Study Phase",5984,,,1743,5614,,,,70,1
59ad75aba372d6000157ee35,rus15x4zw1,Emily_Honors_Thesis_Part_2,1,92,2020-08-29T11:08:13-07:00,6.6739058494568,4,versionC_stim.csv,READ_JOLVersionD.csv,"READ Version D",OLD,CARBON,ELEMENT,ON2,S,141,167,JOL,User,-,"How likely are you to correctly recall the second item in the pair?|Type your response on a scale from 0-100 and then press Enter.",Study/JOL,"Study Phase",6141,,,5456,5759,,,,70,1
59ad75aba372d6000157ee35,rus15x4zw1,Emily_Honors_Thesis_Part_2,1,93,2020-08-29T11:08:18-07:00,4.5050320625305,4,versionC_stim.csv,READ_JOLVersionD.csv,"READ Version D",OLD,SIGN,LOAN,ON2,U,171,170,JOL,User,-,"How likely are you to correctly recall the second item in the pair?|Type your response on a scale from 0-100 and then press Enter.",Study/JOL,"Study Phase",3984,,,3077,3618,,,,40,1
59ad75aba372d6000157ee35,rus15x4zw1,Emily_Honors_Thesis_Part_2,1,94,2020-08-29T11:08:21-07:00,3.0284180641174,4,versionC_stim.csv,READ_JOLVersionD.csv,"READ Version D",OLD,FLIP,TURN,ON2,F,116,141,JOL,User,-,"How likely are you to correctly recall the second item in the pair?|Type your response on a scale from 0-100 and then press Enter.",Study/JOL,"Study Phase",2540,,,1805,2218,,,,40,1
59ad75aba372d6000157ee35,rus15x4zw1,Emily_Honors_Thesis_Part_2,1,95,2020-08-29T11:08:25-07:00,4.4681279659271,4,versionC_stim.csv,READ_JOLVersionD.csv,"READ Version D",OLD,ACTRESS,STAR,ON2,F,120,144,JOL,User,-,"How likely are you to correctly recall the second item in the pair?|Type your response on a scale from 0-100 and then press Enter.",Study/JOL,"Study Phase",3975,,,3310,3653,,,,70,1
59ad75aba372d6000157ee35,rus15x4zw1,Emily_Honors_Thesis_Part_2,1,96,2020-08-29T11:08:31-07:00,6.13303399086,4,versionC_stim.csv,READ_JOLVersionD.csv,"READ Version D",OLD,REEL,ROD,ON2,S,150,108,JOL,User,-,"How likely are you to correctly recall the second item in the pair?|Type your response on a scale from 0-100 and then press Enter.",Study/JOL,"Study Phase",5677,,,4872,5281,,,,60,1
59ad75aba372d6000157ee35,rus15x4zw1,Emily_Honors_Thesis_Part_2,1,97,2020-08-29T11:08:34-07:00,3.1286799907684,4,versionC_stim.csv,READ_JOLVersionD.csv,"READ Version D",OLD,AWAY,GONE,ON2,S,142,110,JOL,User,-,"How likely are you to correctly recall the second item in the pair?|Type your response on a scale from 0-100 and then press Enter.",Study/JOL,"Study Phase",2637,,,1837,2278,,,,40,1
59ad75aba372d6000157ee35,rus15x4zw1,Emily_Honors_Thesis_Part_2,1,98,2020-08-29T11:08:40-07:00,5.0924899578094,4,versionC_stim.csv,READ_JOLVersionD.csv,"READ Version D",OLD,STEAK,GIVE,ON2,U,158,149,JOL,User,-,"How likely are you to correctly recall the second item in the pair?|Type your response on a scale from 0-100 and then press Enter.",Study/JOL,"Study Phase",4618,,,3369,4280,,,,10,1
59ad75aba372d6000157ee35,rus15x4zw1,Emily_Honors_Thesis_Part_2,1,99,2020-08-29T11:08:44-07:00,4.19424700737,4,versionC_stim.csv,READ_JOLVersionD.csv,"READ Version D",OLD,EQUAL,RIGHTS,ON2,S,137,109,JOL,User,-,"How likely are you to correctly recall the second item in the pair?|Type your response on a scale from 0-100 and then press Enter.",Study/JOL,"Study Phase",2702,,,1781,2364,,,,70,1
59ad75aba372d6000157ee35,rus15x4zw1,Emily_Honors_Thesis_Part_2,1,100,2020-08-29T11:08:48-07:00,4.3115141391754,4,versionC_stim.csv,READ_JOLVersionD.csv,"READ Version D",OLD,OUNCE,BOTH,ON2,U,172,164,JOL,User,-,"How likely are you to correctly recall the second item in the pair?|Type your response on a scale from 0-100 and then press Enter.",Study/JOL,"Study Phase",3815,,,2994,3448,,,,10,1
59ad75aba372d6000157ee35,rus15x4zw1,Emily_Honors_Thesis_Part_2,1,101,2020-08-29T11:08:52-07:00,3.6600918769836,4,versionC_stim.csv,READ_JOLVersionD.csv,"READ Version D",OLD,JOKE,KEYS,ON2,U,165,112,JOL,User,-,"How likely are you to correctly recall the second item in the pair?|Type your response on a scale from 0-100 and then press Enter.",Study/JOL,"Study Phase",3193,,,2042,2868,,,,10,1
59ad75aba372d6000157ee35,rus15x4zw1,Emily_Honors_Thesis_Part_2,1,102,2020-08-29T11:08:55-07:00,3.2463719844818,4,versionC_stim.csv,READ_JOLVersionD.csv,"READ Version D",OLD,FROZEN,ICE,Buffer3,Buffer,94,180,JOL,User,-,"How likely are you to correctly recall the second item in the pair?|Type your response on a scale from 0-100 and then press Enter.",Study/JOL,BUFFER2,2783,,,2163,2420,,,,80,1
59ad75aba372d6000157ee35,rus15x4zw1,Emily_Honors_Thesis_Part_2,1,103,2020-08-29T11:08:59-07:00,4.0660111904144,4,versionC_stim.csv,READ_JOLVersionD.csv,"READ Version D",OLD,STRING,NOODLE,Buffer3,Buffer,92,181,JOL,User,-,"How likely are you to correctly recall the second item in the pair?|Type your response on a scale from 0-100 and then press Enter.",Study/JOL,BUFFER2,3611,,,1438,3233,,,,50,1
59ad75aba372d6000157ee35,rus15x4zw1,Emily_Honors_Thesis_Part_2,1,104,2020-08-29T11:09:02-07:00,2.7384178638458,4,versionC_stim.csv,READ_JOLVersionD.csv,"READ Version D",OLD,SHED,TOOL,Buffer3,Buffer,178,177,JOL,User,-,"How likely are you to correctly recall the second item in the pair?|Type your response on a scale from 0-100 and then press Enter.",Study/JOL,BUFFER2,2280,,,1501,1906,,,,60,1
59ad75aba372d6000157ee35,rus15x4zw1,Emily_Honors_Thesis_Part_2,1,105,2020-08-29T11:09:08-07:00,6.6711409091949,4,versionC_stim.csv,READ_JOLVersionD.csv,"READ Version D",OLD,WEAKS,DAYS,Buffer3,Buffer,176,178,JOL,User,-,"How likely are you to correctly recall the second item in the pair?|Type your response on a scale from 0-100 and then press Enter.",Study/JOL,BUFFER2,6211,,,2410,5870,,,,30,1
59ad75aba372d6000157ee35,rus15x4zw1,Emily_Honors_Thesis_Part_2,1,106,2020-08-29T11:09:15-07:00,6.279797077179,4,versionC_stim.csv,READ_JOLVersionD.csv,"READ Version D",OLD,SPOOKY,OCTOBER,Buffer3,Buffer,180,179,JOL,User,-,"How likely are you to correctly recall the second item in the pair?|Type your response on a scale from 0-100 and then press Enter.",Study/JOL,BUFFER2,5770,,,4958,5428,,,,40,1
59ad75aba372d6000157ee35,rus15x4zw1,Emily_Honors_Thesis_Part_2,1,107,2020-08-29T11:11:08-07:00,113.71394896507,4,versionC_stim.csv,READ_JOLVersionD.csv,"READ Version D",OLD,,,,,,0,Instruct,User,-,"You have completed this section. Please press Enter.",Filler_Instruction,Instruct2,113205,,,-1,-1,,,,,1
59ad75aba372d6000157ee35,rus15x4zw1,Emily_Honors_Thesis_Part_2,1,108,2020-08-29T11:13:10-07:00,121.52481913567,4,versionC_stim.csv,READ_JOLVersionD.csv,"READ Version D",OLD,,,,,,0,FreeRecall,120,120,"Please list the 50 US states in alphabetical order. The task will automatically advance to the next screen after two minutes.",,Filler1,120013,"Alaska Arizona Arkansas California Colorado Dakota Florida Hawaii Iowa Massachusetts New Hampshire New York Vermont Washington State West Virginia",0,7714,118863,0,0,,,1
59ad75aba372d6000157ee35,rus15x4zw1,Emily_Honors_Thesis_Part_2,1,109,2020-08-29T11:13:21-07:00,11.302603960037,4,versionC_stim.csv,READ_JOLVersionD.csv,"READ Version D",OLD,,,,,,0,Instruct,-,10,"You will now be presented with the first word from each of the previously studied item pairs. Please type the missing word. If you do not know the word, you may guess or press Enter to skip forward to the next pair.",,Instruct3,10746,,,-1,-1,,,,,1
59ad75aba372d6000157ee35,rus15x4zw1,Emily_Honors_Thesis_Part_2,1,110,2020-08-29T11:13:25-07:00,3.4805500507355,4,versionC_stim.csv,READ_JOLVersionD.csv,"READ Version D",OLD,WAX,CANDLE,ON2,S,139,121,Test,User,-,,Recall,Recall1,1999,candle,100,1298,1851,1,1,,,1
59ad75aba372d6000157ee35,rus15x4zw1,Emily_Honors_Thesis_Part_2,1,111,2020-08-29T11:13:29-07:00,4.2412829399109,4,versionC_stim.csv,READ_JOLVersionD.csv,"READ Version D",OLD,COFFIN,DEAD,ON2,F,128,176,Test,User,-,,Recall,Recall1,2757,dead,100,1165,2566,1,1,,,1
59ad75aba372d6000157ee35,rus15x4zw1,Emily_Honors_Thesis_Part_2,1,112,2020-08-29T11:13:34-07:00,4.6401538848877,4,versionC_stim.csv,READ_JOLVersionD.csv,"READ Version D",OLD,SHAKE,SHELL,ON2,U,163,128,Test,User,-,,Recall,Recall1,4097,,0,-1,-1,0,0,,,1
59ad75aba372d6000157ee35,rus15x4zw1,Emily_Honors_Thesis_Part_2,1,113,2020-08-29T11:13:37-07:00,3.7771000862122,4,versionC_stim.csv,READ_JOLVersionD.csv,"READ Version D",OLD,CAR,DRIVER,ON2,B,106,120,Test,User,-,,Recall,Recall1,3296,windshield,25,1693,3126,0,0,,,1
59ad75aba372d6000157ee35,rus15x4zw1,Emily_Honors_Thesis_Part_2,1,114,2020-08-29T11:13:42-07:00,4.8239641189575,4,versionC_stim.csv,READ_JOLVersionD.csv,"READ Version D",OLD,CHILDREN,MIRROR,ON2,U,174,157,Test,User,-,,Recall,Recall1,4343,,0,-1,-1,0,0,,,1
59ad75aba372d6000157ee35,rus15x4zw1,Emily_Honors_Thesis_Part_2,1,115,2020-08-29T11:13:45-07:00,2.8524968624115,4,versionC_stim.csv,READ_JOLVersionD.csv,"READ Version D",OLD,BRAWL,FIGHT,ON2,F,135,102,Test,User,-,,Recall,Recall1,2384,fight,100,1238,1901,1,1,,,1
59ad75aba372d6000157ee35,rus15x4zw1,Emily_Honors_Thesis_Part_2,1,116,2020-08-29T11:13:48-07:00,2.5735681056976,4,versionC_stim.csv,READ_JOLVersionD.csv,"READ Version D",OLD,BANKER,MONEY,ON2,F,132,134,Test,User,-,,Recall,Recall1,2078,money,100,1376,1821,1,1,,,1
59ad75aba372d6000157ee35,rus15x4zw1,Emily_Honors_Thesis_Part_2,1,117,2020-08-29T11:13:53-07:00,5.1462168693542,4,versionC_stim.csv,READ_JOLVersionD.csv,"READ Version D",OLD,LOVE,AFFECTION,ON2,B,115,172,Test,User,-,,Recall,Recall1,4682,hate,30.769230769231,4094,4461,0,0,,,1
59ad75aba372d6000157ee35,rus15x4zw1,Emily_Honors_Thesis_Part_2,1,118,2020-08-29T11:13:56-07:00,3.5556411743164,4,versionC_stim.csv,READ_JOLVersionD.csv,"READ Version D",OLD,MAROON,JUSTICE,ON2,U,156,146,Test,User,-,,Recall,Recall1,2074,,0,-1,-1,0,0,,,1
59ad75aba372d6000157ee35,rus15x4zw1,Emily_Honors_Thesis_Part_2,1,119,2020-08-29T11:14:00-07:00,3.3390657901764,4,versionC_stim.csv,READ_JOLVersionD.csv,"READ Version D",OLD,WINDSHIELD,CAR,ON2,F,117,116,Test,User,-,,Recall,Recall1,2857,car,100,2302,2647,1,1,,,1
59ad75aba372d6000157ee35,rus15x4zw1,Emily_Honors_Thesis_Part_2,1,120,2020-08-29T11:14:02-07:00,2.5217370986938,4,versionC_stim.csv,READ_JOLVersionD.csv,"READ Version D",OLD,SARDINE,FISH,ON2,F,130,161,Test,User,-,,Recall,Recall1,2037,fish,100,1454,1802,1,1,,,1
59ad75aba372d6000157ee35,rus15x4zw1,Emily_Honors_Thesis_Part_2,1,121,2020-08-29T11:14:05-07:00,2.6425650119781,4,versionC_stim.csv,READ_JOLVersionD.csv,"READ Version D",OLD,DONKEY,MULE,ON2,B,108,100,Test,User,-,,Recall,Recall1,2145,mule,100,1467,1963,1,1,,,1
59ad75aba372d6000157ee35,rus15x4zw1,Emily_Honors_Thesis_Part_2,1,122,2020-08-29T11:14:09-07:00,4.4286079406738,4,versionC_stim.csv,READ_JOLVersionD.csv,"READ Version D",OLD,MORNING,TEMPERATURE,ON2,U,173,151,Test,User,-,,Recall,Recall1,3925,temperature,100,2030,3799,1,1,,,1
59ad75aba372d6000157ee35,rus15x4zw1,Emily_Honors_Thesis_Part_2,1,123,2020-08-29T11:14:17-07:00,7.6503100395203,4,versionC_stim.csv,READ_JOLVersionD.csv,"READ Version D",OLD,CUT,CHOP,ON2,B,107,119,Test,User,-,,Recall,Recall1,7182,chop,100,6526,6936,1,1,,,1
59ad75aba372d6000157ee35,rus15x4zw1,Emily_Honors_Thesis_Part_2,1,124,2020-08-29T11:14:22-07:00,5.0580019950867,4,versionC_stim.csv,READ_JOLVersionD.csv,"READ Version D",OLD,SCISSORS,SHEARS,ON2,B,112,123,Test,User,-,,Recall,Recall1,4578,shears,100,3711,4426,1,1,,,1
59ad75aba372d6000157ee35,rus15x4zw1,Emily_Honors_Thesis_Part_2,1,125,2020-08-29T11:14:24-07:00,2.4003291130066,4,versionC_stim.csv,READ_JOLVersionD.csv,"READ Version D",OLD,STRAWBERRY,FRUIT,ON2,F,124,166,Test,User,-,,Recall,Recall1,1939,field,40,1348,1805,0,0,,,1
59ad75aba372d6000157ee35,rus15x4zw1,Emily_Honors_Thesis_Part_2,1,126,2020-08-29T11:14:28-07:00,3.2819249629974,4,versionC_stim.csv,READ_JOLVersionD.csv,"READ Version D",OLD,EQUAL,RIGHTS,ON2,S,137,109,Test,User,-,,Recall,Recall1,2808,rights,100,2094,2663,1,1,,,1
59ad75aba372d6000157ee35,rus15x4zw1,Emily_Honors_Thesis_Part_2,1,127,2020-08-29T11:14:32-07:00,4.1339249610901,4,versionC_stim.csv,READ_JOLVersionD.csv,"READ Version D",OLD,TEMPER,TANTRUM,ON2,S,154,168,Test,User,-,,Recall,Recall1,3658,tantrum,100,2205,3421,1,1,,,1
59ad75aba372d6000157ee35,rus15x4zw1,Emily_Honors_Thesis_Part_2,1,128,2020-08-29T11:14:35-07:00,2.6841530799866,4,versionC_stim.csv,READ_JOLVersionD.csv,"READ Version D",OLD,BRACELET,WRIST,ON2,S,140,114,Test,User,-,,Recall,Recall1,2168,wrist,100,1313,1897,1,1,,,1
59ad75aba372d6000157ee35,rus15x4zw1,Emily_Honors_Thesis_Part_2,1,129,2020-08-29T11:14:39-07:00,4.2449088096619,4,versionC_stim.csv,READ_JOLVersionD.csv,"READ Version D",OLD,STEAK,GIVE,ON2,U,158,149,Test,User,-,,Recall,Recall1,3801,,0,-1,-1,0,0,,,1
59ad75aba372d6000157ee35,rus15x4zw1,Emily_Honors_Thesis_Part_2,1,130,2020-08-29T11:14:41-07:00,2.4032011032104,4,versionC_stim.csv,READ_JOLVersionD.csv,"READ Version D",OLD,VILLAIN,BAD,ON2,F,118,140,Test,User,-,,Recall,Recall1,1905,bad,100,1534,1757,1,1,,,1
59ad75aba372d6000157ee35,rus15x4zw1,Emily_Honors_Thesis_Part_2,1,131,2020-08-29T11:14:44-07:00,2.6827099323273,4,versionC_stim.csv,READ_JOLVersionD.csv,"READ Version D",OLD,CARBON,ELEMENT,ON2,S,141,167,Test,User,-,,Recall,Recall1,2204,element,100,1353,2083,1,1,,,1
59ad75aba372d6000157ee35,rus15x4zw1,Emily_Honors_Thesis_Part_2,1,132,2020-08-29T11:14:49-07:00,4.758651971817,4,versionC_stim.csv,READ_JOLVersionD.csv,"READ Version D",OLD,CLOTHES,CAKE,ON2,U,166,133,Test,User,-,,Recall,Recall1,4286,,0,-1,-1,0,0,,,1
59ad75aba372d6000157ee35,rus15x4zw1,Emily_Honors_Thesis_Part_2,1,133,2020-08-29T11:14:53-07:00,3.9953780174255,4,versionC_stim.csv,READ_JOLVersionD.csv,"READ Version D",OLD,GAME,CLUE,ON2,B,97,98,Test,User,-,,Recall,Recall1,3531,,0,-1,-1,0,0,,,1
59ad75aba372d6000157ee35,rus15x4zw1,Emily_Honors_Thesis_Part_2,1,134,2020-08-29T11:15:00-07:00,6.9909510612488,4,versionC_stim.csv,READ_JOLVersionD.csv,"READ Version D",OLD,LONG,EXTENSION,ON2,B,96,158,Test,User,-,,Recall,Recall1,5536,,0,-1,-1,0,0,,,1
59ad75aba372d6000157ee35,rus15x4zw1,Emily_Honors_Thesis_Part_2,1,135,2020-08-29T11:15:03-07:00,2.9462320804596,4,versionC_stim.csv,READ_JOLVersionD.csv,"READ Version D",OLD,EAT,DINE,ON2,B,111,147,Test,User,-,,Recall,Recall1,2477,drink,66.666666666667,1754,2239,0,0,,,1
59ad75aba372d6000157ee35,rus15x4zw1,Emily_Honors_Thesis_Part_2,1,136,2020-08-29T11:15:06-07:00,3.1896820068359,4,versionC_stim.csv,READ_JOLVersionD.csv,"READ Version D",OLD,SMELL,INCENSE,ON2,B,110,159,Test,User,-,,Recall,Recall1,2693,,0,-1,-1,0,0,,,1
59ad75aba372d6000157ee35,rus15x4zw1,Emily_Honors_Thesis_Part_2,1,137,2020-08-29T11:15:11-07:00,5.1161589622498,4,versionC_stim.csv,READ_JOLVersionD.csv,"READ Version D",OLD,DOG,FURRY,ON2,B,102,174,Test,User,-,,Recall,Recall1,4667,,0,-1,-1,0,0,,,1
59ad75aba372d6000157ee35,rus15x4zw1,Emily_Honors_Thesis_Part_2,1,138,2020-08-29T11:15:14-07:00,3.2567298412323,4,versionC_stim.csv,READ_JOLVersionD.csv,"READ Version D",OLD,SHAVE,RAZOR,ON2,S,136,129,Test,User,-,,Recall,Recall1,2792,razor,100,1706,2637,1,1,,,1
59ad75aba372d6000157ee35,rus15x4zw1,Emily_Honors_Thesis_Part_2,1,139,2020-08-29T11:15:18-07:00,3.7351171970367,4,versionC_stim.csv,READ_JOLVersionD.csv,"READ Version D",OLD,ELECTION,MAZE,ON2,U,159,136,Test,User,-,,Recall,Recall1,3243,,0,-1,-1,0,0,,,1
59ad75aba372d6000157ee35,rus15x4zw1,Emily_Honors_Thesis_Part_2,1,140,2020-08-29T11:15:20-07:00,1.8685739040375,4,versionC_stim.csv,READ_JOLVersionD.csv,"READ Version D",OLD,CHARM,VEHICLE,ON2,U,160,171,Test,User,-,,Recall,Recall1,1466,,0,-1,-1,0,0,,,1
59ad75aba372d6000157ee35,rus15x4zw1,Emily_Honors_Thesis_Part_2,1,141,2020-08-29T11:15:22-07:00,2.6896739006042,4,versionC_stim.csv,READ_JOLVersionD.csv,"READ Version D",OLD,PANTHER,CAT,ON2,F,126,165,Test,User,-,,Recall,Recall1,2224,cat,100,1362,2057,1,1,,,1
59ad75aba372d6000157ee35,rus15x4zw1,Emily_Honors_Thesis_Part_2,1,142,2020-08-29T11:15:27-07:00,4.4413750171661,4,versionC_stim.csv,READ_JOLVersionD.csv,"READ Version D",OLD,AIRCRAFT,PLANE,ON2,F,129,162,Test,User,-,,Recall,Recall1,3992,plane,100,3387,3859,1,1,,,1
59ad75aba372d6000157ee35,rus15x4zw1,Emily_Honors_Thesis_Part_2,1,143,2020-08-29T11:15:31-07:00,4.6742990016937,4,versionC_stim.csv,READ_JOLVersionD.csv,"READ Version D",OLD,LEAGUE,BASEBALL,ON2,F,131,160,Test,User,-,,Recall,Recall1,4249,baseball,100,1575,4065,1,1,,,1
59ad75aba372d6000157ee35,rus15x4zw1,Emily_Honors_Thesis_Part_2,1,144,2020-08-29T11:15:34-07:00,2.3083870410919,4,versionC_stim.csv,READ_JOLVersionD.csv,"READ Version D",OLD,PENGUIN,BIRD,ON2,F,119,105,Test,User,-,,Recall,Recall1,1878,bird,100,1285,1747,1,1,,,1
59ad75aba372d6000157ee35,rus15x4zw1,Emily_Honors_Thesis_Part_2,1,145,2020-08-29T11:15:36-07:00,1.9102039337158,4,versionC_stim.csv,READ_JOLVersionD.csv,"READ Version D",OLD,HATE,NAME,ON2,U,167,137,Test,User,-,,Recall,Recall1,1548,,0,-1,-1,0,0,,,1
59ad75aba372d6000157ee35,rus15x4zw1,Emily_Honors_Thesis_Part_2,1,146,2020-08-29T11:15:39-07:00,3.2391180992126,4,versionC_stim.csv,READ_JOLVersionD.csv,"READ Version D",OLD,HEAD,SCALP,ON2,B,105,118,Test,User,-,,Recall,Recall1,2789,scalp,100,2020,2592,1,1,,,1
59ad75aba372d6000157ee35,rus15x4zw1,Emily_Honors_Thesis_Part_2,1,147,2020-08-29T11:15:41-07:00,2.3196260929108,4,versionC_stim.csv,READ_JOLVersionD.csv,"READ Version D",OLD,TAN,SUN,ON2,S,155,113,Test,User,-,,Recall,Recall1,1845,sun,100,1341,1637,1,1,,,1
59ad75aba372d6000157ee35,rus15x4zw1,Emily_Honors_Thesis_Part_2,1,148,2020-08-29T11:15:44-07:00,2.3162288665771,4,versionC_stim.csv,READ_JOLVersionD.csv,"READ Version D",OLD,COMMUNICATION,PHONE,ON2,S,149,153,Test,User,-,,Recall,Recall1,1751,,0,-1,-1,0,0,,,1
59ad75aba372d6000157ee35,rus15x4zw1,Emily_Honors_Thesis_Part_2,1,149,2020-08-29T11:15:46-07:00,2.3371820449829,4,versionC_stim.csv,READ_JOLVersionD.csv,"READ Version D",OLD,REEL,ROD,ON2,S,150,108,Test,User,-,,Recall,Recall1,1879,rod,100,1465,1692,1,1,,,1
59ad75aba372d6000157ee35,rus15x4zw1,Emily_Honors_Thesis_Part_2,1,150,2020-08-29T11:15:49-07:00,3.3686530590057,4,versionC_stim.csv,READ_JOLVersionD.csv,"READ Version D",OLD,SCAR,MAIN,ON2,U,175,169,Test,User,-,,Recall,Recall1,2898,main,100,2262,2598,1,1,,,1
59ad75aba372d6000157ee35,rus15x4zw1,Emily_Honors_Thesis_Part_2,1,151,2020-08-29T11:15:52-07:00,2.7058629989624,4,versionC_stim.csv,READ_JOLVersionD.csv,"READ Version D",OLD,THIMBLE,THREAD,ON2,F,121,127,Test,User,-,,Recall,Recall1,2229,thread,100,1375,2041,1,1,,,1
59ad75aba372d6000157ee35,rus15x4zw1,Emily_Honors_Thesis_Part_2,1,152,2020-08-29T11:15:55-07:00,2.93212890625,4,versionC_stim.csv,READ_JOLVersionD.csv,"READ Version D",OLD,FIGHT,FEUD,ON2,B,113,124,Test,User,-,,Recall,Recall1,2448,brawl,0,1666,2227,0,0,,,1
59ad75aba372d6000157ee35,rus15x4zw1,Emily_Honors_Thesis_Part_2,1,153,2020-08-29T11:15:57-07:00,2.3182120323181,4,versionC_stim.csv,READ_JOLVersionD.csv,"READ Version D",OLD,FLIP,TURN,ON2,F,116,141,Test,User,-,,Recall,Recall1,1809,,0,-1,-1,0,0,,,1
59ad75aba372d6000157ee35,rus15x4zw1,Emily_Honors_Thesis_Part_2,1,154,2020-08-29T11:16:00-07:00,2.3855769634247,4,versionC_stim.csv,READ_JOLVersionD.csv,"READ Version D",OLD,FICTION,LISTEN,ON2,U,164,131,Test,User,-,,Recall,Recall1,1770,,0,-1,-1,0,0,,,1
59ad75aba372d6000157ee35,rus15x4zw1,Emily_Honors_Thesis_Part_2,1,155,2020-08-29T11:16:02-07:00,2.4560921192169,4,versionC_stim.csv,READ_JOLVersionD.csv,"READ Version D",OLD,BREAKABLE,GLASS,ON2,F,127,139,Test,User,-,,Recall,Recall1,2003,glass,100,1308,1857,1,1,,,1
59ad75aba372d6000157ee35,rus15x4zw1,Emily_Honors_Thesis_Part_2,1,156,2020-08-29T11:16:07-07:00,4.7753648757935,4,versionC_stim.csv,READ_JOLVersionD.csv,"READ Version D",OLD,JAR,MASON,ON2,S,138,132,Test,User,-,,Recall,Recall1,4325,mason,100,3731,4098,1,1,,,1
59ad75aba372d6000157ee35,rus15x4zw1,Emily_Honors_Thesis_Part_2,1,157,2020-08-29T11:16:09-07:00,2.3837449550629,4,versionC_stim.csv,READ_JOLVersionD.csv,"READ Version D",OLD,LONELY,ALONE,ON2,S,145,150,Test,User,-,,Recall,Recall1,1896,alone,100,1307,1756,1,1,,,1
59ad75aba372d6000157ee35,rus15x4zw1,Emily_Honors_Thesis_Part_2,1,158,2020-08-29T11:16:16-07:00,6.3614020347595,4,versionC_stim.csv,READ_JOLVersionD.csv,"READ Version D",OLD,COLD,CHILL,ON2,B,114,117,Test,User,-,,Recall,Recall1,5897,ice,25,5147,5410,0,0,,,1
59ad75aba372d6000157ee35,rus15x4zw1,Emily_Honors_Thesis_Part_2,1,159,2020-08-29T11:16:18-07:00,2.6695020198822,4,versionC_stim.csv,READ_JOLVersionD.csv,"READ Version D",OLD,ACTRESS,STAR,ON2,F,120,144,Test,User,-,,Recall,Recall1,2206,star,100,1426,1884,1,1,,,1
59ad75aba372d6000157ee35,rus15x4zw1,Emily_Honors_Thesis_Part_2,1,160,2020-08-29T11:16:22-07:00,4.0826621055603,4,versionC_stim.csv,READ_JOLVersionD.csv,"READ Version D",OLD,TIE,SHOELACE,ON2,B,99,163,Test,User,-,,Recall,Recall1,3585,shoelace,100,2497,3425,1,1,,,1
59ad75aba372d6000157ee35,rus15x4zw1,Emily_Honors_Thesis_Part_2,1,161,2020-08-29T11:16:25-07:00,2.9103908538818,4,versionC_stim.csv,READ_JOLVersionD.csv,"READ Version D",OLD,PAPER,DOCUMENT,ON2,B,109,142,Test,User,-,,Recall,Recall1,2421,document,100,1515,2266,1,1,,,1
59ad75aba372d6000157ee35,rus15x4zw1,Emily_Honors_Thesis_Part_2,1,162,2020-08-29T11:16:28-07:00,2.9239611625671,4,versionC_stim.csv,READ_JOLVersionD.csv,"READ Version D",OLD,GROUND,EARTH,ON2,S,144,135,Test,User,-,,Recall,Recall1,2440,earth,100,1663,2152,1,1,,,1
59ad75aba372d6000157ee35,rus15x4zw1,Emily_Honors_Thesis_Part_2,1,163,2020-08-29T11:16:33-07:00,4.9274468421936,4,versionC_stim.csv,READ_JOLVersionD.csv,"READ Version D",OLD,TICK,FLEA,ON2,S,151,125,Test,User,-,,Recall,Recall1,4473,flea,100,3697,4315,1,1,,,1
59ad75aba372d6000157ee35,rus15x4zw1,Emily_Honors_Thesis_Part_2,1,164,2020-08-29T11:16:37-07:00,3.5972759723663,4,versionC_stim.csv,READ_JOLVersionD.csv,"READ Version D",OLD,SEATBELT,SAFETY,ON2,S,147,143,Test,User,-,,Recall,Recall1,3083,safety,100,1518,2976,1,1,,,1
59ad75aba372d6000157ee35,rus15x4zw1,Emily_Honors_Thesis_Part_2,1,165,2020-08-29T11:16:41-07:00,4.4150760173798,4,versionC_stim.csv,READ_JOLVersionD.csv,"READ Version D",OLD,BALLOON,POP,ON2,F,123,138,Test,User,-,,Recall,Recall1,3924,pop,100,3399,3717,1,1,,,1
59ad75aba372d6000157ee35,rus15x4zw1,Emily_Honors_Thesis_Part_2,1,166,2020-08-29T11:16:44-07:00,2.6988561153412,4,versionC_stim.csv,READ_JOLVersionD.csv,"READ Version D",OLD,TOIL,LEASE,ON2,U,170,145,Test,User,-,,Recall,Recall1,2219,,0,-1,-1,0,0,,,1
59ad75aba372d6000157ee35,rus15x4zw1,Emily_Honors_Thesis_Part_2,1,167,2020-08-29T11:16:47-07:00,3.0772988796234,4,versionC_stim.csv,READ_JOLVersionD.csv,"READ Version D",OLD,SIGN,LOAN,ON2,U,171,170,Test,User,-,,Recall,Recall1,2584,shake,22.222222222222,1932,2443,0,0,,,1
59ad75aba372d6000157ee35,rus15x4zw1,Emily_Honors_Thesis_Part_2,1,168,2020-08-29T11:16:56-07:00,9.3627090454102,4,versionC_stim.csv,READ_JOLVersionD.csv,"READ Version D",OLD,PLANT,CACTUS,ON2,B,98,115,Test,User,-,,Recall,Recall1,8885,,0,-1,-1,0,0,,,1
59ad75aba372d6000157ee35,rus15x4zw1,Emily_Honors_Thesis_Part_2,1,169,2020-08-29T11:16:59-07:00,2.3154530525208,4,versionC_stim.csv,READ_JOLVersionD.csv,"READ Version D",OLD,CLOTH,STRETCH,ON2,U,157,104,Test,User,-,,Recall,Recall1,1764,,0,-1,-1,0,0,,,1
59ad75aba372d6000157ee35,rus15x4zw1,Emily_Honors_Thesis_Part_2,1,170,2020-08-29T11:17:02-07:00,3.6682479381561,4,versionC_stim.csv,READ_JOLVersionD.csv,"READ Version D",OLD,DRINK,WATER,ON2,S,143,103,Test,User,-,,Recall,Recall1,3187,water,100,2547,3095,1,1,,,1
59ad75aba372d6000157ee35,rus15x4zw1,Emily_Honors_Thesis_Part_2,1,171,2020-08-29T11:17:05-07:00,2.7395901679993,4,versionC_stim.csv,READ_JOLVersionD.csv,"READ Version D",OLD,LIE,TRUTH,ON2,S,148,173,Test,User,-,,Recall,Recall1,2244,truth,100,1205,1987,1,1,,,1
59ad75aba372d6000157ee35,rus15x4zw1,Emily_Honors_Thesis_Part_2,1,172,2020-08-29T11:17:08-07:00,3.3643019199371,4,versionC_stim.csv,READ_JOLVersionD.csv,"READ Version D",OLD,END,ADJOURN,ON2,B,101,106,Test,User,-,,Recall,Recall1,2897,,0,-1,-1,0,0,,,1
59ad75aba372d6000157ee35,rus15x4zw1,Emily_Honors_Thesis_Part_2,1,173,2020-08-29T11:17:12-07:00,3.445513010025,4,versionC_stim.csv,READ_JOLVersionD.csv,"READ Version D",OLD,TRUTHFUL,HONEST,ON2,F,133,99,Test,User,-,,Recall,Recall1,2966,honest,100,2073,2642,1,1,,,1
59ad75aba372d6000157ee35,rus15x4zw1,Emily_Honors_Thesis_Part_2,1,174,2020-08-29T11:17:14-07:00,2.086699962616,4,versionC_stim.csv,READ_JOLVersionD.csv,"READ Version D",OLD,RED,CHERRY,ON2,B,104,101,Test,User,-,,Recall,Recall1,1640,,0,-1,-1,0,0,,,1
59ad75aba372d6000157ee35,rus15x4zw1,Emily_Honors_Thesis_Part_2,1,175,2020-08-29T11:17:16-07:00,2.534019947052,4,versionC_stim.csv,READ_JOLVersionD.csv,"READ Version D",OLD,AWAY,GONE,ON2,S,142,110,Test,User,-,,Recall,Recall1,2042,,0,-1,-1,0,0,,,1
59ad75aba372d6000157ee35,rus15x4zw1,Emily_Honors_Thesis_Part_2,1,176,2020-08-29T11:17:18-07:00,1.6506481170654,4,versionC_stim.csv,READ_JOLVersionD.csv,"READ Version D",OLD,ABLE,CRACKLE,ON2,U,162,175,Test,User,-,,Recall,Recall1,1235,,0,-1,-1,0,0,,,1
59ad75aba372d6000157ee35,rus15x4zw1,Emily_Honors_Thesis_Part_2,1,177,2020-08-29T11:17:25-07:00,6.8269238471985,4,versionC_stim.csv,READ_JOLVersionD.csv,"READ Version D",OLD,NAP,SLEEP,ON2,F,134,111,Test,User,-,,Recall,Recall1,6355,,0,-1,-1,0,0,,,1
59ad75aba372d6000157ee35,rus15x4zw1,Emily_Honors_Thesis_Part_2,1,178,2020-08-29T11:17:30-07:00,5.241455078125,4,versionC_stim.csv,READ_JOLVersionD.csv,"READ Version D",OLD,REVENGE,EVEN,ON2,F,122,154,Test,User,-,,Recall,Recall1,4768,,0,-1,-1,0,0,,,1
59ad75aba372d6000157ee35,rus15x4zw1,Emily_Honors_Thesis_Part_2,1,179,2020-08-29T11:17:34-07:00,4.0086860656738,4,versionC_stim.csv,READ_JOLVersionD.csv,"READ Version D",OLD,OBTAIN,MEAT,ON2,U,161,152,Test,User,-,,Recall,Recall1,3534,,0,-1,-1,0,0,,,1
59ad75aba372d6000157ee35,rus15x4zw1,Emily_Honors_Thesis_Part_2,1,180,2020-08-29T11:17:36-07:00,1.8599059581757,4,versionC_stim.csv,READ_JOLVersionD.csv,"READ Version D",OLD,FAVORITE,BEST,ON2,F,125,107,Test,User,-,,Recall,Recall1,1424,,0,-1,-1,0,0,,,1
59ad75aba372d6000157ee35,rus15x4zw1,Emily_Honors_Thesis_Part_2,1,181,2020-08-29T11:17:44-07:00,8.0859260559082,4,versionC_stim.csv,READ_JOLVersionD.csv,"READ Version D",OLD,MYSTERY,DETECTIVE,ON2,B,100,126,Test,User,-,,Recall,Recall1,7632,detective,100,6383,7477,1,1,,,1
59ad75aba372d6000157ee35,rus15x4zw1,Emily_Honors_Thesis_Part_2,1,182,2020-08-29T11:17:50-07:00,5.4060189723969,4,versionC_stim.csv,READ_JOLVersionD.csv,"READ Version D",OLD,NOISE,LOUD,ON2,S,152,122,Test,User,-,,Recall,Recall1,4909,loud,100,4360,4799,1,1,,,1
59ad75aba372d6000157ee35,rus15x4zw1,Emily_Honors_Thesis_Part_2,1,183,2020-08-29T11:17:53-07:00,3.5143389701843,4,versionC_stim.csv,READ_JOLVersionD.csv,"READ Version D",OLD,HAVE,OWN,ON2,S,153,156,Test,User,-,,Recall,Recall1,2975,,0,-1,-1,0,0,,,1
59ad75aba372d6000157ee35,rus15x4zw1,Emily_Honors_Thesis_Part_2,1,184,2020-08-29T11:17:55-07:00,2.3245739936829,4,versionC_stim.csv,READ_JOLVersionD.csv,"READ Version D",OLD,WET,DRY,ON2,S,146,130,Test,User,-,,Recall,Recall1,1834,,0,-1,-1,0,0,,,1
59ad75aba372d6000157ee35,rus15x4zw1,Emily_Honors_Thesis_Part_2,1,185,2020-08-29T11:18:01-07:00,5.6299579143524,4,versionC_stim.csv,READ_JOLVersionD.csv,"READ Version D",OLD,JOKE,KEYS,ON2,U,165,112,Test,User,-,,Recall,Recall1,5156,keys,100,4603,4958,1,1,,,1
59ad75aba372d6000157ee35,rus15x4zw1,Emily_Honors_Thesis_Part_2,1,186,2020-08-29T11:18:02-07:00,1.4389309883118,4,versionC_stim.csv,READ_JOLVersionD.csv,"READ Version D",OLD,OUNCE,BOTH,ON2,U,172,164,Test,User,-,,Recall,Recall1,1052,,0,-1,-1,0,0,,,1
59ad75aba372d6000157ee35,rus15x4zw1,Emily_Honors_Thesis_Part_2,1,187,2020-08-29T11:18:08-07:00,5.4860961437225,4,versionC_stim.csv,READ_JOLVersionD.csv,"READ Version D",OLD,TRASH,LITTER,ON2,B,103,155,Test,User,-,,Recall,Recall1,4984,litter,100,4152,4816,1,1,,,1
59ad75aba372d6000157ee35,rus15x4zw1,Emily_Honors_Thesis_Part_2,1,188,2020-08-29T11:18:10-07:00,2.5417909622192,4,versionC_stim.csv,READ_JOLVersionD.csv,"READ Version D",OLD,BANG,FUZZY,ON2,U,168,148,Test,User,-,,Recall,Recall1,2055,,0,-1,-1,0,0,,,1
59ad75aba372d6000157ee35,rus15x4zw1,Emily_Honors_Thesis_Part_2,1,189,2020-08-29T11:18:15-07:00,4.7166759967804,4,versionC_stim.csv,READ_JOLVersionD.csv,"READ Version D",OLD,CLEAR,MOAT,ON2,U,169,97,Test,User,-,,Recall,Recall1,4222,moat,100,3389,3863,1,1,,,1
59ad75aba372d6000157ee35,rus15x4zw1,Emily_Honors_Thesis_Part_2,1,190,2020-08-29T11:20:28-07:00,133.32674098015,4,versionC_stim.csv,READ_JOLVersionD.csv,"READ Version D",OLD,,,,,,0,Instruct,-,10,"You will now be presented with a new set of word pairs. Please study each pair. Remember that your memory will be tested! When finished, press Enter to move to the next pair.",Initial_Instruct,Instruct4,132846,,,-1,-1,,,,,1
59ad75aba372d6000157ee35,rus15x4zw1,Emily_Honors_Thesis_Part_2,1,191,2020-08-29T11:20:41-07:00,12.395596027374,4,versionC_stim.csv,READ_JOLVersionD.csv,"READ Version D",OLD,,,,,,0,Instruct,,10,"You will again be asked to rate your ability to remember these items using a 0 to 100 scale. Remember to use the full range of the scale!",,Instruct10,11908,,,-1,-1,,,,,1
59ad75aba372d6000157ee35,rus15x4zw1,Emily_Honors_Thesis_Part_2,1,192,2020-08-29T11:20:45-07:00,4.4983420372009,4,versionC_stim.csv,READ_JOLVersionD.csv,"READ Version D",OLD,,,,,,0,Instruct,User,-,"Press Enter when you are readty to begin",,Instruct11,4051,,,-1,-1,,,,,1
59ad75aba372d6000157ee35,rus15x4zw1,Emily_Honors_Thesis_Part_2,1,193,2020-08-29T11:20:51-07:00,5.900367975235,4,versionC_stim.csv,READ_JOLVersionD.csv,"READ Version D",OLD,JAM,SPACE,Buffer,Buffer,5,2,JOL,User,-,"How likely are you to correctly recall the second item in the pair?|Type your response on a scale from 0-100 and then press Enter.",Study/JOL,BUFFER3,5401,,,4266,4675,,,,50,1
59ad75aba372d6000157ee35,rus15x4zw1,Emily_Honors_Thesis_Part_2,1,194,2020-08-29T11:20:54-07:00,3.200798034668,4,versionC_stim.csv,READ_JOLVersionD.csv,"READ Version D",OLD,HIDE,SCARE,Buffer,Buffer,4,5,JOL,User,-,"How likely are you to correctly recall the second item in the pair?|Type your response on a scale from 0-100 and then press Enter.",Study/JOL,BUFFER3,2751,,,1906,2406,,,,40,1
59ad75aba372d6000157ee35,rus15x4zw1,Emily_Honors_Thesis_Part_2,1,195,2020-08-29T11:20:58-07:00,3.8128399848938,4,versionC_stim.csv,READ_JOLVersionD.csv,"READ Version D",OLD,CATCHER,BASEBALL,Buffer,Buffer,2,4,JOL,User,-,"How likely are you to correctly recall the second item in the pair?|Type your response on a scale from 0-100 and then press Enter.",Study/JOL,BUFFER3,3344,,,2217,2635,,,,60,1
59ad75aba372d6000157ee35,rus15x4zw1,Emily_Honors_Thesis_Part_2,1,196,2020-08-29T11:21:02-07:00,4.1698620319366,4,versionC_stim.csv,READ_JOLVersionD.csv,"READ Version D",OLD,GREEN,TREES,Buffer,Buffer,1,3,JOL,User,-,"How likely are you to correctly recall the second item in the pair?|Type your response on a scale from 0-100 and then press Enter.",Study/JOL,BUFFER3,3633,,,1965,2328,,,,70,1
59ad75aba372d6000157ee35,rus15x4zw1,Emily_Honors_Thesis_Part_2,1,197,2020-08-29T11:21:06-07:00,3.0326869487762,4,versionC_stim.csv,READ_JOLVersionD.csv,"READ Version D",OLD,BUTTER,PEANUT,Buffer,Buffer,3,6,JOL,User,-,"How likely are you to correctly recall the second item in the pair?|Type your response on a scale from 0-100 and then press Enter.",Study/JOL,BUFFER3,2540,,,1764,2099,,,,80,1
59ad75aba372d6000157ee35,rus15x4zw1,Emily_Honors_Thesis_Part_2,1,198,2020-08-29T11:21:09-07:00,3.0791659355164,4,versionC_stim.csv,READ_JOLVersionD.csv,"READ Version D",OLD,PILOT,PLANE,ON,F,44,56,JOL,User,-,"How likely are you to correctly recall the second item in the pair?|Type your response on a scale from 0-100 and then press Enter.",Study/JOL,"Study Phase2",2626,,,1811,2252,,,,60,1
59ad75aba372d6000157ee35,rus15x4zw1,Emily_Honors_Thesis_Part_2,1,199,2020-08-29T11:21:12-07:00,3.545567035675,4,versionC_stim.csv,READ_JOLVersionD.csv,"READ Version D",OLD,MONEY,WAGE,ON,B,8,76,JOL,User,-,"How likely are you to correctly recall the second item in the pair?|Type your response on a scale from 0-100 and then press Enter.",Study/JOL,"Study Phase2",3085,,,2107,2515,,,,60,1
59ad75aba372d6000157ee35,rus15x4zw1,Emily_Honors_Thesis_Part_2,1,200,2020-08-29T11:21:16-07:00,3.6687140464783,4,versionC_stim.csv,READ_JOLVersionD.csv,"READ Version D",OLD,COW,HERD,ON,B,22,48,JOL,User,-,"How likely are you to correctly recall the second item in the pair?|Type your response on a scale from 0-100 and then press Enter.",Study/JOL,"Study Phase2",3193,,,2407,2759,,,,70,1
59ad75aba372d6000157ee35,rus15x4zw1,Emily_Honors_Thesis_Part_2,1,201,2020-08-29T11:21:20-07:00,3.9825999736786,4,versionC_stim.csv,READ_JOLVersionD.csv,"READ Version D",OLD,SEIZE,TAKE,ON,F,29,9,JOL,User,-,"How likely are you to correctly recall the second item in the pair?|Type your response on a scale from 0-100 and then press Enter.",Study/JOL,"Study Phase2",3484,,,1795,2392,,,,40,1
59ad75aba372d6000157ee35,rus15x4zw1,Emily_Honors_Thesis_Part_2,1,202,2020-08-29T11:21:28-07:00,7.7617530822754,4,versionC_stim.csv,READ_JOLVersionD.csv,"READ Version D",OLD,ASSIGNMENT,DUE,ON,S,46,40,JOL,User,-,"How likely are you to correctly recall the second item in the pair?|Type your response on a scale from 0-100 and then press Enter.",Study/JOL,"Study Phase2",7302,,,5256,5542,,,,80,1
59ad75aba372d6000157ee35,rus15x4zw1,Emily_Honors_Thesis_Part_2,1,203,2020-08-29T11:21:31-07:00,2.9918467998505,4,versionC_stim.csv,READ_JOLVersionD.csv,"READ Version D",OLD,FUTURE,PAST,ON,S,61,65,JOL,User,-,"How likely are you to correctly recall the second item in the pair?|Type your response on a scale from 0-100 and then press Enter.",Study/JOL,"Study Phase2",2488,,,1845,2148,,,,80,1
59ad75aba372d6000157ee35,rus15x4zw1,Emily_Honors_Thesis_Part_2,1,204,2020-08-29T11:21:34-07:00,3.1047320365906,4,versionC_stim.csv,READ_JOLVersionD.csv,"READ Version D",OLD,RACKET,BALL,ON,F,38,26,JOL,User,-,"How likely are you to correctly recall the second item in the pair?|Type your response on a scale from 0-100 and then press Enter.",Study/JOL,"Study Phase2",2669,,,1820,2169,,,,60,1
59ad75aba372d6000157ee35,rus15x4zw1,Emily_Honors_Thesis_Part_2,1,205,2020-08-29T11:21:36-07:00,2.4857180118561,4,versionC_stim.csv,READ_JOLVersionD.csv,"READ Version D",OLD,HAMMER,CHISEL,ON,B,9,42,JOL,User,-,"How likely are you to correctly recall the second item in the pair?|Type your response on a scale from 0-100 and then press Enter.",Study/JOL,"Study Phase2",2033,,,1385,1634,,,,80,1
59ad75aba372d6000157ee35,rus15x4zw1,Emily_Honors_Thesis_Part_2,1,206,2020-08-29T11:21:43-07:00,6.4956591129303,4,versionC_stim.csv,READ_JOLVersionD.csv,"READ Version D",OLD,STENCH,SMELL,ON,F,42,55,JOL,User,-,"How likely are you to correctly recall the second item in the pair?|Type your response on a scale from 0-100 and then press Enter.",Study/JOL,"Study Phase2",6033,,,5228,5598,,,,60,1
59ad75aba372d6000157ee35,rus15x4zw1,Emily_Honors_Thesis_Part_2,1,207,2020-08-29T11:21:46-07:00,3.8327338695526,4,versionC_stim.csv,READ_JOLVersionD.csv,"READ Version D",OLD,WAR,REVOLUTION,ON,B,20,16,JOL,User,-,"How likely are you to correctly recall the second item in the pair?|Type your response on a scale from 0-100 and then press Enter.",Study/JOL,"Study Phase2",3371,,,2228,2552,,,,70,1
59ad75aba372d6000157ee35,rus15x4zw1,Emily_Honors_Thesis_Part_2,1,208,2020-08-29T11:21:49-07:00,2.7523090839386,4,versionC_stim.csv,READ_JOLVersionD.csv,"READ Version D",OLD,SICK,HIDE,ON,U,84,80,JOL,User,-,"How likely are you to correctly recall the second item in the pair?|Type your response on a scale from 0-100 and then press Enter.",Study/JOL,"Study Phase2",2272,,,1465,1924,,,,30,1
59ad75aba372d6000157ee35,rus15x4zw1,Emily_Honors_Thesis_Part_2,1,209,2020-08-29T11:21:55-07:00,5.6099820137024,4,versionC_stim.csv,READ_JOLVersionD.csv,"READ Version D",OLD,FLOWER,ORCHID,ON,B,24,32,JOL,User,-,"How likely are you to correctly recall the second item in the pair?|Type your response on a scale from 0-100 and then press Enter.",Study/JOL,"Study Phase2",5126,,,4388,4789,,,,50,1
59ad75aba372d6000157ee35,rus15x4zw1,Emily_Honors_Thesis_Part_2,1,210,2020-08-29T11:21:58-07:00,2.7744100093842,4,versionC_stim.csv,READ_JOLVersionD.csv,"READ Version D",OLD,ADD,VALLEY,ON,U,82,20,JOL,User,-,"How likely are you to correctly recall the second item in the pair?|Type your response on a scale from 0-100 and then press Enter.",Study/JOL,"Study Phase2",2300,,,1422,1929,,,,30,1
59ad75aba372d6000157ee35,rus15x4zw1,Emily_Honors_Thesis_Part_2,1,211,2020-08-29T11:22:05-07:00,6.9349160194397,4,versionC_stim.csv,READ_JOLVersionD.csv,"READ Version D",OLD,DROWSY,SLEEP,ON,F,41,22,JOL,User,-,"How likely are you to correctly recall the second item in the pair?|Type your response on a scale from 0-100 and then press Enter.",Study/JOL,"Study Phase2",5368,,,3398,3794,,,,70,1
59ad75aba372d6000157ee35,rus15x4zw1,Emily_Honors_Thesis_Part_2,1,212,2020-08-29T11:22:09-07:00,4.5806519985199,4,versionC_stim.csv,READ_JOLVersionD.csv,"READ Version D",OLD,BAD,DELINQUENT,ON,B,6,68,JOL,User,-,"How likely are you to correctly recall the second item in the pair?|Type your response on a scale from 0-100 and then press Enter.",Study/JOL,"Study Phase2",4094,,,1983,3693,,,,60,1
59ad75aba372d6000157ee35,rus15x4zw1,Emily_Honors_Thesis_Part_2,1,213,2020-08-29T11:22:12-07:00,3.1608958244324,4,versionC_stim.csv,READ_JOLVersionD.csv,"READ Version D",OLD,FISH,TUNA,ON,B,25,34,JOL,User,-,"How likely are you to correctly recall the second item in the pair?|Type your response on a scale from 0-100 and then press Enter.",Study/JOL,"Study Phase2",2623,,,1793,2163,,,,60,1
59ad75aba372d6000157ee35,rus15x4zw1,Emily_Honors_Thesis_Part_2,1,214,2020-08-29T11:22:17-07:00,4.5463001728058,4,versionC_stim.csv,READ_JOLVersionD.csv,"READ Version D",OLD,TUCK,ALLOW,ON,U,78,25,JOL,User,-,"How likely are you to correctly recall the second item in the pair?|Type your response on a scale from 0-100 and then press Enter.",Study/JOL,"Study Phase2",4055,,,3168,3719,,,,30,1
59ad75aba372d6000157ee35,rus15x4zw1,Emily_Honors_Thesis_Part_2,1,215,2020-08-29T11:22:24-07:00,6.7847909927368,4,versionC_stim.csv,READ_JOLVersionD.csv,"READ Version D",OLD,ATTIRE,CLOTHES,ON,F,43,29,JOL,User,-,"How likely are you to correctly recall the second item in the pair?|Type your response on a scale from 0-100 and then press Enter.",Study/JOL,"Study Phase2",6248,,,2994,5864,,,,70,1
59ad75aba372d6000157ee35,rus15x4zw1,Emily_Honors_Thesis_Part_2,1,216,2020-08-29T11:22:33-07:00,9.3239648342133,4,versionC_stim.csv,READ_JOLVersionD.csv,"READ Version D",OLD,BIRD,SWAN,ON,B,14,13,JOL,User,-,"How likely are you to correctly recall the second item in the pair?|Type your response on a scale from 0-100 and then press Enter.",Study/JOL,"Study Phase2",8856,,,8169,8488,,,,70,1
59ad75aba372d6000157ee35,rus15x4zw1,Emily_Honors_Thesis_Part_2,1,217,2020-08-29T11:22:36-07:00,3.2460100650787,4,versionC_stim.csv,READ_JOLVersionD.csv,"READ Version D",OLD,SIP,DRINK,ON,F,27,44,JOL,User,-,"How likely are you to correctly recall the second item in the pair?|Type your response on a scale from 0-100 and then press Enter.",Study/JOL,"Study Phase2",2750,,,2138,2445,,,,60,1
59ad75aba372d6000157ee35,rus15x4zw1,Emily_Honors_Thesis_Part_2,1,218,2020-08-29T11:22:40-07:00,3.7857711315155,4,versionC_stim.csv,READ_JOLVersionD.csv,"READ Version D",OLD,POSITION,MACHINE,ON,U,76,66,JOL,User,-,"How likely are you to correctly recall the second item in the pair?|Type your response on a scale from 0-100 and then press Enter.",Study/JOL,"Study Phase2",3315,,,2717,2982,,,,70,1
59ad75aba372d6000157ee35,rus15x4zw1,Emily_Honors_Thesis_Part_2,1,219,2020-08-29T11:22:43-07:00,2.7112820148468,4,versionC_stim.csv,READ_JOLVersionD.csv,"READ Version D",OLD,DIVISION,MATH,ON,F,33,38,JOL,User,-,"How likely are you to correctly recall the second item in the pair?|Type your response on a scale from 0-100 and then press Enter.",Study/JOL,"Study Phase2",2191,,,1529,1842,,,,70,1
59ad75aba372d6000157ee35,rus15x4zw1,Emily_Honors_Thesis_Part_2,1,220,2020-08-29T11:22:46-07:00,3.8248188495636,4,versionC_stim.csv,READ_JOLVersionD.csv,"READ Version D",OLD,CHILD,BABY,ON,S,64,60,JOL,User,-,"How likely are you to correctly recall the second item in the pair?|Type your response on a scale from 0-100 and then press Enter.",Study/JOL,"Study Phase2",3278,,,2565,2880,,,,70,1
59ad75aba372d6000157ee35,rus15x4zw1,Emily_Honors_Thesis_Part_2,1,221,2020-08-29T11:22:54-07:00,7.4389679431915,4,versionC_stim.csv,READ_JOLVersionD.csv,"READ Version D",OLD,PLANT,ROOT,ON,B,13,78,JOL,User,-,"How likely are you to correctly recall the second item in the pair?|Type your response on a scale from 0-100 and then press Enter.",Study/JOL,"Study Phase2",6984,,,1167,6528,,,,60,1
59ad75aba372d6000157ee35,rus15x4zw1,Emily_Honors_Thesis_Part_2,1,222,2020-08-29T11:23:41-07:00,47.237365007401,4,versionC_stim.csv,READ_JOLVersionD.csv,"READ Version D",OLD,WOULD,CASH,ON,U,83,30,JOL,User,-,"How likely are you to correctly recall the second item in the pair?|Type your response on a scale from 0-100 and then press Enter.",Study/JOL,"Study Phase2",46696,,,46000,46363,,,,40,1
59ad75aba372d6000157ee35,rus15x4zw1,Emily_Honors_Thesis_Part_2,1,223,2020-08-29T11:23:44-07:00,3.2445921897888,4,versionC_stim.csv,READ_JOLVersionD.csv,"READ Version D",OLD,NEWS,EDITOR,ON,B,10,46,JOL,User,-,"How likely are you to correctly recall the second item in the pair?|Type your response on a scale from 0-100 and then press Enter.",Study/JOL,"Study Phase2",2755,,,1708,2165,,,,40,1
59ad75aba372d6000157ee35,rus15x4zw1,Emily_Honors_Thesis_Part_2,1,224,2020-08-29T11:23:48-07:00,3.5108280181885,4,versionC_stim.csv,READ_JOLVersionD.csv,"READ Version D",OLD,SODA,POP,ON,S,56,15,JOL,User,-,"How likely are you to correctly recall the second item in the pair?|Type your response on a scale from 0-100 and then press Enter.",Study/JOL,"Study Phase2",3016,,,2310,2684,,,,60,1
59ad75aba372d6000157ee35,rus15x4zw1,Emily_Honors_Thesis_Part_2,1,225,2020-08-29T11:23:51-07:00,2.7557899951935,4,versionC_stim.csv,READ_JOLVersionD.csv,"READ Version D",OLD,DOG,PAW,ON,B,15,81,JOL,User,-,"How likely are you to correctly recall the second item in the pair?|Type your response on a scale from 0-100 and then press Enter.",Study/JOL,"Study Phase2",2249,,,1556,1889,,,,60,1
59ad75aba372d6000157ee35,rus15x4zw1,Emily_Honors_Thesis_Part_2,1,226,2020-08-29T11:23:53-07:00,2.7211718559265,4,versionC_stim.csv,READ_JOLVersionD.csv,"READ Version D",OLD,FAMINE,HUNGER,ON,F,40,31,JOL,User,-,"How likely are you to correctly recall the second item in the pair?|Type your response on a scale from 0-100 and then press Enter.",Study/JOL,"Study Phase2",2251,,,1632,1898,,,,70,1
59ad75aba372d6000157ee35,rus15x4zw1,Emily_Honors_Thesis_Part_2,1,227,2020-08-29T11:23:56-07:00,2.657516002655,4,versionC_stim.csv,READ_JOLVersionD.csv,"READ Version D",OLD,LATCH,KEY,ON,F,36,86,JOL,User,-,"How likely are you to correctly recall the second item in the pair?|Type your response on a scale from 0-100 and then press Enter.",Study/JOL,"Study Phase2",2179,,,1604,1872,,,,70,1
59ad75aba372d6000157ee35,rus15x4zw1,Emily_Honors_Thesis_Part_2,1,228,2020-08-29T11:23:59-07:00,2.6055359840393,4,versionC_stim.csv,READ_JOLVersionD.csv,"READ Version D",OLD,WATER,BRIDGE,ON,B,18,18,JOL,User,-,"How likely are you to correctly recall the second item in the pair?|Type your response on a scale from 0-100 and then press Enter.",Study/JOL,"Study Phase2",2096,,,1094,1440,,,,70,1
59ad75aba372d6000157ee35,rus15x4zw1,Emily_Honors_Thesis_Part_2,1,229,2020-08-29T11:24:01-07:00,2.7297461032867,4,versionC_stim.csv,READ_JOLVersionD.csv,"READ Version D",OLD,ROCK,GEOLOGY,ON,B,19,73,JOL,User,-,"How likely are you to correctly recall the second item in the pair?|Type your response on a scale from 0-100 and then press Enter.",Study/JOL,"Study Phase2",2249,,,1564,1898,,,,70,1
59ad75aba372d6000157ee35,rus15x4zw1,Emily_Honors_Thesis_Part_2,1,230,2020-08-29T11:24:07-07:00,5.1932399272919,4,versionC_stim.csv,READ_JOLVersionD.csv,"READ Version D",OLD,CAR,HAPPY,ON,U,77,21,JOL,User,-,"How likely are you to correctly recall the second item in the pair?|Type your response on a scale from 0-100 and then press Enter.",Study/JOL,"Study Phase2",4717,,,1918,4400,,,,30,1
59ad75aba372d6000157ee35,rus15x4zw1,Emily_Honors_Thesis_Part_2,1,231,2020-08-29T11:24:10-07:00,3.0402691364288,4,versionC_stim.csv,READ_JOLVersionD.csv,"READ Version D",OLD,TOILET,BATHROOM,ON,S,58,75,JOL,User,-,"How likely are you to correctly recall the second item in the pair?|Type your response on a scale from 0-100 and then press Enter.",Study/JOL,"Study Phase2",2546,,,1730,2150,,,,60,1
59ad75aba372d6000157ee35,rus15x4zw1,Emily_Honors_Thesis_Part_2,1,232,2020-08-29T11:24:13-07:00,2.9696629047394,4,versionC_stim.csv,READ_JOLVersionD.csv,"READ Version D",OLD,WIND,BLOW,ON,S,55,84,JOL,User,-,"How likely are you to correctly recall the second item in the pair?|Type your response on a scale from 0-100 and then press Enter.",Study/JOL,"Study Phase2",2470,,,1596,2099,,,,50,1
59ad75aba372d6000157ee35,rus15x4zw1,Emily_Honors_Thesis_Part_2,1,233,2020-08-29T11:24:18-07:00,5.441132068634,4,versionC_stim.csv,READ_JOLVersionD.csv,"READ Version D",OLD,ACCIDENT,STRONG,ON,U,80,49,JOL,User,-,"How likely are you to correctly recall the second item in the pair?|Type your response on a scale from 0-100 and then press Enter.",Study/JOL,"Study Phase2",4954,,,1272,4625,,,,30,1
59ad75aba372d6000157ee35,rus15x4zw1,Emily_Honors_Thesis_Part_2,1,234,2020-08-29T11:24:21-07:00,3.3917469978333,4,versionC_stim.csv,READ_JOLVersionD.csv,"READ Version D",OLD,STING,HORNET,ON,B,11,11,JOL,User,-,"How likely are you to correctly recall the second item in the pair?|Type your response on a scale from 0-100 and then press Enter.",Study/JOL,"Study Phase2",2903,,,2234,2555,,,,60,1
59ad75aba372d6000157ee35,rus15x4zw1,Emily_Honors_Thesis_Part_2,1,235,2020-08-29T11:24:25-07:00,3.6835589408875,4,versionC_stim.csv,READ_JOLVersionD.csv,"READ Version D",OLD,LIVER,KIDNEY,ON,S,53,57,JOL,User,-,"How likely are you to correctly recall the second item in the pair?|Type your response on a scale from 0-100 and then press Enter.",Study/JOL,"Study Phase2",3126,,,2526,2642,,,,60,1
59ad75aba372d6000157ee35,rus15x4zw1,Emily_Honors_Thesis_Part_2,1,236,2020-08-29T11:24:28-07:00,2.5847890377045,4,versionC_stim.csv,READ_JOLVersionD.csv,"READ Version D",OLD,BLAZE,FIRE,ON,F,45,41,JOL,User,-,"How likely are you to correctly recall the second item in the pair?|Type your response on a scale from 0-100 and then press Enter.",Study/JOL,"Study Phase2",2083,,,1466,1826,,,,60,1
59ad75aba372d6000157ee35,rus15x4zw1,Emily_Honors_Thesis_Part_2,1,237,2020-08-29T11:24:31-07:00,3.2241399288177,4,versionC_stim.csv,READ_JOLVersionD.csv,"READ Version D",OLD,SACKING,DIETARY,ON,U,67,24,JOL,User,-,"How likely are you to correctly recall the second item in the pair?|Type your response on a scale from 0-100 and then press Enter.",Study/JOL,"Study Phase2",2707,,,1987,2365,,,,40,1
59ad75aba372d6000157ee35,rus15x4zw1,Emily_Honors_Thesis_Part_2,1,238,2020-08-29T11:24:34-07:00,2.7051200866699,4,versionC_stim.csv,READ_JOLVersionD.csv,"READ Version D",OLD,DESIGN,ARCHITECTURE,ON,S,51,58,JOL,User,-,"How likely are you to correctly recall the second item in the pair?|Type your response on a scale from 0-100 and then press Enter.",Study/JOL,"Study Phase2",2218,,,1462,1948,,,,50,1
59ad75aba372d6000157ee35,rus15x4zw1,Emily_Honors_Thesis_Part_2,1,239,2020-08-29T11:24:37-07:00,3.0890309810638,4,versionC_stim.csv,READ_JOLVersionD.csv,"READ Version D",OLD,SITE,LOCATION,ON,S,48,72,JOL,User,-,"How likely are you to correctly recall the second item in the pair?|Type your response on a scale from 0-100 and then press Enter.",Study/JOL,"Study Phase2",2628,,,1626,2354,,,,40,1
59ad75aba372d6000157ee35,rus15x4zw1,Emily_Honors_Thesis_Part_2,1,240,2020-08-29T11:24:43-07:00,5.8793089389801,4,versionC_stim.csv,READ_JOLVersionD.csv,"READ Version D",OLD,VASE,KING,ON,U,85,17,JOL,User,-,"How likely are you to correctly recall the second item in the pair?|Type your response on a scale from 0-100 and then press Enter.",Study/JOL,"Study Phase2",5394,,,2775,5118,,,,40,1
59ad75aba372d6000157ee35,rus15x4zw1,Emily_Honors_Thesis_Part_2,1,241,2020-08-29T11:24:47-07:00,4.3255128860474,4,versionC_stim.csv,READ_JOLVersionD.csv,"READ Version D",OLD,FLOOR,DISCOVER,ON,U,71,71,JOL,User,-,"How likely are you to correctly recall the second item in the pair?|Type your response on a scale from 0-100 and then press Enter.",Study/JOL,"Study Phase2",3863,,,1462,3623,,,,30,1
59ad75aba372d6000157ee35,rus15x4zw1,Emily_Honors_Thesis_Part_2,1,242,2020-08-29T11:24:52-07:00,4.7840270996094,4,versionC_stim.csv,READ_JOLVersionD.csv,"READ Version D",OLD,SALAD,LETTUCE,ON,S,59,27,JOL,User,-,"How likely are you to correctly recall the second item in the pair?|Type your response on a scale from 0-100 and then press Enter.",Study/JOL,"Study Phase2",4300,,,2353,2651,,,,60,1
59ad75aba372d6000157ee35,rus15x4zw1,Emily_Honors_Thesis_Part_2,1,243,2020-08-29T11:24:56-07:00,3.9443030357361,4,versionC_stim.csv,READ_JOLVersionD.csv,"READ Version D",OLD,ENOUGH,FULL,ON,F,26,36,JOL,User,-,"How likely are you to correctly recall the second item in the pair?|Type your response on a scale from 0-100 and then press Enter.",Study/JOL,"Study Phase2",3404,,,2721,3113,,,,50,1
59ad75aba372d6000157ee35,rus15x4zw1,Emily_Honors_Thesis_Part_2,1,244,2020-08-29T11:24:58-07:00,2.6827609539032,4,versionC_stim.csv,READ_JOLVersionD.csv,"READ Version D",OLD,FOOT,SHOE,ON,S,60,45,JOL,User,-,"How likely are you to correctly recall the second item in the pair?|Type your response on a scale from 0-100 and then press Enter.",Study/JOL,"Study Phase2",2202,,,1546,1857,,,,60,1
59ad75aba372d6000157ee35,rus15x4zw1,Emily_Honors_Thesis_Part_2,1,245,2020-08-29T11:25:02-07:00,3.6504340171814,4,versionC_stim.csv,READ_JOLVersionD.csv,"READ Version D",OLD,AMOUNT,NUMBER,ON,S,47,63,JOL,User,-,"How likely are you to correctly recall the second item in the pair?|Type your response on a scale from 0-100 and then press Enter.",Study/JOL,"Study Phase2",3146,,,2510,2867,,,,60,1
59ad75aba372d6000157ee35,rus15x4zw1,Emily_Honors_Thesis_Part_2,1,246,2020-08-29T11:25:05-07:00,2.8110160827637,4,versionC_stim.csv,READ_JOLVersionD.csv,"READ Version D",OLD,BAR,GRILL,ON,S,52,12,JOL,User,-,"How likely are you to correctly recall the second item in the pair?|Type your response on a scale from 0-100 and then press Enter.",Study/JOL,"Study Phase2",2293,,,1909,1966,,,,70,1
59ad75aba372d6000157ee35,rus15x4zw1,Emily_Honors_Thesis_Part_2,1,247,2020-08-29T11:25:07-07:00,2.0612640380859,4,versionC_stim.csv,READ_JOLVersionD.csv,"READ Version D",OLD,FANTASTIC,GREAT,ON,F,35,62,JOL,User,-,"How likely are you to correctly recall the second item in the pair?|Type your response on a scale from 0-100 and then press Enter.",Study/JOL,"Study Phase2",1618,,,1282,1354,,,,80,1
59ad75aba372d6000157ee35,rus15x4zw1,Emily_Honors_Thesis_Part_2,1,248,2020-08-29T11:25:12-07:00,4.7514379024506,4,versionC_stim.csv,READ_JOLVersionD.csv,"READ Version D",OLD,CLUTTER,PUSHER,ON,U,66,69,JOL,User,-,"How likely are you to correctly recall the second item in the pair?|Type your response on a scale from 0-100 and then press Enter.",Study/JOL,"Study Phase2",4268,,,3098,3530,,,,30,1
59ad75aba372d6000157ee35,rus15x4zw1,Emily_Honors_Thesis_Part_2,1,249,2020-08-29T11:25:14-07:00,2.3258419036865,4,versionC_stim.csv,READ_JOLVersionD.csv,"READ Version D",OLD,JURY,TRIAL,ON,S,50,79,JOL,User,-,"How likely are you to correctly recall the second item in the pair?|Type your response on a scale from 0-100 and then press Enter.",Study/JOL,"Study Phase2",1765,,,1360,1480,,,,80,1
59ad75aba372d6000157ee35,rus15x4zw1,Emily_Honors_Thesis_Part_2,1,250,2020-08-29T11:25:17-07:00,3.1433460712433,4,versionC_stim.csv,READ_JOLVersionD.csv,"READ Version D",OLD,CLEAN,HYGIENE,ON,B,17,85,JOL,User,-,"How likely are you to correctly recall the second item in the pair?|Type your response on a scale from 0-100 and then press Enter.",Study/JOL,"Study Phase2",2682,,,2202,2398,,,,60,1
59ad75aba372d6000157ee35,rus15x4zw1,Emily_Honors_Thesis_Part_2,1,251,2020-08-29T11:25:23-07:00,6.0062561035156,4,versionC_stim.csv,READ_JOLVersionD.csv,"READ Version D",OLD,RIDDLE,SUGAR,ON,U,81,43,JOL,User,-,"How likely are you to correctly recall the second item in the pair?|Type your response on a scale from 0-100 and then press Enter.",Study/JOL,"Study Phase2",5518,,,4848,5252,,,,30,1
59ad75aba372d6000157ee35,rus15x4zw1,Emily_Honors_Thesis_Part_2,1,252,2020-08-29T11:25:26-07:00,3.002475976944,4,versionC_stim.csv,READ_JOLVersionD.csv,"READ Version D",OLD,HAND,FIX,ON,U,75,54,JOL,User,-,"How likely are you to correctly recall the second item in the pair?|Type your response on a scale from 0-100 and then press Enter.",Study/JOL,"Study Phase2",2512,,,2087,2225,,,,60,1
59ad75aba372d6000157ee35,rus15x4zw1,Emily_Honors_Thesis_Part_2,1,253,2020-08-29T11:25:29-07:00,3.0750968456268,4,versionC_stim.csv,READ_JOLVersionD.csv,"READ Version D",OLD,DEFINITION,MEANING,ON,S,62,61,JOL,User,-,"How likely are you to correctly recall the second item in the pair?|Type your response on a scale from 0-100 and then press Enter.",Study/JOL,"Study Phase2",2569,,,2172,2306,,,,70,1
59ad75aba372d6000157ee35,rus15x4zw1,Emily_Honors_Thesis_Part_2,1,254,2020-08-29T11:25:35-07:00,5.7741940021515,4,versionC_stim.csv,READ_JOLVersionD.csv,"READ Version D",OLD,BUSINESS,DEATH,ON,U,72,67,JOL,User,-,"How likely are you to correctly recall the second item in the pair?|Type your response on a scale from 0-100 and then press Enter.",Study/JOL,"Study Phase2",3256,,,2710,2992,,,,40,1
59ad75aba372d6000157ee35,rus15x4zw1,Emily_Honors_Thesis_Part_2,1,255,2020-08-29T11:25:39-07:00,3.6507520675659,4,versionC_stim.csv,READ_JOLVersionD.csv,"READ Version D",OLD,CHEESE,WINE,ON,S,57,77,JOL,User,-,"How likely are you to correctly recall the second item in the pair?|Type your response on a scale from 0-100 and then press Enter.",Study/JOL,"Study Phase2",2184,,,1806,1914,,,,80,1
59ad75aba372d6000157ee35,rus15x4zw1,Emily_Honors_Thesis_Part_2,1,256,2020-08-29T11:25:41-07:00,2.5728089809418,4,versionC_stim.csv,READ_JOLVersionD.csv,"READ Version D",OLD,WASP,BUG,ON,F,32,23,JOL,User,-,"How likely are you to correctly recall the second item in the pair?|Type your response on a scale from 0-100 and then press Enter.",Study/JOL,"Study Phase2",2055,,,1604,1762,,,,60,1
59ad75aba372d6000157ee35,rus15x4zw1,Emily_Honors_Thesis_Part_2,1,257,2020-08-29T11:25:47-07:00,5.9286530017853,4,versionC_stim.csv,READ_JOLVersionD.csv,"READ Version D",OLD,GROWTH,HEIGHT,ON,F,30,47,JOL,User,-,"How likely are you to correctly recall the second item in the pair?|Type your response on a scale from 0-100 and then press Enter.",Study/JOL,"Study Phase2",4076,,,3721,3840,,,,70,1
59ad75aba372d6000157ee35,rus15x4zw1,Emily_Honors_Thesis_Part_2,1,258,2020-08-29T11:25:53-07:00,5.6003971099854,4,versionC_stim.csv,READ_JOLVersionD.csv,"READ Version D",OLD,STOMACH,DIGESTION,ON,B,7,83,JOL,User,-,"How likely are you to correctly recall the second item in the pair?|Type your response on a scale from 0-100 and then press Enter.",Study/JOL,"Study Phase2",5115,,,4720,4815,,,,70,1
59ad75aba372d6000157ee35,rus15x4zw1,Emily_Honors_Thesis_Part_2,1,259,2020-08-29T11:25:58-07:00,5.1098778247833,4,versionC_stim.csv,READ_JOLVersionD.csv,"READ Version D",OLD,END,BEGIN,ON,S,54,59,JOL,User,-,"How likely are you to correctly recall the second item in the pair?|Type your response on a scale from 0-100 and then press Enter.",Study/JOL,"Study Phase2",4635,,,4269,4357,,,,80,1
59ad75aba372d6000157ee35,rus15x4zw1,Emily_Honors_Thesis_Part_2,1,260,2020-08-29T11:26:00-07:00,1.8548460006714,4,versionC_stim.csv,READ_JOLVersionD.csv,"READ Version D",OLD,TALK,DISCUSSION,ON,B,21,50,JOL,User,-,"How likely are you to correctly recall the second item in the pair?|Type your response on a scale from 0-100 and then press Enter.",Study/JOL,"Study Phase2",1464,,,1148,1236,,,,80,1
59ad75aba372d6000157ee35,rus15x4zw1,Emily_Honors_Thesis_Part_2,1,261,2020-08-29T11:26:03-07:00,3.0581171512604,4,versionC_stim.csv,READ_JOLVersionD.csv,"READ Version D",OLD,ATTORNEY,LAW,ON,F,34,28,JOL,User,-,"How likely are you to correctly recall the second item in the pair?|Type your response on a scale from 0-100 and then press Enter.",Study/JOL,"Study Phase2",2578,,,2140,2291,,,,60,1
59ad75aba372d6000157ee35,rus15x4zw1,Emily_Honors_Thesis_Part_2,1,262,2020-08-29T11:26:07-07:00,3.9608638286591,4,versionC_stim.csv,READ_JOLVersionD.csv,"READ Version D",OLD,HUNGRY,PARK,ON,U,68,8,JOL,User,-,"How likely are you to correctly recall the second item in the pair?|Type your response on a scale from 0-100 and then press Enter.",Study/JOL,"Study Phase2",3411,,,2832,3155,,,,40,1
59ad75aba372d6000157ee35,rus15x4zw1,Emily_Honors_Thesis_Part_2,1,263,2020-08-29T11:26:10-07:00,3.8256092071533,4,versionC_stim.csv,READ_JOLVersionD.csv,"READ Version D",OLD,CARD,CREDIT,ON,B,23,33,JOL,User,-,"How likely are you to correctly recall the second item in the pair?|Type your response on a scale from 0-100 and then press Enter.",Study/JOL,"Study Phase2",3366,,,2340,3092,,,,100,1
59ad75aba372d6000157ee35,rus15x4zw1,Emily_Honors_Thesis_Part_2,1,264,2020-08-29T11:26:15-07:00,4.0847527980804,4,versionC_stim.csv,READ_JOLVersionD.csv,"READ Version D",OLD,BRONZE,ARTERY,ON,U,74,52,JOL,User,-,"How likely are you to correctly recall the second item in the pair?|Type your response on a scale from 0-100 and then press Enter.",Study/JOL,"Study Phase2",3608,,,3161,3336,,,,60,1
59ad75aba372d6000157ee35,rus15x4zw1,Emily_Honors_Thesis_Part_2,1,265,2020-08-29T11:26:19-07:00,4.6497111320496,4,versionC_stim.csv,READ_JOLVersionD.csv,"READ Version D",OLD,OUT,WAY,ON,B,16,35,JOL,User,-,"How likely are you to correctly recall the second item in the pair?|Type your response on a scale from 0-100 and then press Enter.",Study/JOL,"Study Phase2",4182,,,3491,3805,,,,40,1
59ad75aba372d6000157ee35,rus15x4zw1,Emily_Honors_Thesis_Part_2,1,266,2020-08-29T11:26:22-07:00,3.2691628932953,4,versionC_stim.csv,READ_JOLVersionD.csv,"READ Version D",OLD,BELT,SOON,ON,U,70,10,JOL,User,-,"How likely are you to correctly recall the second item in the pair?|Type your response on a scale from 0-100 and then press Enter.",Study/JOL,"Study Phase2",2795,,,1864,2213,,,,40,1
59ad75aba372d6000157ee35,rus15x4zw1,Emily_Honors_Thesis_Part_2,1,267,2020-08-29T11:26:25-07:00,2.9621810913086,4,versionC_stim.csv,READ_JOLVersionD.csv,"READ Version D",OLD,COLD,BITTER,ON,B,12,39,JOL,User,-,"How likely are you to correctly recall the second item in the pair?|Type your response on a scale from 0-100 and then press Enter.",Study/JOL,"Study Phase2",2471,,,1888,2210,,,,50,1
59ad75aba372d6000157ee35,rus15x4zw1,Emily_Honors_Thesis_Part_2,1,268,2020-08-29T11:26:28-07:00,2.7555649280548,4,versionC_stim.csv,READ_JOLVersionD.csv,"READ Version D",OLD,WOMAN,LIFT,ON,U,69,51,JOL,User,-,"How likely are you to correctly recall the second item in the pair?|Type your response on a scale from 0-100 and then press Enter.",Study/JOL,"Study Phase2",2246,,,1285,1590,,,,50,1
59ad75aba372d6000157ee35,rus15x4zw1,Emily_Honors_Thesis_Part_2,1,269,2020-08-29T11:26:32-07:00,3.6275351047516,4,versionC_stim.csv,READ_JOLVersionD.csv,"READ Version D",OLD,CAVE,DARK,ON,F,28,19,JOL,User,-,"How likely are you to correctly recall the second item in the pair?|Type your response on a scale from 0-100 and then press Enter.",Study/JOL,"Study Phase2",3153,,,2738,2859,,,,60,1
59ad75aba372d6000157ee35,rus15x4zw1,Emily_Honors_Thesis_Part_2,1,270,2020-08-29T11:26:35-07:00,3.6187589168549,4,versionC_stim.csv,READ_JOLVersionD.csv,"READ Version D",OLD,SIGHT,DEBATE,ON,U,73,70,JOL,User,-,"How likely are you to correctly recall the second item in the pair?|Type your response on a scale from 0-100 and then press Enter.",Study/JOL,"Study Phase2",3101,,,1162,2812,,,,40,1
59ad75aba372d6000157ee35,rus15x4zw1,Emily_Honors_Thesis_Part_2,1,271,2020-08-29T11:26:39-07:00,4.0029239654541,4,versionC_stim.csv,READ_JOLVersionD.csv,"READ Version D",OLD,LION,ART,ON,U,79,37,JOL,User,-,"How likely are you to correctly recall the second item in the pair?|Type your response on a scale from 0-100 and then press Enter.",Study/JOL,"Study Phase2",3497,,,2746,3168,,,,50,1
59ad75aba372d6000157ee35,rus15x4zw1,Emily_Honors_Thesis_Part_2,1,272,2020-08-29T11:26:45-07:00,5.3218920230865,4,versionC_stim.csv,READ_JOLVersionD.csv,"READ Version D",OLD,BEE,HONEY,ON,S,63,82,JOL,User,-,"How likely are you to correctly recall the second item in the pair?|Type your response on a scale from 0-100 and then press Enter.",Study/JOL,"Study Phase2",4826,,,1293,1433,,,,80,1
59ad75aba372d6000157ee35,rus15x4zw1,Emily_Honors_Thesis_Part_2,1,273,2020-08-29T11:26:48-07:00,3.0969710350037,4,versionC_stim.csv,READ_JOLVersionD.csv,"READ Version D",OLD,CHILI,HOT,ON,F,37,74,JOL,User,-,"How likely are you to correctly recall the second item in the pair?|Type your response on a scale from 0-100 and then press Enter.",Study/JOL,"Study Phase2",2631,,,1736,1893,,,,80,1
59ad75aba372d6000157ee35,rus15x4zw1,Emily_Honors_Thesis_Part_2,1,274,2020-08-29T11:26:50-07:00,2.3325040340424,4,versionC_stim.csv,READ_JOLVersionD.csv,"READ Version D",OLD,CHORE,WORK,ON,F,39,14,JOL,User,-,"How likely are you to correctly recall the second item in the pair?|Type your response on a scale from 0-100 and then press Enter.",Study/JOL,"Study Phase2",1809,,,1276,1426,,,,80,1
59ad75aba372d6000157ee35,rus15x4zw1,Emily_Honors_Thesis_Part_2,1,275,2020-08-29T11:26:54-07:00,3.552444934845,4,versionC_stim.csv,READ_JOLVersionD.csv,"READ Version D",OLD,ROUND,CIRCLE,ON,S,65,53,JOL,User,-,"How likely are you to correctly recall the second item in the pair?|Type your response on a scale from 0-100 and then press Enter.",Study/JOL,"Study Phase2",3082,,,2390,2754,,,,40,1
59ad75aba372d6000157ee35,rus15x4zw1,Emily_Honors_Thesis_Part_2,1,276,2020-08-29T11:26:57-07:00,3.0525150299072,4,versionC_stim.csv,READ_JOLVersionD.csv,"READ Version D",OLD,WORD,SENTENCE,ON,F,31,7,JOL,User,-,"How likely are you to correctly recall the second item in the pair?|Type your response on a scale from 0-100 and then press Enter.",Study/JOL,"Study Phase2",2549,,,2130,2250,,,,90,1
59ad75aba372d6000157ee35,rus15x4zw1,Emily_Honors_Thesis_Part_2,1,277,2020-08-29T11:26:59-07:00,2.369323015213,4,versionC_stim.csv,READ_JOLVersionD.csv,"READ Version D",OLD,WASTE,DUMP,ON,S,49,64,JOL,User,-,"How likely are you to correctly recall the second item in the pair?|Type your response on a scale from 0-100 and then press Enter.",Study/JOL,"Study Phase2",1903,,,1396,1595,,,,60,1
59ad75aba372d6000157ee35,rus15x4zw1,Emily_Honors_Thesis_Part_2,1,278,2020-08-29T11:27:02-07:00,2.6450800895691,4,versionC_stim.csv,READ_JOLVersionD.csv,"READ Version D",OLD,POLICE,SHERIFF,Buffer2,Buffer,87,87,JOL,User,-,"How likely are you to correctly recall the second item in the pair?|Type your response on a scale from 0-100 and then press Enter.",Study/JOL,BUFFER4,2183,,,1664,1858,,,,60,1
59ad75aba372d6000157ee35,rus15x4zw1,Emily_Honors_Thesis_Part_2,1,279,2020-08-29T11:27:07-07:00,4.856369972229,4,versionC_stim.csv,READ_JOLVersionD.csv,"READ Version D",OLD,CHOCOLATE,MALT,Buffer2,Buffer,88,88,JOL,User,-,"How likely are you to correctly recall the second item in the pair?|Type your response on a scale from 0-100 and then press Enter.",Study/JOL,BUFFER4,4392,,,3672,4054,,,,20,1
59ad75aba372d6000157ee35,rus15x4zw1,Emily_Honors_Thesis_Part_2,1,280,2020-08-29T11:27:11-07:00,3.9334590435028,4,versionC_stim.csv,READ_JOLVersionD.csv,"READ Version D",OLD,SPACE,MOON,Buffer2,Buffer,89,90,JOL,User,-,"How likely are you to correctly recall the second item in the pair?|Type your response on a scale from 0-100 and then press Enter.",Study/JOL,BUFFER4,3461,,,2969,3136,,,,70,1
59ad75aba372d6000157ee35,rus15x4zw1,Emily_Honors_Thesis_Part_2,1,281,2020-08-29T11:27:13-07:00,2.4635288715363,4,versionC_stim.csv,READ_JOLVersionD.csv,"READ Version D",OLD,GOOSE,GEESE,Buffer2,Buffer,86,91,JOL,User,-,"How likely are you to correctly recall the second item in the pair?|Type your response on a scale from 0-100 and then press Enter.",Study/JOL,BUFFER4,1989,,,1523,1673,,,,70,1
