Username,ID,ExperimentName,Session,Trial,Date,TimeDif,"Condition Number","Stimuli File","Order File","Condition Description","Condition Notes",Stimuli*Cue,Stimuli*Answer,Stimuli*Shuffle,"Stimuli*Stimuli Notes",Stimuli*Value,Procedure*Item,"Procedure*Trial Type","Procedure*Max Time","Procedure*Min Time",Procedure*Text,"Procedure*Procedure Notes",Procedure*Shuffle,Response*RT,Response*Response,Response*Accuracy,Response*RTfirst,Response*RTlast,Response*strictAcc,Response*lenientAcc,Response*focus,Response*JOL,Response*Focus
5e51cd7caf36f020b0209c7f,e2j8043xx3,Emily_Honors_Thesis_Part_2,1,1,2020-08-29T11:05:43-07:00,15.871787071228,9,versionA_stim.csv,RL_JOLVersionA.csv,"RELATIONAL Version A",OLD,,,,,,0,Instruct,-,10,"In this section, you will be presented with a series of word pairs. As you study, you will be asked to rate your ability to remember the second item in the pair if you were only shown the first at test. You will make these ratings using a 0 to 100 Scale.",,Instruct13,15522,,,-1,-1,,,,,1
5e51cd7caf36f020b0209c7f,e2j8043xx3,Emily_Honors_Thesis_Part_2,1,2,2020-08-29T11:05:55-07:00,11.918922901154,9,versionA_stim.csv,RL_JOLVersionA.csv,"RELATIONAL Version A",OLD,,,,,,0,Instruct,-,10,"For example, if you are given the pair CAT - DOG, a rating of 0 indicates that you would not remember DOG at test, while a rating of 100 indicates full certainty that you would remember the word DOG at test.",,Instruct14,11389,,,-1,-1,,,,,1
5e51cd7caf36f020b0209c7f,e2j8043xx3,Emily_Honors_Thesis_Part_2,1,3,2020-08-29T11:06:07-07:00,11.372750043869,9,versionA_stim.csv,RL_JOLVersionA.csv,"RELATIONAL Version A",OLD,,,,,,0,Instruct,-,10,"When making these ratings, it is criticial that you use the full range of the scale. You will be disqualified for only giving ratings of 0 or 100! After making your rating, press Enter to advance to the next pair.",,Instruct15,10967,,,-1,-1,,,,,1
5e51cd7caf36f020b0209c7f,e2j8043xx3,Emily_Honors_Thesis_Part_2,1,4,2020-08-29T11:06:49-07:00,42.476214885712,9,versionA_stim.csv,RL_JOLVersionA.csv,"RELATIONAL Version A",OLD,,,,,,0,Instruct,-,15,"As you study and make your ratings, please think about how the two concepts are RELATED to each other. For example, if you see the pair TURTLE-CAT, think about how both are alive, they are both animals, and both can be kept as pets.",,Instruct19,41814,,,-1,-1,,,,,1
5e51cd7caf36f020b0209c7f,e2j8043xx3,Emily_Honors_Thesis_Part_2,1,5,2020-08-29T11:07:19-07:00,29.554284095764,9,versionA_stim.csv,RL_JOLVersionA.csv,"RELATIONAL Version A",OLD,,,,,,0,FreeRecall,-,10,"What you should think about as you study each item pair? Type your response in the box below.",,CHECK1,28027,"To remember the second word and the rating on how much you would be able to remember it in the word pair",0,6531,26748,0,0,,,1
5e51cd7caf36f020b0209c7f,e2j8043xx3,Emily_Honors_Thesis_Part_2,1,6,2020-08-29T11:09:03-07:00,104.46714901924,9,versionA_stim.csv,RL_JOLVersionA.csv,"RELATIONAL Version A",OLD,,,,,,0,Instruct,-,5,"You will now complete a practice session. Please study the following items and rate your ability to remember them. Remember to think about how the two items are similiar!",,Instruct17,103933,,,-1,-1,,,,,0.792
5e51cd7caf36f020b0209c7f,e2j8043xx3,Emily_Honors_Thesis_Part_2,1,7,2020-08-29T11:09:09-07:00,5.859974861145,9,versionA_stim.csv,RL_JOLVersionA.csv,"RELATIONAL Version A",OLD,HAM,BONE,PRACTICE,PRACTICE,183,183,JOL,User,-,"How likely are you to correctly recall the second item in the pair?|Type your response on a scale from 0-100 and then press Enter.",Study/JOL,PRACTICE,5338,,,3986,4146,,,,60,1
5e51cd7caf36f020b0209c7f,e2j8043xx3,Emily_Honors_Thesis_Part_2,1,8,2020-08-29T11:09:15-07:00,6.3447999954224,9,versionA_stim.csv,RL_JOLVersionA.csv,"RELATIONAL Version A",OLD,BEHAVIOR,SOCIAL,PRACTICE,PRACTICE,189,186,JOL,User,-,"How likely are you to correctly recall the second item in the pair?|Type your response on a scale from 0-100 and then press Enter.",Study/JOL,PRACTICE,5920,,,4468,4675,,,,90,1
5e51cd7caf36f020b0209c7f,e2j8043xx3,Emily_Honors_Thesis_Part_2,1,9,2020-08-29T11:09:21-07:00,5.7322242259979,9,versionA_stim.csv,RL_JOLVersionA.csv,"RELATIONAL Version A",OLD,DEAF,MUTE,PRACTICE,PRACTICE,182,188,JOL,User,-,"How likely are you to correctly recall the second item in the pair?|Type your response on a scale from 0-100 and then press Enter.",Study/JOL,PRACTICE,5328,,,4109,4275,,,,80,1
5e51cd7caf36f020b0209c7f,e2j8043xx3,Emily_Honors_Thesis_Part_2,1,10,2020-08-29T11:09:30-07:00,8.5662169456482,9,versionA_stim.csv,RL_JOLVersionA.csv,"RELATIONAL Version A",OLD,AARDVARK,ZOO,PRACTICE,PRACTICE,181,182,JOL,User,-,"How likely are you to correctly recall the second item in the pair?|Type your response on a scale from 0-100 and then press Enter.",Study/JOL,PRACTICE,8075,,,4861,5082,,,,10,1
5e51cd7caf36f020b0209c7f,e2j8043xx3,Emily_Honors_Thesis_Part_2,1,11,2020-08-29T11:09:33-07:00,3.5427918434143,9,versionA_stim.csv,RL_JOLVersionA.csv,"RELATIONAL Version A",OLD,CHOCOLATE,BAR,PRACTICE,PRACTICE,187,184,JOL,User,-,"How likely are you to correctly recall the second item in the pair?|Type your response on a scale from 0-100 and then press Enter.",Study/JOL,PRACTICE,3079,,,1682,1939,,,,100,1
5e51cd7caf36f020b0209c7f,e2j8043xx3,Emily_Honors_Thesis_Part_2,1,12,2020-08-29T11:09:40-07:00,7.1602849960327,9,versionA_stim.csv,RL_JOLVersionA.csv,"RELATIONAL Version A",OLD,HINGE,SWING,PRACTICE,PRACTICE,185,190,JOL,User,-,"How likely are you to correctly recall the second item in the pair?|Type your response on a scale from 0-100 and then press Enter.",Study/JOL,PRACTICE,6733,,,3661,3661,,,,0,1
5e51cd7caf36f020b0209c7f,e2j8043xx3,Emily_Honors_Thesis_Part_2,1,13,2020-08-29T11:09:44-07:00,4.2577791213989,9,versionA_stim.csv,RL_JOLVersionA.csv,"RELATIONAL Version A",OLD,CHIME,MUSIC,PRACTICE,PRACTICE,188,187,JOL,User,-,"How likely are you to correctly recall the second item in the pair?|Type your response on a scale from 0-100 and then press Enter.",Study/JOL,PRACTICE,3685,,,2425,2587,,,,20,1
5e51cd7caf36f020b0209c7f,e2j8043xx3,Emily_Honors_Thesis_Part_2,1,14,2020-08-29T11:09:49-07:00,4.8653230667114,9,versionA_stim.csv,RL_JOLVersionA.csv,"RELATIONAL Version A",OLD,PADDLE,ROW,PRACTICE,PRACTICE,184,185,JOL,User,-,"How likely are you to correctly recall the second item in the pair?|Type your response on a scale from 0-100 and then press Enter.",Study/JOL,PRACTICE,4267,,,2209,2834,,,,90,1
5e51cd7caf36f020b0209c7f,e2j8043xx3,Emily_Honors_Thesis_Part_2,1,15,2020-08-29T11:09:57-07:00,7.7660329341888,9,versionA_stim.csv,RL_JOLVersionA.csv,"RELATIONAL Version A",OLD,FASHION,MODEL,PRACTICE,PRACTICE,190,191,JOL,User,-,"How likely are you to correctly recall the second item in the pair?|Type your response on a scale from 0-100 and then press Enter.",Study/JOL,PRACTICE,7106,,,3011,3702,,,,100,1
5e51cd7caf36f020b0209c7f,e2j8043xx3,Emily_Honors_Thesis_Part_2,1,16,2020-08-29T11:10:05-07:00,7.9730908870697,9,versionA_stim.csv,RL_JOLVersionA.csv,"RELATIONAL Version A",OLD,DISBELIEVE,SKEPTIC,PRACTICE,PRACTICE,186,189,JOL,User,-,"How likely are you to correctly recall the second item in the pair?|Type your response on a scale from 0-100 and then press Enter.",Study/JOL,PRACTICE,7478,,,6381,6482,,,,70,1
5e51cd7caf36f020b0209c7f,e2j8043xx3,Emily_Honors_Thesis_Part_2,1,17,2020-08-29T11:11:23-07:00,77.49222612381,9,versionA_stim.csv,RL_JOLVersionA.csv,"RELATIONAL Version A",OLD,,,,,,0,Instruct,User,-,"You have completed this section. Please press Enter to continue.",,Instruct18,76963,,,-1,-1,,,,,0.447
5e51cd7caf36f020b0209c7f,e2j8043xx3,Emily_Honors_Thesis_Part_2,1,18,2020-08-29T11:11:25-07:00,2.1772220134735,9,versionA_stim.csv,RL_JOLVersionA.csv,"RELATIONAL Version A",OLD,,,,,,0,Instruct,User,-,"You will now begin the study. Press Enter when you are ready to begin.",,Instruct16,1457,,,-1,-1,,,,,1
5e51cd7caf36f020b0209c7f,e2j8043xx3,Emily_Honors_Thesis_Part_2,1,19,2020-08-29T11:11:28-07:00,3.4549820423126,9,versionA_stim.csv,RL_JOLVersionA.csv,"RELATIONAL Version A",OLD,SPACE,JAM,Buffer,Buffer,5,4,JOL,User,-,"How likely are you to correctly recall the second item in the pair?|Type your response on a scale from 0-100 and then press Enter.",Study/JOL,BUFFER,2991,,,2140,2216,,,,50,1
5e51cd7caf36f020b0209c7f,e2j8043xx3,Emily_Honors_Thesis_Part_2,1,20,2020-08-29T11:11:31-07:00,3.2620539665222,9,versionA_stim.csv,RL_JOLVersionA.csv,"RELATIONAL Version A",OLD,TREES,GREEN,Buffer,Buffer,1,6,JOL,User,-,"How likely are you to correctly recall the second item in the pair?|Type your response on a scale from 0-100 and then press Enter.",Study/JOL,BUFFER,2798,,,1611,1871,,,,100,1
5e51cd7caf36f020b0209c7f,e2j8043xx3,Emily_Honors_Thesis_Part_2,1,21,2020-08-29T11:11:37-07:00,5.1834118366241,9,versionA_stim.csv,RL_JOLVersionA.csv,"RELATIONAL Version A",OLD,BASEBALL,CATCHER,Buffer,Buffer,2,5,JOL,User,-,"How likely are you to correctly recall the second item in the pair?|Type your response on a scale from 0-100 and then press Enter.",Study/JOL,BUFFER,4722,,,3380,3525,,,,80,1
5e51cd7caf36f020b0209c7f,e2j8043xx3,Emily_Honors_Thesis_Part_2,1,22,2020-08-29T11:11:41-07:00,4.3794522285461,9,versionA_stim.csv,RL_JOLVersionA.csv,"RELATIONAL Version A",OLD,SCARE,HIDE,Buffer,Buffer,4,3,JOL,User,-,"How likely are you to correctly recall the second item in the pair?|Type your response on a scale from 0-100 and then press Enter.",Study/JOL,BUFFER,3953,,,2172,2934,,,,0,1
5e51cd7caf36f020b0209c7f,e2j8043xx3,Emily_Honors_Thesis_Part_2,1,23,2020-08-29T11:11:46-07:00,4.9749248027802,9,versionA_stim.csv,RL_JOLVersionA.csv,"RELATIONAL Version A",OLD,PEANUT,BUTTER,Buffer,Buffer,3,2,JOL,User,-,"How likely are you to correctly recall the second item in the pair?|Type your response on a scale from 0-100 and then press Enter.",Study/JOL,BUFFER,4540,,,1877,3637,,,,100,1
5e51cd7caf36f020b0209c7f,e2j8043xx3,Emily_Honors_Thesis_Part_2,1,24,2020-08-29T11:11:51-07:00,4.9849441051483,9,versionA_stim.csv,RL_JOLVersionA.csv,"RELATIONAL Version A",OLD,ART,LION,ON,U,79,16,JOL,User,-,"How likely are you to correctly recall the second item in the pair?|Type your response on a scale from 0-100 and then press Enter.",Study/JOL,"Study Phase",4486,,,3695,3695,,,,0,1
5e51cd7caf36f020b0209c7f,e2j8043xx3,Emily_Honors_Thesis_Part_2,1,25,2020-08-29T11:11:55-07:00,4.0290429592133,9,versionA_stim.csv,RL_JOLVersionA.csv,"RELATIONAL Version A",OLD,BEGIN,END,ON,S,54,14,JOL,User,-,"How likely are you to correctly recall the second item in the pair?|Type your response on a scale from 0-100 and then press Enter.",Study/JOL,"Study Phase",3635,,,2795,2879,,,,50,1
5e51cd7caf36f020b0209c7f,e2j8043xx3,Emily_Honors_Thesis_Part_2,1,26,2020-08-29T11:12:01-07:00,6.439973115921,9,versionA_stim.csv,RL_JOLVersionA.csv,"RELATIONAL Version A",OLD,HORNET,STING,ON,F,11,65,JOL,User,-,"How likely are you to correctly recall the second item in the pair?|Type your response on a scale from 0-100 and then press Enter.",Study/JOL,"Study Phase",5993,,,2666,5437,,,,95,1
5e51cd7caf36f020b0209c7f,e2j8043xx3,Emily_Honors_Thesis_Part_2,1,27,2020-08-29T11:12:05-07:00,3.7570939064026,9,versionA_stim.csv,RL_JOLVersionA.csv,"RELATIONAL Version A",OLD,DIETARY,SACKING,ON,U,67,42,JOL,User,-,"How likely are you to correctly recall the second item in the pair?|Type your response on a scale from 0-100 and then press Enter.",Study/JOL,"Study Phase",3351,,,1945,1945,,,,0,1
5e51cd7caf36f020b0209c7f,e2j8043xx3,Emily_Honors_Thesis_Part_2,1,28,2020-08-29T11:12:08-07:00,2.6864399909973,9,versionA_stim.csv,RL_JOLVersionA.csv,"RELATIONAL Version A",OLD,SUGAR,RIDDLE,ON,U,81,77,JOL,User,-,"How likely are you to correctly recall the second item in the pair?|Type your response on a scale from 0-100 and then press Enter.",Study/JOL,"Study Phase",2259,,,1525,1525,,,,0,1
5e51cd7caf36f020b0209c7f,e2j8043xx3,Emily_Honors_Thesis_Part_2,1,29,2020-08-29T11:12:13-07:00,5.0779750347137,9,versionA_stim.csv,RL_JOLVersionA.csv,"RELATIONAL Version A",OLD,NUMBER,AMOUNT,ON,S,47,80,JOL,User,-,"How likely are you to correctly recall the second item in the pair?|Type your response on a scale from 0-100 and then press Enter.",Study/JOL,"Study Phase",4665,,,2899,3030,,,,70,1
5e51cd7caf36f020b0209c7f,e2j8043xx3,Emily_Honors_Thesis_Part_2,1,30,2020-08-29T11:12:16-07:00,3.4053030014038,9,versionA_stim.csv,RL_JOLVersionA.csv,"RELATIONAL Version A",OLD,MEANING,DEFINITION,ON,S,62,84,JOL,User,-,"How likely are you to correctly recall the second item in the pair?|Type your response on a scale from 0-100 and then press Enter.",Study/JOL,"Study Phase",2976,,,1731,1974,,,,100,1
5e51cd7caf36f020b0209c7f,e2j8043xx3,Emily_Honors_Thesis_Part_2,1,31,2020-08-29T11:12:21-07:00,4.4028360843658,9,versionA_stim.csv,RL_JOLVersionA.csv,"RELATIONAL Version A",OLD,GREAT,FANTASTIC,ON,B,35,69,JOL,User,-,"How likely are you to correctly recall the second item in the pair?|Type your response on a scale from 0-100 and then press Enter.",Study/JOL,"Study Phase",3958,,,2764,3072,,,,100,1
5e51cd7caf36f020b0209c7f,e2j8043xx3,Emily_Honors_Thesis_Part_2,1,32,2020-08-29T11:12:26-07:00,5.0749678611755,9,versionA_stim.csv,RL_JOLVersionA.csv,"RELATIONAL Version A",OLD,SLEEP,DROWSY,ON,B,41,64,JOL,User,-,"How likely are you to correctly recall the second item in the pair?|Type your response on a scale from 0-100 and then press Enter.",Study/JOL,"Study Phase",4663,,,1382,3631,,,,90,1
5e51cd7caf36f020b0209c7f,e2j8043xx3,Emily_Honors_Thesis_Part_2,1,33,2020-08-29T11:12:30-07:00,3.7480549812317,9,versionA_stim.csv,RL_JOLVersionA.csv,"RELATIONAL Version A",OLD,PUSHER,CLUTTER,ON,U,66,28,JOL,User,-,"How likely are you to correctly recall the second item in the pair?|Type your response on a scale from 0-100 and then press Enter.",Study/JOL,"Study Phase",3340,,,2418,2418,,,,0,1
5e51cd7caf36f020b0209c7f,e2j8043xx3,Emily_Honors_Thesis_Part_2,1,34,2020-08-29T11:12:33-07:00,3.2567980289459,9,versionA_stim.csv,RL_JOLVersionA.csv,"RELATIONAL Version A",OLD,PAST,FUTURE,ON,S,61,32,JOL,User,-,"How likely are you to correctly recall the second item in the pair?|Type your response on a scale from 0-100 and then press Enter.",Study/JOL,"Study Phase",2857,,,2046,2122,,,,70,1
5e51cd7caf36f020b0209c7f,e2j8043xx3,Emily_Honors_Thesis_Part_2,1,35,2020-08-29T11:12:37-07:00,4.3062419891357,9,versionA_stim.csv,RL_JOLVersionA.csv,"RELATIONAL Version A",OLD,WAY,OUT,ON,F,16,8,JOL,User,-,"How likely are you to correctly recall the second item in the pair?|Type your response on a scale from 0-100 and then press Enter.",Study/JOL,"Study Phase",3918,,,2903,3017,,,,10,1
5e51cd7caf36f020b0209c7f,e2j8043xx3,Emily_Honors_Thesis_Part_2,1,36,2020-08-29T11:12:42-07:00,4.9283699989319,9,versionA_stim.csv,RL_JOLVersionA.csv,"RELATIONAL Version A",OLD,BABY,CHILD,ON,S,64,55,JOL,User,-,"How likely are you to correctly recall the second item in the pair?|Type your response on a scale from 0-100 and then press Enter.",Study/JOL,"Study Phase",4514,,,3523,3663,,,,20,1
5e51cd7caf36f020b0209c7f,e2j8043xx3,Emily_Honors_Thesis_Part_2,1,37,2020-08-29T11:12:46-07:00,4.3256571292877,9,versionA_stim.csv,RL_JOLVersionA.csv,"RELATIONAL Version A",OLD,HEIGHT,GROWTH,ON,B,30,35,JOL,User,-,"How likely are you to correctly recall the second item in the pair?|Type your response on a scale from 0-100 and then press Enter.",Study/JOL,"Study Phase",3930,,,2371,2554,,,,70,1
5e51cd7caf36f020b0209c7f,e2j8043xx3,Emily_Honors_Thesis_Part_2,1,38,2020-08-29T11:12:52-07:00,5.9094228744507,9,versionA_stim.csv,RL_JOLVersionA.csv,"RELATIONAL Version A",OLD,SMELL,STENCH,ON,B,42,58,JOL,User,-,"How likely are you to correctly recall the second item in the pair?|Type your response on a scale from 0-100 and then press Enter.",Study/JOL,"Study Phase",5476,,,4426,4574,,,,90,1
5e51cd7caf36f020b0209c7f,e2j8043xx3,Emily_Honors_Thesis_Part_2,1,39,2020-08-29T11:12:57-07:00,4.7962880134583,9,versionA_stim.csv,RL_JOLVersionA.csv,"RELATIONAL Version A",OLD,LOCATION,SITE,ON,S,48,73,JOL,User,-,"How likely are you to correctly recall the second item in the pair?|Type your response on a scale from 0-100 and then press Enter.",Study/JOL,"Study Phase",4354,,,3285,3392,,,,50,1
5e51cd7caf36f020b0209c7f,e2j8043xx3,Emily_Honors_Thesis_Part_2,1,40,2020-08-29T11:13:04-07:00,7.3281989097595,9,versionA_stim.csv,RL_JOLVersionA.csv,"RELATIONAL Version A",OLD,PLANE,PILOT,ON,B,44,15,JOL,User,-,"How likely are you to correctly recall the second item in the pair?|Type your response on a scale from 0-100 and then press Enter.",Study/JOL,"Study Phase",6911,,,1809,5657,,,,20,1
5e51cd7caf36f020b0209c7f,e2j8043xx3,Emily_Honors_Thesis_Part_2,1,41,2020-08-29T11:13:07-07:00,2.8642661571503,9,versionA_stim.csv,RL_JOLVersionA.csv,"RELATIONAL Version A",OLD,HAPPY,CAR,ON,U,77,34,JOL,User,-,"How likely are you to correctly recall the second item in the pair?|Type your response on a scale from 0-100 and then press Enter.",Study/JOL,"Study Phase",2450,,,1687,1687,,,,0,1
5e51cd7caf36f020b0209c7f,e2j8043xx3,Emily_Honors_Thesis_Part_2,1,42,2020-08-29T11:13:15-07:00,8.0413699150085,9,versionA_stim.csv,RL_JOLVersionA.csv,"RELATIONAL Version A",OLD,DELINQUENT,BAD,ON,F,6,31,JOL,User,-,"How likely are you to correctly recall the second item in the pair?|Type your response on a scale from 0-100 and then press Enter.",Study/JOL,"Study Phase",7529,,,5868,6031,,,,10,1
5e51cd7caf36f020b0209c7f,e2j8043xx3,Emily_Honors_Thesis_Part_2,1,43,2020-08-29T11:13:23-07:00,7.2085599899292,9,versionA_stim.csv,RL_JOLVersionA.csv,"RELATIONAL Version A",OLD,CREDIT,CARD,ON,F,23,68,JOL,User,-,"How likely are you to correctly recall the second item in the pair?|Type your response on a scale from 0-100 and then press Enter.",Study/JOL,"Study Phase",6802,,,1937,5337,,,,100,1
5e51cd7caf36f020b0209c7f,e2j8043xx3,Emily_Honors_Thesis_Part_2,1,44,2020-08-29T11:13:31-07:00,8.3788440227509,9,versionA_stim.csv,RL_JOLVersionA.csv,"RELATIONAL Version A",OLD,WINE,CHEESE,ON,S,57,10,JOL,User,-,"How likely are you to correctly recall the second item in the pair?|Type your response on a scale from 0-100 and then press Enter.",Study/JOL,"Study Phase",7898,,,6611,6736,,,,70,1
5e51cd7caf36f020b0209c7f,e2j8043xx3,Emily_Honors_Thesis_Part_2,1,45,2020-08-29T11:13:47-07:00,16.491693019867,9,versionA_stim.csv,RL_JOLVersionA.csv,"RELATIONAL Version A",OLD,FULL,ENOUGH,ON,B,26,85,JOL,User,-,"How likely are you to correctly recall the second item in the pair?|Type your response on a scale from 0-100 and then press Enter.",Study/JOL,"Study Phase",15041,,,2668,13386,,,,15,1
5e51cd7caf36f020b0209c7f,e2j8043xx3,Emily_Honors_Thesis_Part_2,1,46,2020-08-29T11:13:56-07:00,8.8600208759308,9,versionA_stim.csv,RL_JOLVersionA.csv,"RELATIONAL Version A",OLD,DIGESTION,STOMACH,ON,F,7,49,JOL,User,-,"How likely are you to correctly recall the second item in the pair?|Type your response on a scale from 0-100 and then press Enter.",Study/JOL,"Study Phase",7240,,,5884,6003,,,,10,1
5e51cd7caf36f020b0209c7f,e2j8043xx3,Emily_Honors_Thesis_Part_2,1,47,2020-08-29T11:14:02-07:00,5.3054480552673,9,versionA_stim.csv,RL_JOLVersionA.csv,"RELATIONAL Version A",OLD,TAKE,SEIZE,ON,B,29,11,JOL,User,-,"How likely are you to correctly recall the second item in the pair?|Type your response on a scale from 0-100 and then press Enter.",Study/JOL,"Study Phase",4833,,,3607,3714,,,,30,1
5e51cd7caf36f020b0209c7f,e2j8043xx3,Emily_Honors_Thesis_Part_2,1,48,2020-08-29T11:14:08-07:00,6.2865180969238,9,versionA_stim.csv,RL_JOLVersionA.csv,"RELATIONAL Version A",OLD,CLOTHES,ATTIRE,ON,B,43,50,JOL,User,-,"How likely are you to correctly recall the second item in the pair?|Type your response on a scale from 0-100 and then press Enter.",Study/JOL,"Study Phase",5884,,,4570,4712,,,,60,1
5e51cd7caf36f020b0209c7f,e2j8043xx3,Emily_Honors_Thesis_Part_2,1,49,2020-08-29T11:14:13-07:00,4.6448979377747,9,versionA_stim.csv,RL_JOLVersionA.csv,"RELATIONAL Version A",OLD,DUE,ASSIGNMENT,ON,S,46,51,JOL,User,-,"How likely are you to correctly recall the second item in the pair?|Type your response on a scale from 0-100 and then press Enter.",Study/JOL,"Study Phase",4243,,,1505,3027,,,,10,1
5e51cd7caf36f020b0209c7f,e2j8043xx3,Emily_Honors_Thesis_Part_2,1,50,2020-08-29T11:14:16-07:00,3.2074239253998,9,versionA_stim.csv,RL_JOLVersionA.csv,"RELATIONAL Version A",OLD,DEATH,BUSINESS,ON,U,72,13,JOL,User,-,"How likely are you to correctly recall the second item in the pair?|Type your response on a scale from 0-100 and then press Enter.",Study/JOL,"Study Phase",2738,,,1778,1778,,,,0,1
5e51cd7caf36f020b0209c7f,e2j8043xx3,Emily_Honors_Thesis_Part_2,1,51,2020-08-29T11:14:18-07:00,2.6914491653442,9,versionA_stim.csv,RL_JOLVersionA.csv,"RELATIONAL Version A",OLD,KING,VASE,ON,U,85,12,JOL,User,-,"How likely are you to correctly recall the second item in the pair?|Type your response on a scale from 0-100 and then press Enter.",Study/JOL,"Study Phase",2250,,,1362,1362,,,,0,1
5e51cd7caf36f020b0209c7f,e2j8043xx3,Emily_Honors_Thesis_Part_2,1,52,2020-08-29T11:14:21-07:00,2.9739768505096,9,versionA_stim.csv,RL_JOLVersionA.csv,"RELATIONAL Version A",OLD,LIFT,WOMAN,ON,U,69,17,JOL,User,-,"How likely are you to correctly recall the second item in the pair?|Type your response on a scale from 0-100 and then press Enter.",Study/JOL,"Study Phase",2521,,,1746,1746,,,,0,1
5e51cd7caf36f020b0209c7f,e2j8043xx3,Emily_Honors_Thesis_Part_2,1,53,2020-08-29T11:14:26-07:00,4.8261940479279,9,versionA_stim.csv,RL_JOLVersionA.csv,"RELATIONAL Version A",OLD,SHOE,FOOT,ON,S,60,26,JOL,User,-,"How likely are you to correctly recall the second item in the pair?|Type your response on a scale from 0-100 and then press Enter.",Study/JOL,"Study Phase",4347,,,1769,3604,,,,100,1
5e51cd7caf36f020b0209c7f,e2j8043xx3,Emily_Honors_Thesis_Part_2,1,54,2020-08-29T11:14:29-07:00,2.9740669727325,9,versionA_stim.csv,RL_JOLVersionA.csv,"RELATIONAL Version A",OLD,HIDE,SICK,ON,U,84,20,JOL,User,-,"How likely are you to correctly recall the second item in the pair?|Type your response on a scale from 0-100 and then press Enter.",Study/JOL,"Study Phase",2539,,,1515,1515,,,,0,1
5e51cd7caf36f020b0209c7f,e2j8043xx3,Emily_Honors_Thesis_Part_2,1,55,2020-08-29T11:14:33-07:00,3.7874760627747,9,versionA_stim.csv,RL_JOLVersionA.csv,"RELATIONAL Version A",OLD,ORCHID,FLOWER,ON,F,24,43,JOL,User,-,"How likely are you to correctly recall the second item in the pair?|Type your response on a scale from 0-100 and then press Enter.",Study/JOL,"Study Phase",3268,,,1825,1977,,,,70,1
5e51cd7caf36f020b0209c7f,e2j8043xx3,Emily_Honors_Thesis_Part_2,1,56,2020-08-29T11:14:54-07:00,21.082854986191,9,versionA_stim.csv,RL_JOLVersionA.csv,"RELATIONAL Version A",OLD,HUNGER,FAMINE,ON,B,40,63,JOL,User,-,"How likely are you to correctly recall the second item in the pair?|Type your response on a scale from 0-100 and then press Enter.",Study/JOL,"Study Phase",20636,,,14730,19501,,,,80,1
5e51cd7caf36f020b0209c7f,e2j8043xx3,Emily_Honors_Thesis_Part_2,1,57,2020-08-29T11:15:09-07:00,14.755769014359,9,versionA_stim.csv,RL_JOLVersionA.csv,"RELATIONAL Version A",OLD,ARTERY,BRONZE,ON,U,74,48,JOL,User,-,"How likely are you to correctly recall the second item in the pair?|Type your response on a scale from 0-100 and then press Enter.",Study/JOL,"Study Phase",14229,,,13353,13353,,,,0,0.514
5e51cd7caf36f020b0209c7f,e2j8043xx3,Emily_Honors_Thesis_Part_2,1,58,2020-08-29T11:15:15-07:00,5.8079369068146,9,versionA_stim.csv,RL_JOLVersionA.csv,"RELATIONAL Version A",OLD,,,,,,0,Instruct,-,3,"Remember to focus on how the two items are similiar while you study and make your ratings!",,CHECK2,5364,,,-1,-1,,,,,1
5e51cd7caf36f020b0209c7f,e2j8043xx3,Emily_Honors_Thesis_Part_2,1,59,2020-08-29T11:15:17-07:00,2.4864699840546,9,versionA_stim.csv,RL_JOLVersionA.csv,"RELATIONAL Version A",OLD,SOON,BELT,ON,U,70,19,JOL,User,-,"How likely are you to correctly recall the second item in the pair?|Type your response on a scale from 0-100 and then press Enter.",Study/JOL,"Study Phase",2068,,,1284,1284,,,,0,1
5e51cd7caf36f020b0209c7f,e2j8043xx3,Emily_Honors_Thesis_Part_2,1,60,2020-08-29T11:15:27-07:00,9.6759450435638,9,versionA_stim.csv,RL_JOLVersionA.csv,"RELATIONAL Version A",OLD,DARK,CAVE,ON,B,28,47,JOL,User,-,"How likely are you to correctly recall the second item in the pair?|Type your response on a scale from 0-100 and then press Enter.",Study/JOL,"Study Phase",9206,,,2874,8551,,,,30,1
5e51cd7caf36f020b0209c7f,e2j8043xx3,Emily_Honors_Thesis_Part_2,1,61,2020-08-29T11:15:31-07:00,3.8743720054626,9,versionA_stim.csv,RL_JOLVersionA.csv,"RELATIONAL Version A",OLD,HONEY,BEE,ON,S,63,45,JOL,User,-,"How likely are you to correctly recall the second item in the pair?|Type your response on a scale from 0-100 and then press Enter.",Study/JOL,"Study Phase",3409,,,2276,2445,,,,70,1
5e51cd7caf36f020b0209c7f,e2j8043xx3,Emily_Honors_Thesis_Part_2,1,62,2020-08-29T11:15:33-07:00,2.5935180187225,9,versionA_stim.csv,RL_JOLVersionA.csv,"RELATIONAL Version A",OLD,ALLOW,TUCK,ON,U,78,9,JOL,User,-,"How likely are you to correctly recall the second item in the pair?|Type your response on a scale from 0-100 and then press Enter.",Study/JOL,"Study Phase",2129,,,1187,1187,,,,0,1
5e51cd7caf36f020b0209c7f,e2j8043xx3,Emily_Honors_Thesis_Part_2,1,63,2020-08-29T11:15:36-07:00,3.115837097168,9,versionA_stim.csv,RL_JOLVersionA.csv,"RELATIONAL Version A",OLD,VALLEY,ADD,ON,U,82,33,JOL,User,-,"How likely are you to correctly recall the second item in the pair?|Type your response on a scale from 0-100 and then press Enter.",Study/JOL,"Study Phase",2616,,,1770,1770,,,,0,1
5e51cd7caf36f020b0209c7f,e2j8043xx3,Emily_Honors_Thesis_Part_2,1,64,2020-08-29T11:15:39-07:00,2.6720879077911,9,versionA_stim.csv,RL_JOLVersionA.csv,"RELATIONAL Version A",OLD,STRONG,ACCIDENT,ON,U,80,54,JOL,User,-,"How likely are you to correctly recall the second item in the pair?|Type your response on a scale from 0-100 and then press Enter.",Study/JOL,"Study Phase",2245,,,1200,1200,,,,0,1
5e51cd7caf36f020b0209c7f,e2j8043xx3,Emily_Honors_Thesis_Part_2,1,65,2020-08-29T11:15:45-07:00,6.32257604599,9,versionA_stim.csv,RL_JOLVersionA.csv,"RELATIONAL Version A",OLD,DISCUSSION,TALK,ON,F,21,30,JOL,User,-,"How likely are you to correctly recall the second item in the pair?|Type your response on a scale from 0-100 and then press Enter.",Study/JOL,"Study Phase",4894,,,3762,3903,,,,90,1
5e51cd7caf36f020b0209c7f,e2j8043xx3,Emily_Honors_Thesis_Part_2,1,66,2020-08-29T11:15:49-07:00,3.460205078125,9,versionA_stim.csv,RL_JOLVersionA.csv,"RELATIONAL Version A",OLD,BITTER,COLD,ON,F,12,71,JOL,User,-,"How likely are you to correctly recall the second item in the pair?|Type your response on a scale from 0-100 and then press Enter.",Study/JOL,"Study Phase",3013,,,1389,1389,,,,0,1
5e51cd7caf36f020b0209c7f,e2j8043xx3,Emily_Honors_Thesis_Part_2,1,67,2020-08-29T11:15:52-07:00,3.3731279373169,9,versionA_stim.csv,RL_JOLVersionA.csv,"RELATIONAL Version A",OLD,DISCOVER,FLOOR,ON,U,71,78,JOL,User,-,"How likely are you to correctly recall the second item in the pair?|Type your response on a scale from 0-100 and then press Enter.",Study/JOL,"Study Phase",2934,,,2020,2020,,,,0,1
5e51cd7caf36f020b0209c7f,e2j8043xx3,Emily_Honors_Thesis_Part_2,1,68,2020-08-29T11:15:58-07:00,5.5770828723907,9,versionA_stim.csv,RL_JOLVersionA.csv,"RELATIONAL Version A",OLD,HYGIENE,CLEAN,ON,F,17,29,JOL,User,-,"How likely are you to correctly recall the second item in the pair?|Type your response on a scale from 0-100 and then press Enter.",Study/JOL,"Study Phase",5160,,,2031,2366,,,,100,1
5e51cd7caf36f020b0209c7f,e2j8043xx3,Emily_Honors_Thesis_Part_2,1,69,2020-08-29T11:16:02-07:00,4.4014751911163,9,versionA_stim.csv,RL_JOLVersionA.csv,"RELATIONAL Version A",OLD,DUMP,WASTE,ON,S,49,82,JOL,User,-,"How likely are you to correctly recall the second item in the pair?|Type your response on a scale from 0-100 and then press Enter.",Study/JOL,"Study Phase",3959,,,2066,2824,,,,95,1
5e51cd7caf36f020b0209c7f,e2j8043xx3,Emily_Honors_Thesis_Part_2,1,70,2020-08-29T11:16:06-07:00,3.828754901886,9,versionA_stim.csv,RL_JOLVersionA.csv,"RELATIONAL Version A",OLD,FIX,HAND,ON,U,75,61,JOL,User,-,"How likely are you to correctly recall the second item in the pair?|Type your response on a scale from 0-100 and then press Enter.",Study/JOL,"Study Phase",3346,,,1326,1326,,,,0,1
5e51cd7caf36f020b0209c7f,e2j8043xx3,Emily_Honors_Thesis_Part_2,1,71,2020-08-29T11:16:12-07:00,5.4933650493622,9,versionA_stim.csv,RL_JOLVersionA.csv,"RELATIONAL Version A",OLD,KIDNEY,LIVER,ON,S,53,57,JOL,User,-,"How likely are you to correctly recall the second item in the pair?|Type your response on a scale from 0-100 and then press Enter.",Study/JOL,"Study Phase",5056,,,3397,3956,,,,60,1
5e51cd7caf36f020b0209c7f,e2j8043xx3,Emily_Honors_Thesis_Part_2,1,72,2020-08-29T11:16:21-07:00,9.8518788814545,9,versionA_stim.csv,RL_JOLVersionA.csv,"RELATIONAL Version A",OLD,WORK,CHORE,ON,B,39,74,JOL,User,-,"How likely are you to correctly recall the second item in the pair?|Type your response on a scale from 0-100 and then press Enter.",Study/JOL,"Study Phase",9368,,,1928,8022,,,,60,1
5e51cd7caf36f020b0209c7f,e2j8043xx3,Emily_Honors_Thesis_Part_2,1,73,2020-08-29T11:16:26-07:00,4.2651691436768,9,versionA_stim.csv,RL_JOLVersionA.csv,"RELATIONAL Version A",OLD,BUG,WASP,ON,B,32,56,JOL,User,-,"How likely are you to correctly recall the second item in the pair?|Type your response on a scale from 0-100 and then press Enter.",Study/JOL,"Study Phase",3847,,,2504,2623,,,,50,1
5e51cd7caf36f020b0209c7f,e2j8043xx3,Emily_Honors_Thesis_Part_2,1,74,2020-08-29T11:16:33-07:00,7.2951760292053,9,versionA_stim.csv,RL_JOLVersionA.csv,"RELATIONAL Version A",OLD,EDITOR,NEWS,ON,F,10,40,JOL,User,-,"How likely are you to correctly recall the second item in the pair?|Type your response on a scale from 0-100 and then press Enter.",Study/JOL,"Study Phase",6707,,,5184,5452,,,,40,1
5e51cd7caf36f020b0209c7f,e2j8043xx3,Emily_Honors_Thesis_Part_2,1,75,2020-08-29T11:16:37-07:00,4.0428428649902,9,versionA_stim.csv,RL_JOLVersionA.csv,"RELATIONAL Version A",OLD,TRIAL,JURY,ON,S,50,23,JOL,User,-,"How likely are you to correctly recall the second item in the pair?|Type your response on a scale from 0-100 and then press Enter.",Study/JOL,"Study Phase",3607,,,1942,2196,,,,70,1
5e51cd7caf36f020b0209c7f,e2j8043xx3,Emily_Honors_Thesis_Part_2,1,76,2020-08-29T11:16:41-07:00,3.993488073349,9,versionA_stim.csv,RL_JOLVersionA.csv,"RELATIONAL Version A",OLD,BALL,RACKET,ON,B,38,52,JOL,User,-,"How likely are you to correctly recall the second item in the pair?|Type your response on a scale from 0-100 and then press Enter.",Study/JOL,"Study Phase",3500,,,2113,2295,,,,80,1
5e51cd7caf36f020b0209c7f,e2j8043xx3,Emily_Honors_Thesis_Part_2,1,77,2020-08-29T11:16:45-07:00,4.3179829120636,9,versionA_stim.csv,RL_JOLVersionA.csv,"RELATIONAL Version A",OLD,DEBATE,SIGHT,ON,U,73,18,JOL,User,-,"How likely are you to correctly recall the second item in the pair?|Type your response on a scale from 0-100 and then press Enter.",Study/JOL,"Study Phase",3887,,,1144,2991,,,,0,1
5e51cd7caf36f020b0209c7f,e2j8043xx3,Emily_Honors_Thesis_Part_2,1,78,2020-08-29T11:17:09-07:00,23.715795993805,9,versionA_stim.csv,RL_JOLVersionA.csv,"RELATIONAL Version A",OLD,WAGE,MONEY,ON,F,8,25,JOL,User,-,"How likely are you to correctly recall the second item in the pair?|Type your response on a scale from 0-100 and then press Enter.",Study/JOL,"Study Phase",23276,,,20849,21398,,,,60,1
5e51cd7caf36f020b0209c7f,e2j8043xx3,Emily_Honors_Thesis_Part_2,1,79,2020-08-29T11:17:18-07:00,8.9189569950104,9,versionA_stim.csv,RL_JOLVersionA.csv,"RELATIONAL Version A",OLD,BLOW,WIND,ON,S,55,67,JOL,User,-,"How likely are you to correctly recall the second item in the pair?|Type your response on a scale from 0-100 and then press Enter.",Study/JOL,"Study Phase",8395,,,3765,5056,,,,10,1
5e51cd7caf36f020b0209c7f,e2j8043xx3,Emily_Honors_Thesis_Part_2,1,80,2020-08-29T11:17:32-07:00,13.733215093613,9,versionA_stim.csv,RL_JOLVersionA.csv,"RELATIONAL Version A",OLD,PARK,HUNGRY,ON,U,68,75,JOL,User,-,"How likely are you to correctly recall the second item in the pair?|Type your response on a scale from 0-100 and then press Enter.",Study/JOL,"Study Phase",13318,,,9865,9991,,,,0,1
5e51cd7caf36f020b0209c7f,e2j8043xx3,Emily_Honors_Thesis_Part_2,1,81,2020-08-29T11:17:36-07:00,4.2587690353394,9,versionA_stim.csv,RL_JOLVersionA.csv,"RELATIONAL Version A",OLD,CASH,WOULD,ON,U,83,7,JOL,User,-,"How likely are you to correctly recall the second item in the pair?|Type your response on a scale from 0-100 and then press Enter.",Study/JOL,"Study Phase",3715,,,2813,2813,,,,0,1
5e51cd7caf36f020b0209c7f,e2j8043xx3,Emily_Honors_Thesis_Part_2,1,82,2020-08-29T11:17:40-07:00,4.458685874939,9,versionA_stim.csv,RL_JOLVersionA.csv,"RELATIONAL Version A",OLD,CHISEL,HAMMER,ON,F,9,38,JOL,User,-,"How likely are you to correctly recall the second item in the pair?|Type your response on a scale from 0-100 and then press Enter.",Study/JOL,"Study Phase",4043,,,2981,3105,,,,20,1
5e51cd7caf36f020b0209c7f,e2j8043xx3,Emily_Honors_Thesis_Part_2,1,83,2020-08-29T11:17:46-07:00,5.5226311683655,9,versionA_stim.csv,RL_JOLVersionA.csv,"RELATIONAL Version A",OLD,SENTENCE,WORD,ON,B,31,60,JOL,User,-,"How likely are you to correctly recall the second item in the pair?|Type your response on a scale from 0-100 and then press Enter.",Study/JOL,"Study Phase",5098,,,2808,3567,,,,70,1
5e51cd7caf36f020b0209c7f,e2j8043xx3,Emily_Honors_Thesis_Part_2,1,84,2020-08-29T11:17:52-07:00,6.1882908344269,9,versionA_stim.csv,RL_JOLVersionA.csv,"RELATIONAL Version A",OLD,ROOT,PLANT,ON,F,13,53,JOL,User,-,"How likely are you to correctly recall the second item in the pair?|Type your response on a scale from 0-100 and then press Enter.",Study/JOL,"Study Phase",5731,,,4338,4587,,,,70,1
5e51cd7caf36f020b0209c7f,e2j8043xx3,Emily_Honors_Thesis_Part_2,1,85,2020-08-29T11:17:57-07:00,5.4121329784393,9,versionA_stim.csv,RL_JOLVersionA.csv,"RELATIONAL Version A",OLD,POP,SODA,ON,S,56,79,JOL,User,-,"How likely are you to correctly recall the second item in the pair?|Type your response on a scale from 0-100 and then press Enter.",Study/JOL,"Study Phase",5002,,,3524,3651,,,,60,1
5e51cd7caf36f020b0209c7f,e2j8043xx3,Emily_Honors_Thesis_Part_2,1,86,2020-08-29T11:18:02-07:00,4.1678981781006,9,versionA_stim.csv,RL_JOLVersionA.csv,"RELATIONAL Version A",OLD,LETTUCE,SALAD,ON,S,59,24,JOL,User,-,"How likely are you to correctly recall the second item in the pair?|Type your response on a scale from 0-100 and then press Enter.",Study/JOL,"Study Phase",3660,,,2192,2433,,,,70,1
5e51cd7caf36f020b0209c7f,e2j8043xx3,Emily_Honors_Thesis_Part_2,1,87,2020-08-29T11:18:05-07:00,2.882640838623,9,versionA_stim.csv,RL_JOLVersionA.csv,"RELATIONAL Version A",OLD,ARCHITECTURE,DESIGN,ON,S,51,27,JOL,User,-,"How likely are you to correctly recall the second item in the pair?|Type your response on a scale from 0-100 and then press Enter.",Study/JOL,"Study Phase",2429,,,1419,1526,,,,80,1
5e51cd7caf36f020b0209c7f,e2j8043xx3,Emily_Honors_Thesis_Part_2,1,88,2020-08-29T11:18:09-07:00,3.9580321311951,9,versionA_stim.csv,RL_JOLVersionA.csv,"RELATIONAL Version A",OLD,BATHROOM,TOILET,ON,S,58,76,JOL,User,-,"How likely are you to correctly recall the second item in the pair?|Type your response on a scale from 0-100 and then press Enter.",Study/JOL,"Study Phase",3507,,,1327,2673,,,,100,1
5e51cd7caf36f020b0209c7f,e2j8043xx3,Emily_Honors_Thesis_Part_2,1,89,2020-08-29T11:18:18-07:00,9.0425329208374,9,versionA_stim.csv,RL_JOLVersionA.csv,"RELATIONAL Version A",OLD,MACHINE,POSITION,ON,U,76,21,JOL,User,-,"How likely are you to correctly recall the second item in the pair?|Type your response on a scale from 0-100 and then press Enter.",Study/JOL,"Study Phase",8604,,,5074,7525,,,,0,1
5e51cd7caf36f020b0209c7f,e2j8043xx3,Emily_Honors_Thesis_Part_2,1,90,2020-08-29T11:18:22-07:00,4.0988740921021,9,versionA_stim.csv,RL_JOLVersionA.csv,"RELATIONAL Version A",OLD,REVOLUTION,WAR,ON,F,20,22,JOL,User,-,"How likely are you to correctly recall the second item in the pair?|Type your response on a scale from 0-100 and then press Enter.",Study/JOL,"Study Phase",3645,,,1962,2806,,,,10,1
5e51cd7caf36f020b0209c7f,e2j8043xx3,Emily_Honors_Thesis_Part_2,1,91,2020-08-29T11:18:28-07:00,6.0296409130096,9,versionA_stim.csv,RL_JOLVersionA.csv,"RELATIONAL Version A",OLD,GRILL,BAR,ON,S,52,86,JOL,User,-,"How likely are you to correctly recall the second item in the pair?|Type your response on a scale from 0-100 and then press Enter.",Study/JOL,"Study Phase",5618,,,4583,4728,,,,90,1
5e51cd7caf36f020b0209c7f,e2j8043xx3,Emily_Honors_Thesis_Part_2,1,92,2020-08-29T11:18:31-07:00,3.7084510326385,9,versionA_stim.csv,RL_JOLVersionA.csv,"RELATIONAL Version A",OLD,SWAN,BIRD,ON,F,14,44,JOL,User,-,"How likely are you to correctly recall the second item in the pair?|Type your response on a scale from 0-100 and then press Enter.",Study/JOL,"Study Phase",3296,,,1694,2057,,,,100,1
5e51cd7caf36f020b0209c7f,e2j8043xx3,Emily_Honors_Thesis_Part_2,1,93,2020-08-29T11:18:35-07:00,3.5304498672485,9,versionA_stim.csv,RL_JOLVersionA.csv,"RELATIONAL Version A",OLD,KEY,LATCH,ON,B,36,70,JOL,User,-,"How likely are you to correctly recall the second item in the pair?|Type your response on a scale from 0-100 and then press Enter.",Study/JOL,"Study Phase",3075,,,1807,2123,,,,80,1
5e51cd7caf36f020b0209c7f,e2j8043xx3,Emily_Honors_Thesis_Part_2,1,94,2020-08-29T11:18:42-07:00,6.5876281261444,9,versionA_stim.csv,RL_JOLVersionA.csv,"RELATIONAL Version A",OLD,CIRCLE,ROUND,ON,S,65,62,JOL,User,-,"How likely are you to correctly recall the second item in the pair?|Type your response on a scale from 0-100 and then press Enter.",Study/JOL,"Study Phase",5915,,,4005,5089,,,,100,1
5e51cd7caf36f020b0209c7f,e2j8043xx3,Emily_Honors_Thesis_Part_2,1,95,2020-08-29T11:18:45-07:00,3.8520500659943,9,versionA_stim.csv,RL_JOLVersionA.csv,"RELATIONAL Version A",OLD,TUNA,FISH,ON,F,25,41,JOL,User,-,"How likely are you to correctly recall the second item in the pair?|Type your response on a scale from 0-100 and then press Enter.",Study/JOL,"Study Phase",3440,,,2683,2953,,,,100,1
5e51cd7caf36f020b0209c7f,e2j8043xx3,Emily_Honors_Thesis_Part_2,1,96,2020-08-29T11:18:47-07:00,2.0779449939728,9,versionA_stim.csv,RL_JOLVersionA.csv,"RELATIONAL Version A",OLD,PAW,DOG,ON,F,15,72,JOL,User,-,"How likely are you to correctly recall the second item in the pair?|Type your response on a scale from 0-100 and then press Enter.",Study/JOL,"Study Phase",1645,,,1118,1424,,,,100,1
5e51cd7caf36f020b0209c7f,e2j8043xx3,Emily_Honors_Thesis_Part_2,1,97,2020-08-29T11:18:50-07:00,2.2536809444427,9,versionA_stim.csv,RL_JOLVersionA.csv,"RELATIONAL Version A",OLD,HOT,CHILI,ON,B,37,81,JOL,User,-,"How likely are you to correctly recall the second item in the pair?|Type your response on a scale from 0-100 and then press Enter.",Study/JOL,"Study Phase",1813,,,1462,1585,,,,90,1
5e51cd7caf36f020b0209c7f,e2j8043xx3,Emily_Honors_Thesis_Part_2,1,98,2020-08-29T11:18:54-07:00,4.0432190895081,9,versionA_stim.csv,RL_JOLVersionA.csv,"RELATIONAL Version A",OLD,LAW,ATTORNEY,ON,B,34,59,JOL,User,-,"How likely are you to correctly recall the second item in the pair?|Type your response on a scale from 0-100 and then press Enter.",Study/JOL,"Study Phase",3546,,,2854,3214,,,,100,1
5e51cd7caf36f020b0209c7f,e2j8043xx3,Emily_Honors_Thesis_Part_2,1,99,2020-08-29T11:18:57-07:00,3.6837677955627,9,versionA_stim.csv,RL_JOLVersionA.csv,"RELATIONAL Version A",OLD,DRINK,SIP,ON,B,27,46,JOL,User,-,"How likely are you to correctly recall the second item in the pair?|Type your response on a scale from 0-100 and then press Enter.",Study/JOL,"Study Phase",3230,,,2828,2969,,,,50,1
5e51cd7caf36f020b0209c7f,e2j8043xx3,Emily_Honors_Thesis_Part_2,1,100,2020-08-29T11:18:59-07:00,1.9844040870667,9,versionA_stim.csv,RL_JOLVersionA.csv,"RELATIONAL Version A",OLD,MATH,DIVISION,ON,B,33,39,JOL,User,-,"How likely are you to correctly recall the second item in the pair?|Type your response on a scale from 0-100 and then press Enter.",Study/JOL,"Study Phase",1567,,,1140,1318,,,,50,1
5e51cd7caf36f020b0209c7f,e2j8043xx3,Emily_Honors_Thesis_Part_2,1,101,2020-08-29T11:19:03-07:00,3.5468521118164,9,versionA_stim.csv,RL_JOLVersionA.csv,"RELATIONAL Version A",OLD,FIRE,BLAZE,ON,B,45,36,JOL,User,-,"How likely are you to correctly recall the second item in the pair?|Type your response on a scale from 0-100 and then press Enter.",Study/JOL,"Study Phase",3071,,,2584,2718,,,,40,1
5e51cd7caf36f020b0209c7f,e2j8043xx3,Emily_Honors_Thesis_Part_2,1,102,2020-08-29T11:19:06-07:00,3.296199798584,9,versionA_stim.csv,RL_JOLVersionA.csv,"RELATIONAL Version A",OLD,HERD,COW,ON,F,22,83,JOL,User,-,"How likely are you to correctly recall the second item in the pair?|Type your response on a scale from 0-100 and then press Enter.",Study/JOL,"Study Phase",2833,,,2340,2534,,,,60,1
5e51cd7caf36f020b0209c7f,e2j8043xx3,Emily_Honors_Thesis_Part_2,1,103,2020-08-29T11:19:11-07:00,4.9897971153259,9,versionA_stim.csv,RL_JOLVersionA.csv,"RELATIONAL Version A",OLD,GEOLOGY,ROCK,ON,F,19,66,JOL,User,-,"How likely are you to correctly recall the second item in the pair?|Type your response on a scale from 0-100 and then press Enter.",Study/JOL,"Study Phase",4542,,,3498,4317,,,,100,1
5e51cd7caf36f020b0209c7f,e2j8043xx3,Emily_Honors_Thesis_Part_2,1,104,2020-08-29T11:19:14-07:00,2.6497359275818,9,versionA_stim.csv,RL_JOLVersionA.csv,"RELATIONAL Version A",OLD,BRIDGE,WATER,ON,F,18,37,JOL,User,-,"How likely are you to correctly recall the second item in the pair?|Type your response on a scale from 0-100 and then press Enter.",Study/JOL,"Study Phase",2234,,,1966,1966,,,,3,1
5e51cd7caf36f020b0209c7f,e2j8043xx3,Emily_Honors_Thesis_Part_2,1,105,2020-08-29T11:19:21-07:00,7.5754749774933,9,versionA_stim.csv,RL_JOLVersionA.csv,"RELATIONAL Version A",OLD,SHERIFF,POLICE,Buffer2,Buffer,87,87,JOL,User,-,"How likely are you to correctly recall the second item in the pair?|Type your response on a scale from 0-100 and then press Enter.",Study/JOL,BUFFER2,7147,,,6941,6941,,,,5,1
5e51cd7caf36f020b0209c7f,e2j8043xx3,Emily_Honors_Thesis_Part_2,1,106,2020-08-29T11:19:27-07:00,5.9343869686127,9,versionA_stim.csv,RL_JOLVersionA.csv,"RELATIONAL Version A",OLD,THING,STUFF,Buffer2,Buffer,90,90,JOL,User,-,"How likely are you to correctly recall the second item in the pair?|Type your response on a scale from 0-100 and then press Enter.",Study/JOL,BUFFER2,5485,,,4744,4744,,,,0,1
5e51cd7caf36f020b0209c7f,e2j8043xx3,Emily_Honors_Thesis_Part_2,1,107,2020-08-29T11:19:30-07:00,2.7940800189972,9,versionA_stim.csv,RL_JOLVersionA.csv,"RELATIONAL Version A",OLD,MOON,SPACE,Buffer2,Buffer,89,91,JOL,User,-,"How likely are you to correctly recall the second item in the pair?|Type your response on a scale from 0-100 and then press Enter.",Study/JOL,BUFFER2,2335,,,1511,2000,,,,100,1
5e51cd7caf36f020b0209c7f,e2j8043xx3,Emily_Honors_Thesis_Part_2,1,108,2020-08-29T11:19:34-07:00,4.2634689807892,9,versionA_stim.csv,RL_JOLVersionA.csv,"RELATIONAL Version A",OLD,MALT,CHOCOLATE,Buffer2,Buffer,88,89,JOL,User,-,"How likely are you to correctly recall the second item in the pair?|Type your response on a scale from 0-100 and then press Enter.",Study/JOL,BUFFER2,2583,,,2225,2367,,,,20,1
5e51cd7caf36f020b0209c7f,e2j8043xx3,Emily_Honors_Thesis_Part_2,1,109,2020-08-29T11:19:44-07:00,9.5352520942688,9,versionA_stim.csv,RL_JOLVersionA.csv,"RELATIONAL Version A",OLD,GEESE,GOOSE,Buffer2,Buffer,86,88,JOL,User,-,"How likely are you to correctly recall the second item in the pair?|Type your response on a scale from 0-100 and then press Enter.",Study/JOL,BUFFER2,8879,,,2369,2754,,,,100,1
5e51cd7caf36f020b0209c7f,e2j8043xx3,Emily_Honors_Thesis_Part_2,1,110,2020-08-29T11:19:48-07:00,4.4169840812683,9,versionA_stim.csv,RL_JOLVersionA.csv,"RELATIONAL Version A",OLD,,,,,,0,Instruct,User,-,"You have completed this section. Please press Enter.",Filler_Instruction,Instruct5,4012,,,-1,-1,,,,,1
5e51cd7caf36f020b0209c7f,e2j8043xx3,Emily_Honors_Thesis_Part_2,1,111,2020-08-29T11:20:36-07:00,47.237880945206,9,versionA_stim.csv,RL_JOLVersionA.csv,"RELATIONAL Version A",OLD,,,,,,0,FreeRecall,-,10,"What were you supposed to focus on while you studied each pair? (Hint: Think back to the instructions). Type your answer in the space below.",,CHECK3,46654,"i was supposed to focus on rating how much you would be able to remember the second word for the word pair",0,4770,44813,0,0,,,1
5e51cd7caf36f020b0209c7f,e2j8043xx3,Emily_Honors_Thesis_Part_2,1,112,2020-08-29T11:20:43-07:00,6.9053239822388,9,versionA_stim.csv,RL_JOLVersionA.csv,"RELATIONAL Version A",OLD,,,,,,0,Instruct,User,-,"You have completed this section. Please press Enter.",Filler_Instruction,Instruct2,6404,,,-1,-1,,,,,1
5e51cd7caf36f020b0209c7f,e2j8043xx3,Emily_Honors_Thesis_Part_2,1,113,2020-08-29T11:22:44-07:00,121.65717792511,9,versionA_stim.csv,RL_JOLVersionA.csv,"RELATIONAL Version A",OLD,,,,,,0,FreeRecall,120,120,"Please list the 50 US states in alphabetical order. The task will automatically advance to the next screen after two minutes.",,Filler1,120001,"alabama arizona arkansas hawaii new york north dakota tennessee texas south dakota washington",0,5929,119899,0,0,,,0.958
5e51cd7caf36f020b0209c7f,e2j8043xx3,Emily_Honors_Thesis_Part_2,1,114,2020-08-29T11:22:58-07:00,14.017323970795,9,versionA_stim.csv,RL_JOLVersionA.csv,"RELATIONAL Version A",OLD,,,,,,0,Instruct,-,10,"You will now be presented with the first word from each of the previously studied item pairs. Please type the missing word. If you do not know the word, you may guess or press Enter to skip forward to the next pair.",,Instruct3,13314,,,-1,-1,,,,,1
5e51cd7caf36f020b0209c7f,e2j8043xx3,Emily_Honors_Thesis_Part_2,1,115,2020-08-29T11:23:06-07:00,7.8371660709381,9,versionA_stim.csv,RL_JOLVersionA.csv,"RELATIONAL Version A",OLD,WINE,CHEESE,ON,S,57,10,Test,User,-,,Recall,Recall1,7404,cork,20,3869,6247,0,0,,,1
5e51cd7caf36f020b0209c7f,e2j8043xx3,Emily_Honors_Thesis_Part_2,1,116,2020-08-29T11:23:11-07:00,4.9614589214325,9,versionA_stim.csv,RL_JOLVersionA.csv,"RELATIONAL Version A",OLD,LAW,ATTORNEY,ON,B,34,59,Test,User,-,,Recall,Recall1,4498,ATTORNEY,100,2525,4247,1,1,,,1
5e51cd7caf36f020b0209c7f,e2j8043xx3,Emily_Honors_Thesis_Part_2,1,117,2020-08-29T11:23:17-07:00,5.6888961791992,9,versionA_stim.csv,RL_JOLVersionA.csv,"RELATIONAL Version A",OLD,DEATH,BUSINESS,ON,U,72,13,Test,User,-,,Recall,Recall1,5249,BUSINESS,100,4137,5117,1,1,,,1
5e51cd7caf36f020b0209c7f,e2j8043xx3,Emily_Honors_Thesis_Part_2,1,118,2020-08-29T11:23:19-07:00,2.1298248767853,9,versionA_stim.csv,RL_JOLVersionA.csv,"RELATIONAL Version A",OLD,PAW,DOG,ON,F,15,72,Test,User,-,,Recall,Recall1,1706,DOG,100,1271,1601,1,1,,,1
5e51cd7caf36f020b0209c7f,e2j8043xx3,Emily_Honors_Thesis_Part_2,1,119,2020-08-29T11:23:24-07:00,5.2522749900818,9,versionA_stim.csv,RL_JOLVersionA.csv,"RELATIONAL Version A",OLD,NUMBER,AMOUNT,ON,S,47,80,Test,User,-,,Recall,Recall1,4826,FIGURE,16.666666666667,3142,4619,0,0,,,1
5e51cd7caf36f020b0209c7f,e2j8043xx3,Emily_Honors_Thesis_Part_2,1,120,2020-08-29T11:23:27-07:00,3.2719149589539,9,versionA_stim.csv,RL_JOLVersionA.csv,"RELATIONAL Version A",OLD,MACHINE,POSITION,ON,U,76,21,Test,User,-,,Recall,Recall1,2839,,0,-1,-1,0,0,,,1
5e51cd7caf36f020b0209c7f,e2j8043xx3,Emily_Honors_Thesis_Part_2,1,121,2020-08-29T11:23:31-07:00,3.4710910320282,9,versionA_stim.csv,RL_JOLVersionA.csv,"RELATIONAL Version A",OLD,MATH,DIVISION,ON,B,33,39,Test,User,-,,Recall,Recall1,3032,DIVISION,100,1479,2735,1,1,,,1
5e51cd7caf36f020b0209c7f,e2j8043xx3,Emily_Honors_Thesis_Part_2,1,122,2020-08-29T11:23:34-07:00,2.6749711036682,9,versionA_stim.csv,RL_JOLVersionA.csv,"RELATIONAL Version A",OLD,FIX,HAND,ON,U,75,61,Test,User,-,,Recall,Recall1,2233,,0,-1,-1,0,0,,,1
5e51cd7caf36f020b0209c7f,e2j8043xx3,Emily_Honors_Thesis_Part_2,1,123,2020-08-29T11:23:36-07:00,2.4841279983521,9,versionA_stim.csv,RL_JOLVersionA.csv,"RELATIONAL Version A",OLD,CIRCLE,ROUND,ON,S,65,62,Test,User,-,,Recall,Recall1,2056,ROUND,100,1187,1858,1,1,,,1
5e51cd7caf36f020b0209c7f,e2j8043xx3,Emily_Honors_Thesis_Part_2,1,124,2020-08-29T11:23:40-07:00,3.5209610462189,9,versionA_stim.csv,RL_JOLVersionA.csv,"RELATIONAL Version A",OLD,DRINK,SIP,ON,B,27,46,Test,User,-,,Recall,Recall1,3113,SIP,100,2181,2805,1,1,,,1
5e51cd7caf36f020b0209c7f,e2j8043xx3,Emily_Honors_Thesis_Part_2,1,125,2020-08-29T11:23:43-07:00,3.1301529407501,9,versionA_stim.csv,RL_JOLVersionA.csv,"RELATIONAL Version A",OLD,PAST,FUTURE,ON,S,61,32,Test,User,-,,Recall,Recall1,2743,FUTURE,100,1826,2634,1,1,,,1
5e51cd7caf36f020b0209c7f,e2j8043xx3,Emily_Honors_Thesis_Part_2,1,126,2020-08-29T11:23:45-07:00,2.2390460968018,9,versionA_stim.csv,RL_JOLVersionA.csv,"RELATIONAL Version A",OLD,DEBATE,SIGHT,ON,U,73,18,Test,User,-,,Recall,Recall1,1770,,0,-1,-1,0,0,,,1
5e51cd7caf36f020b0209c7f,e2j8043xx3,Emily_Honors_Thesis_Part_2,1,127,2020-08-29T11:23:47-07:00,2.5776648521423,9,versionA_stim.csv,RL_JOLVersionA.csv,"RELATIONAL Version A",OLD,HERD,COW,ON,F,22,83,Test,User,-,,Recall,Recall1,2066,COW,100,1520,1945,1,1,,,1
5e51cd7caf36f020b0209c7f,e2j8043xx3,Emily_Honors_Thesis_Part_2,1,128,2020-08-29T11:23:51-07:00,3.0594050884247,9,versionA_stim.csv,RL_JOLVersionA.csv,"RELATIONAL Version A",OLD,WAY,OUT,ON,F,16,8,Test,User,-,,Recall,Recall1,2649,,0,-1,-1,0,0,,,1
5e51cd7caf36f020b0209c7f,e2j8043xx3,Emily_Honors_Thesis_Part_2,1,129,2020-08-29T11:23:53-07:00,2.2270660400391,9,versionA_stim.csv,RL_JOLVersionA.csv,"RELATIONAL Version A",OLD,DELINQUENT,BAD,ON,F,6,31,Test,User,-,,Recall,Recall1,1788,,0,-1,-1,0,0,,,1
5e51cd7caf36f020b0209c7f,e2j8043xx3,Emily_Honors_Thesis_Part_2,1,130,2020-08-29T11:23:58-07:00,5.5007770061493,9,versionA_stim.csv,RL_JOLVersionA.csv,"RELATIONAL Version A",OLD,TAKE,SEIZE,ON,B,29,11,Test,User,-,,Recall,Recall1,4987,GIVE,44.444444444444,3786,4808,0,0,,,1
5e51cd7caf36f020b0209c7f,e2j8043xx3,Emily_Honors_Thesis_Part_2,1,131,2020-08-29T11:24:02-07:00,3.9347629547119,9,versionA_stim.csv,RL_JOLVersionA.csv,"RELATIONAL Version A",OLD,SENTENCE,WORD,ON,B,31,60,Test,User,-,,Recall,Recall1,3502,WORDS,88.888888888889,2482,3311,0,1,,,1
5e51cd7caf36f020b0209c7f,e2j8043xx3,Emily_Honors_Thesis_Part_2,1,132,2020-08-29T11:24:05-07:00,2.7970650196075,9,versionA_stim.csv,RL_JOLVersionA.csv,"RELATIONAL Version A",OLD,SUGAR,RIDDLE,ON,U,81,77,Test,User,-,,Recall,Recall1,2342,,0,-1,-1,0,0,,,1
5e51cd7caf36f020b0209c7f,e2j8043xx3,Emily_Honors_Thesis_Part_2,1,133,2020-08-29T11:24:07-07:00,2.2656118869781,9,versionA_stim.csv,RL_JOLVersionA.csv,"RELATIONAL Version A",OLD,CLOTHES,ATTIRE,ON,B,43,50,Test,User,-,,Recall,Recall1,1850,,0,-1,-1,0,0,,,1
5e51cd7caf36f020b0209c7f,e2j8043xx3,Emily_Honors_Thesis_Part_2,1,134,2020-08-29T11:24:11-07:00,3.2736070156097,9,versionA_stim.csv,RL_JOLVersionA.csv,"RELATIONAL Version A",OLD,LIFT,WOMAN,ON,U,69,17,Test,User,-,,Recall,Recall1,2644,UP,0,2004,2247,0,0,,,1
5e51cd7caf36f020b0209c7f,e2j8043xx3,Emily_Honors_Thesis_Part_2,1,135,2020-08-29T11:24:13-07:00,2.6346399784088,9,versionA_stim.csv,RL_JOLVersionA.csv,"RELATIONAL Version A",OLD,SOON,BELT,ON,U,70,19,Test,User,-,,Recall,Recall1,2182,,0,-1,-1,0,0,,,1
5e51cd7caf36f020b0209c7f,e2j8043xx3,Emily_Honors_Thesis_Part_2,1,136,2020-08-29T11:24:15-07:00,2.3444800376892,9,versionA_stim.csv,RL_JOLVersionA.csv,"RELATIONAL Version A",OLD,PLANE,PILOT,ON,B,44,15,Test,User,-,,Recall,Recall1,1874,,0,-1,-1,0,0,,,1
5e51cd7caf36f020b0209c7f,e2j8043xx3,Emily_Honors_Thesis_Part_2,1,137,2020-08-29T11:24:20-07:00,4.8444950580597,9,versionA_stim.csv,RL_JOLVersionA.csv,"RELATIONAL Version A",OLD,ART,LION,ON,U,79,16,Test,User,-,,Recall,Recall1,4350,LION,100,3562,4161,1,1,,,1
5e51cd7caf36f020b0209c7f,e2j8043xx3,Emily_Honors_Thesis_Part_2,1,138,2020-08-29T11:24:24-07:00,4.0073158740997,9,versionA_stim.csv,RL_JOLVersionA.csv,"RELATIONAL Version A",OLD,BLOW,WIND,ON,S,55,67,Test,User,-,,Recall,Recall1,3614,WIND,100,3077,3451,1,1,,,1
5e51cd7caf36f020b0209c7f,e2j8043xx3,Emily_Honors_Thesis_Part_2,1,139,2020-08-29T11:24:26-07:00,1.7670080661774,9,versionA_stim.csv,RL_JOLVersionA.csv,"RELATIONAL Version A",OLD,VALLEY,ADD,ON,U,82,33,Test,User,-,,Recall,Recall1,1291,,0,-1,-1,0,0,,,1
5e51cd7caf36f020b0209c7f,e2j8043xx3,Emily_Honors_Thesis_Part_2,1,140,2020-08-29T11:24:28-07:00,2.0601999759674,9,versionA_stim.csv,RL_JOLVersionA.csv,"RELATIONAL Version A",OLD,HAPPY,CAR,ON,U,77,34,Test,User,-,,Recall,Recall1,1546,,0,-1,-1,0,0,,,1
5e51cd7caf36f020b0209c7f,e2j8043xx3,Emily_Honors_Thesis_Part_2,1,141,2020-08-29T11:24:32-07:00,4.2692849636078,9,versionA_stim.csv,RL_JOLVersionA.csv,"RELATIONAL Version A",OLD,WORK,CHORE,ON,B,39,74,Test,User,-,,Recall,Recall1,3851,CHORES,90.909090909091,2838,3693,0,1,,,1
5e51cd7caf36f020b0209c7f,e2j8043xx3,Emily_Honors_Thesis_Part_2,1,142,2020-08-29T11:24:39-07:00,6.4864740371704,9,versionA_stim.csv,RL_JOLVersionA.csv,"RELATIONAL Version A",OLD,SMELL,STENCH,ON,B,42,58,Test,User,-,,Recall,Recall1,6057,STENCH,100,1185,5590,1,1,,,1
5e51cd7caf36f020b0209c7f,e2j8043xx3,Emily_Honors_Thesis_Part_2,1,143,2020-08-29T11:24:42-07:00,2.6980040073395,9,versionA_stim.csv,RL_JOLVersionA.csv,"RELATIONAL Version A",OLD,REVOLUTION,WAR,ON,F,20,22,Test,User,-,,Recall,Recall1,2280,WAR,100,1635,2123,1,1,,,1
5e51cd7caf36f020b0209c7f,e2j8043xx3,Emily_Honors_Thesis_Part_2,1,144,2020-08-29T11:24:45-07:00,3.4280121326447,9,versionA_stim.csv,RL_JOLVersionA.csv,"RELATIONAL Version A",OLD,EDITOR,NEWS,ON,F,10,40,Test,User,-,,Recall,Recall1,3019,NEWSPAPER,61.538461538462,1543,2710,0,0,,,1
5e51cd7caf36f020b0209c7f,e2j8043xx3,Emily_Honors_Thesis_Part_2,1,145,2020-08-29T11:24:49-07:00,4.2331819534302,9,versionA_stim.csv,RL_JOLVersionA.csv,"RELATIONAL Version A",OLD,BUG,WASP,ON,B,32,56,Test,User,-,,Recall,Recall1,2807,WASP,100,2100,2609,1,1,,,1
5e51cd7caf36f020b0209c7f,e2j8043xx3,Emily_Honors_Thesis_Part_2,1,146,2020-08-29T11:24:53-07:00,4.1797678470612,9,versionA_stim.csv,RL_JOLVersionA.csv,"RELATIONAL Version A",OLD,HORNET,STING,ON,F,11,65,Test,User,-,,Recall,Recall1,3735,STING,100,1253,3589,1,1,,,1
5e51cd7caf36f020b0209c7f,e2j8043xx3,Emily_Honors_Thesis_Part_2,1,147,2020-08-29T11:24:58-07:00,4.5470571517944,9,versionA_stim.csv,RL_JOLVersionA.csv,"RELATIONAL Version A",OLD,DUE,ASSIGNMENT,ON,S,46,51,Test,User,-,,Recall,Recall1,4149,ASSIGNMENT,100,2221,3997,1,1,,,1
5e51cd7caf36f020b0209c7f,e2j8043xx3,Emily_Honors_Thesis_Part_2,1,148,2020-08-29T11:25:02-07:00,4.1609859466553,9,versionA_stim.csv,RL_JOLVersionA.csv,"RELATIONAL Version A",OLD,SHOE,FOOT,ON,S,60,26,Test,User,-,,Recall,Recall1,3724,FEET,50,2767,3580,0,0,,,1
5e51cd7caf36f020b0209c7f,e2j8043xx3,Emily_Honors_Thesis_Part_2,1,149,2020-08-29T11:25:05-07:00,2.5904550552368,9,versionA_stim.csv,RL_JOLVersionA.csv,"RELATIONAL Version A",OLD,KING,VASE,ON,U,85,12,Test,User,-,,Recall,Recall1,2108,,0,-1,-1,0,0,,,1
5e51cd7caf36f020b0209c7f,e2j8043xx3,Emily_Honors_Thesis_Part_2,1,150,2020-08-29T11:25:06-07:00,1.0488698482513,9,versionA_stim.csv,RL_JOLVersionA.csv,"RELATIONAL Version A",OLD,HUNGER,FAMINE,ON,B,40,63,Test,User,-,,Recall,Recall1,617,,0,-1,-1,0,0,,,1
5e51cd7caf36f020b0209c7f,e2j8043xx3,Emily_Honors_Thesis_Part_2,1,151,2020-08-29T11:25:08-07:00,1.9543170928955,9,versionA_stim.csv,RL_JOLVersionA.csv,"RELATIONAL Version A",OLD,SWAN,BIRD,ON,F,14,44,Test,User,-,,Recall,Recall1,1570,BIRD,100,1071,1500,1,1,,,1
5e51cd7caf36f020b0209c7f,e2j8043xx3,Emily_Honors_Thesis_Part_2,1,152,2020-08-29T11:25:10-07:00,1.7698049545288,9,versionA_stim.csv,RL_JOLVersionA.csv,"RELATIONAL Version A",OLD,ARCHITECTURE,DESIGN,ON,S,51,27,Test,User,-,,Recall,Recall1,1354,,0,-1,-1,0,0,,,1
5e51cd7caf36f020b0209c7f,e2j8043xx3,Emily_Honors_Thesis_Part_2,1,153,2020-08-29T11:25:12-07:00,2.0350871086121,9,versionA_stim.csv,RL_JOLVersionA.csv,"RELATIONAL Version A",OLD,HONEY,BEE,ON,S,63,45,Test,User,-,,Recall,Recall1,1602,BEE,100,1110,1412,1,1,,,1
5e51cd7caf36f020b0209c7f,e2j8043xx3,Emily_Honors_Thesis_Part_2,1,154,2020-08-29T11:25:16-07:00,4.6868710517883,9,versionA_stim.csv,RL_JOLVersionA.csv,"RELATIONAL Version A",OLD,MEANING,DEFINITION,ON,S,62,84,Test,User,-,,Recall,Recall1,3084,DEFINITION,100,1577,2875,1,1,,,1
5e51cd7caf36f020b0209c7f,e2j8043xx3,Emily_Honors_Thesis_Part_2,1,155,2020-08-29T11:25:19-07:00,2.9056658744812,9,versionA_stim.csv,RL_JOLVersionA.csv,"RELATIONAL Version A",OLD,BALL,RACKET,ON,B,38,52,Test,User,-,,Recall,Recall1,2489,,0,-1,-1,0,0,,,1
5e51cd7caf36f020b0209c7f,e2j8043xx3,Emily_Honors_Thesis_Part_2,1,156,2020-08-29T11:25:22-07:00,3.241101026535,9,versionA_stim.csv,RL_JOLVersionA.csv,"RELATIONAL Version A",OLD,WAGE,MONEY,ON,F,8,25,Test,User,-,,Recall,Recall1,2805,MONEY,100,1575,2399,1,1,,,1
5e51cd7caf36f020b0209c7f,e2j8043xx3,Emily_Honors_Thesis_Part_2,1,157,2020-08-29T11:25:26-07:00,3.8448719978333,9,versionA_stim.csv,RL_JOLVersionA.csv,"RELATIONAL Version A",OLD,HEIGHT,GROWTH,ON,B,30,35,Test,User,-,,Recall,Recall1,3425,GROWTH,100,2484,3247,1,1,,,1
5e51cd7caf36f020b0209c7f,e2j8043xx3,Emily_Honors_Thesis_Part_2,1,158,2020-08-29T11:25:28-07:00,2.2237169742584,9,versionA_stim.csv,RL_JOLVersionA.csv,"RELATIONAL Version A",OLD,GEOLOGY,ROCK,ON,F,19,66,Test,User,-,,Recall,Recall1,1744,ROCKS,88.888888888889,1122,1635,0,1,,,1
5e51cd7caf36f020b0209c7f,e2j8043xx3,Emily_Honors_Thesis_Part_2,1,159,2020-08-29T11:25:34-07:00,5.6067640781403,9,versionA_stim.csv,RL_JOLVersionA.csv,"RELATIONAL Version A",OLD,BRIDGE,WATER,ON,F,18,37,Test,User,-,,Recall,Recall1,4080,RIVER,40,2212,2920,0,0,,,1
5e51cd7caf36f020b0209c7f,e2j8043xx3,Emily_Honors_Thesis_Part_2,1,160,2020-08-29T11:25:40-07:00,5.6716368198395,9,versionA_stim.csv,RL_JOLVersionA.csv,"RELATIONAL Version A",OLD,DISCUSSION,TALK,ON,F,21,30,Test,User,-,,Recall,Recall1,5133,TALK,100,3945,4733,1,1,,,1
5e51cd7caf36f020b0209c7f,e2j8043xx3,Emily_Honors_Thesis_Part_2,1,161,2020-08-29T11:25:49-07:00,9.3086431026459,9,versionA_stim.csv,RL_JOLVersionA.csv,"RELATIONAL Version A",OLD,HYGIENE,CLEAN,ON,F,17,29,Test,User,-,,Recall,Recall1,8876,CLEAN,100,6513,8453,1,1,,,1
5e51cd7caf36f020b0209c7f,e2j8043xx3,Emily_Honors_Thesis_Part_2,1,162,2020-08-29T11:25:51-07:00,2.0535399913788,9,versionA_stim.csv,RL_JOLVersionA.csv,"RELATIONAL Version A",OLD,KEY,LATCH,ON,B,36,70,Test,User,-,,Recall,Recall1,1589,,0,-1,-1,0,0,,,1
5e51cd7caf36f020b0209c7f,e2j8043xx3,Emily_Honors_Thesis_Part_2,1,163,2020-08-29T11:25:54-07:00,2.5546360015869,9,versionA_stim.csv,RL_JOLVersionA.csv,"RELATIONAL Version A",OLD,DARK,CAVE,ON,B,28,47,Test,User,-,,Recall,Recall1,1096,,0,-1,-1,0,0,,,1
5e51cd7caf36f020b0209c7f,e2j8043xx3,Emily_Honors_Thesis_Part_2,1,164,2020-08-29T11:25:56-07:00,2.6667461395264,9,versionA_stim.csv,RL_JOLVersionA.csv,"RELATIONAL Version A",OLD,CREDIT,CARD,ON,F,23,68,Test,User,-,,Recall,Recall1,2236,CARD,100,1418,2017,1,1,,,1
5e51cd7caf36f020b0209c7f,e2j8043xx3,Emily_Honors_Thesis_Part_2,1,165,2020-08-29T11:25:59-07:00,2.6259748935699,9,versionA_stim.csv,RL_JOLVersionA.csv,"RELATIONAL Version A",OLD,CHISEL,HAMMER,ON,F,9,38,Test,User,-,,Recall,Recall1,2205,HAMMER,100,1581,2139,1,1,,,1
5e51cd7caf36f020b0209c7f,e2j8043xx3,Emily_Honors_Thesis_Part_2,1,166,2020-08-29T11:26:00-07:00,1.4318189620972,9,versionA_stim.csv,RL_JOLVersionA.csv,"RELATIONAL Version A",OLD,PUSHER,CLUTTER,ON,U,66,28,Test,User,-,,Recall,Recall1,983,,0,-1,-1,0,0,,,1
5e51cd7caf36f020b0209c7f,e2j8043xx3,Emily_Honors_Thesis_Part_2,1,167,2020-08-29T11:26:05-07:00,4.9910950660706,9,versionA_stim.csv,RL_JOLVersionA.csv,"RELATIONAL Version A",OLD,GREAT,FANTASTIC,ON,B,35,69,Test,User,-,,Recall,Recall1,4572,FANTASTI,94.117647058824,2710,4343,0,1,,,1
5e51cd7caf36f020b0209c7f,e2j8043xx3,Emily_Honors_Thesis_Part_2,1,168,2020-08-29T11:26:09-07:00,3.8226819038391,9,versionA_stim.csv,RL_JOLVersionA.csv,"RELATIONAL Version A",OLD,BITTER,COLD,ON,F,12,71,Test,User,-,,Recall,Recall1,3370,SWEET,0,2387,3262,0,0,,,1
5e51cd7caf36f020b0209c7f,e2j8043xx3,Emily_Honors_Thesis_Part_2,1,169,2020-08-29T11:26:13-07:00,3.8016250133514,9,versionA_stim.csv,RL_JOLVersionA.csv,"RELATIONAL Version A",OLD,ROOT,PLANT,ON,F,13,53,Test,User,-,,Recall,Recall1,3381,PLANT,100,2600,3204,1,1,,,1
5e51cd7caf36f020b0209c7f,e2j8043xx3,Emily_Honors_Thesis_Part_2,1,170,2020-08-29T11:26:16-07:00,3.065731048584,9,versionA_stim.csv,RL_JOLVersionA.csv,"RELATIONAL Version A",OLD,BABY,CHILD,ON,S,64,55,Test,User,-,,Recall,Recall1,2657,CHILD,100,1947,2534,1,1,,,1
5e51cd7caf36f020b0209c7f,e2j8043xx3,Emily_Honors_Thesis_Part_2,1,171,2020-08-29T11:26:18-07:00,2.1256740093231,9,versionA_stim.csv,RL_JOLVersionA.csv,"RELATIONAL Version A",OLD,TUNA,FISH,ON,F,25,41,Test,User,-,,Recall,Recall1,1638,FISH,100,1127,1473,1,1,,,1
5e51cd7caf36f020b0209c7f,e2j8043xx3,Emily_Honors_Thesis_Part_2,1,172,2020-08-29T11:26:19-07:00,1.2467129230499,9,versionA_stim.csv,RL_JOLVersionA.csv,"RELATIONAL Version A",OLD,STRONG,ACCIDENT,ON,U,80,54,Test,User,-,,Recall,Recall1,811,,0,-1,-1,0,0,,,1
5e51cd7caf36f020b0209c7f,e2j8043xx3,Emily_Honors_Thesis_Part_2,1,173,2020-08-29T11:26:21-07:00,1.0693571567535,9,versionA_stim.csv,RL_JOLVersionA.csv,"RELATIONAL Version A",OLD,ALLOW,TUCK,ON,U,78,9,Test,User,-,,Recall,Recall1,666,,0,-1,-1,0,0,,,1
5e51cd7caf36f020b0209c7f,e2j8043xx3,Emily_Honors_Thesis_Part_2,1,174,2020-08-29T11:26:25-07:00,4.4766118526459,9,versionA_stim.csv,RL_JOLVersionA.csv,"RELATIONAL Version A",OLD,ARTERY,BRONZE,ON,U,74,48,Test,User,-,,Recall,Recall1,4012,HEART,18.181818181818,2884,3808,0,0,,,1
5e51cd7caf36f020b0209c7f,e2j8043xx3,Emily_Honors_Thesis_Part_2,1,175,2020-08-29T11:26:27-07:00,2.2430901527405,9,versionA_stim.csv,RL_JOLVersionA.csv,"RELATIONAL Version A",OLD,BEGIN,END,ON,S,54,14,Test,User,-,,Recall,Recall1,1753,END,100,1370,1624,1,1,,,1
5e51cd7caf36f020b0209c7f,e2j8043xx3,Emily_Honors_Thesis_Part_2,1,176,2020-08-29T11:26:30-07:00,2.6410779953003,9,versionA_stim.csv,RL_JOLVersionA.csv,"RELATIONAL Version A",OLD,KIDNEY,LIVER,ON,S,53,57,Test,User,-,,Recall,Recall1,2127,LIVER,100,1292,1984,1,1,,,1
5e51cd7caf36f020b0209c7f,e2j8043xx3,Emily_Honors_Thesis_Part_2,1,177,2020-08-29T11:26:33-07:00,2.6650199890137,9,versionA_stim.csv,RL_JOLVersionA.csv,"RELATIONAL Version A",OLD,CASH,WOULD,ON,U,83,7,Test,User,-,,Recall,Recall1,2256,MONEY,20,1312,1986,0,0,,,1
5e51cd7caf36f020b0209c7f,e2j8043xx3,Emily_Honors_Thesis_Part_2,1,178,2020-08-29T11:26:36-07:00,3.3059020042419,9,versionA_stim.csv,RL_JOLVersionA.csv,"RELATIONAL Version A",OLD,FIRE,BLAZE,ON,B,45,36,Test,User,-,,Recall,Recall1,2852,BLAZE,100,1432,2617,1,1,,,1
5e51cd7caf36f020b0209c7f,e2j8043xx3,Emily_Honors_Thesis_Part_2,1,179,2020-08-29T11:26:38-07:00,1.9886379241943,9,versionA_stim.csv,RL_JOLVersionA.csv,"RELATIONAL Version A",OLD,DIETARY,SACKING,ON,U,67,42,Test,User,-,,Recall,Recall1,1547,,0,-1,-1,0,0,,,1
5e51cd7caf36f020b0209c7f,e2j8043xx3,Emily_Honors_Thesis_Part_2,1,180,2020-08-29T11:26:42-07:00,3.7543470859528,9,versionA_stim.csv,RL_JOLVersionA.csv,"RELATIONAL Version A",OLD,DIGESTION,STOMACH,ON,F,7,49,Test,User,-,,Recall,Recall1,3344,STOMACH,100,2018,3128,1,1,,,1
5e51cd7caf36f020b0209c7f,e2j8043xx3,Emily_Honors_Thesis_Part_2,1,181,2020-08-29T11:26:43-07:00,1.7668428421021,9,versionA_stim.csv,RL_JOLVersionA.csv,"RELATIONAL Version A",OLD,SLEEP,DROWSY,ON,B,41,64,Test,User,-,,Recall,Recall1,1295,,0,-1,-1,0,0,,,1
5e51cd7caf36f020b0209c7f,e2j8043xx3,Emily_Honors_Thesis_Part_2,1,182,2020-08-29T11:26:48-07:00,4.2808661460876,9,versionA_stim.csv,RL_JOLVersionA.csv,"RELATIONAL Version A",OLD,FULL,ENOUGH,ON,B,26,85,Test,User,-,,Recall,Recall1,3843,ENOUGH,100,2838,3635,1,1,,,1
5e51cd7caf36f020b0209c7f,e2j8043xx3,Emily_Honors_Thesis_Part_2,1,183,2020-08-29T11:26:51-07:00,2.9996209144592,9,versionA_stim.csv,RL_JOLVersionA.csv,"RELATIONAL Version A",OLD,POP,SODA,ON,S,56,79,Test,User,-,,Recall,Recall1,2591,SODA,100,1997,2491,1,1,,,1
5e51cd7caf36f020b0209c7f,e2j8043xx3,Emily_Honors_Thesis_Part_2,1,184,2020-08-29T11:26:54-07:00,2.8893361091614,9,versionA_stim.csv,RL_JOLVersionA.csv,"RELATIONAL Version A",OLD,HOT,CHILI,ON,B,37,81,Test,User,-,,Recall,Recall1,2482,,0,-1,-1,0,0,,,1
5e51cd7caf36f020b0209c7f,e2j8043xx3,Emily_Honors_Thesis_Part_2,1,185,2020-08-29T11:26:57-07:00,3.6744058132172,9,versionA_stim.csv,RL_JOLVersionA.csv,"RELATIONAL Version A",OLD,HIDE,SICK,ON,U,84,20,Test,User,-,,Recall,Recall1,2164,SEEK,50,1442,2007,0,0,,,1
5e51cd7caf36f020b0209c7f,e2j8043xx3,Emily_Honors_Thesis_Part_2,1,186,2020-08-29T11:27:00-07:00,2.4132189750671,9,versionA_stim.csv,RL_JOLVersionA.csv,"RELATIONAL Version A",OLD,DISCOVER,FLOOR,ON,U,71,78,Test,User,-,,Recall,Recall1,1987,,0,-1,-1,0,0,,,1
5e51cd7caf36f020b0209c7f,e2j8043xx3,Emily_Honors_Thesis_Part_2,1,187,2020-08-29T11:27:01-07:00,1.1122431755066,9,versionA_stim.csv,RL_JOLVersionA.csv,"RELATIONAL Version A",OLD,TRIAL,JURY,ON,S,50,23,Test,User,-,,Recall,Recall1,721,,0,-1,-1,0,0,,,1
5e51cd7caf36f020b0209c7f,e2j8043xx3,Emily_Honors_Thesis_Part_2,1,188,2020-08-29T11:27:02-07:00,1.3287389278412,9,versionA_stim.csv,RL_JOLVersionA.csv,"RELATIONAL Version A",OLD,PARK,HUNGRY,ON,U,68,75,Test,User,-,,Recall,Recall1,892,,0,-1,-1,0,0,,,1
5e51cd7caf36f020b0209c7f,e2j8043xx3,Emily_Honors_Thesis_Part_2,1,189,2020-08-29T11:27:06-07:00,4.0388219356537,9,versionA_stim.csv,RL_JOLVersionA.csv,"RELATIONAL Version A",OLD,GRILL,BAR,ON,S,52,86,Test,User,-,,Recall,Recall1,3581,OVEN,0,2480,3169,0,0,,,1
5e51cd7caf36f020b0209c7f,e2j8043xx3,Emily_Honors_Thesis_Part_2,1,190,2020-08-29T11:27:09-07:00,3.2728869915009,9,versionA_stim.csv,RL_JOLVersionA.csv,"RELATIONAL Version A",OLD,BATHROOM,TOILET,ON,S,58,76,Test,User,-,,Recall,Recall1,2716,TOILET,100,1724,2566,1,1,,,1
5e51cd7caf36f020b0209c7f,e2j8043xx3,Emily_Honors_Thesis_Part_2,1,191,2020-08-29T11:27:13-07:00,3.6355121135712,9,versionA_stim.csv,RL_JOLVersionA.csv,"RELATIONAL Version A",OLD,LETTUCE,SALAD,ON,S,59,24,Test,User,-,,Recall,Recall1,3188,SALAD,100,1349,3066,1,1,,,1
5e51cd7caf36f020b0209c7f,e2j8043xx3,Emily_Honors_Thesis_Part_2,1,192,2020-08-29T11:27:16-07:00,2.6614329814911,9,versionA_stim.csv,RL_JOLVersionA.csv,"RELATIONAL Version A",OLD,ORCHID,FLOWER,ON,F,24,43,Test,User,-,,Recall,Recall1,2261,FLOWER,100,1275,2061,1,1,,,1
5e51cd7caf36f020b0209c7f,e2j8043xx3,Emily_Honors_Thesis_Part_2,1,193,2020-08-29T11:27:17-07:00,1.6567499637604,9,versionA_stim.csv,RL_JOLVersionA.csv,"RELATIONAL Version A",OLD,DUMP,WASTE,ON,S,49,82,Test,User,-,,Recall,Recall1,1266,,0,-1,-1,0,0,,,1
5e51cd7caf36f020b0209c7f,e2j8043xx3,Emily_Honors_Thesis_Part_2,1,194,2020-08-29T11:27:20-07:00,2.2898230552673,9,versionA_stim.csv,RL_JOLVersionA.csv,"RELATIONAL Version A",OLD,LOCATION,SITE,ON,S,48,73,Test,User,-,,Recall,Recall1,1843,,0,-1,-1,0,0,,,1
5e51cd7caf36f020b0209c7f,e2j8043xx3,Emily_Honors_Thesis_Part_2,1,195,2020-08-29T11:27:37-07:00,17.614243984222,9,versionA_stim.csv,RL_JOLVersionA.csv,"RELATIONAL Version A",OLD,,,,,,0,Instruct,-,10,"You will now be presented with a new set of word pairs. Please study each pair. Remember that your memory will be tested! When finished, press Enter to move to the next pair.",Initial_Instruct,Instruct4,17077,,,-1,-1,,,,,0.57
5e51cd7caf36f020b0209c7f,e2j8043xx3,Emily_Honors_Thesis_Part_2,1,196,2020-08-29T11:29:18-07:00,100.327698946,9,versionA_stim.csv,RL_JOLVersionA.csv,"RELATIONAL Version A",OLD,,,,,,0,Instruct,,10,"You will again be asked to rate your ability to remember these items using a 0 to 100 scale. Remember to use the full range of the scale!",,Instruct10,99515,,,-1,-1,,,,,1
5e51cd7caf36f020b0209c7f,e2j8043xx3,Emily_Honors_Thesis_Part_2,1,197,2020-08-29T11:37:50-07:00,512.74142813683,9,versionA_stim.csv,RL_JOLVersionA.csv,"RELATIONAL Version A",OLD,,,,,,0,Instruct,-,15,"As you study and make your ratings, please think about how the two concepts are RELATED to each other. For example, if you see the pair TURTLE-CAT, think about how both are alive, they are both animals, and both can be kept as pets.",,Instruct20,511961,,,-1,-1,,,,,1
5e51cd7caf36f020b0209c7f,e2j8043xx3,Emily_Honors_Thesis_Part_2,1,198,2020-08-29T11:38:12-07:00,21.72439789772,9,versionA_stim.csv,RL_JOLVersionA.csv,"RELATIONAL Version A",OLD,,,,,,0,FreeRecall,-,10,"What you should think about as you study each item pair? Type your response in the box below.",,CHECK4,20979,"THE ASSOCIATION BETWEEN THE TWO WORDS IN THE PAIR ",0,5821,19762,0,0,,,1
5e51cd7caf36f020b0209c7f,e2j8043xx3,Emily_Honors_Thesis_Part_2,1,199,2020-08-29T11:38:14-07:00,2.0018589496613,9,versionA_stim.csv,RL_JOLVersionA.csv,"RELATIONAL Version A",OLD,,,,,,0,Instruct,User,-,"Press Enter when you are readty to begin",,Instruct11,1486,,,-1,-1,,,,,1
5e51cd7caf36f020b0209c7f,e2j8043xx3,Emily_Honors_Thesis_Part_2,1,200,2020-08-29T11:38:23-07:00,8.5180699825287,9,versionA_stim.csv,RL_JOLVersionA.csv,"RELATIONAL Version A",OLD,SPRING,MARCH,Buffer3,Buffer,179,96,JOL,User,-,"How likely are you to correctly recall the second item in the pair?|Type your response on a scale from 0-100 and then press Enter.",Study/JOL,BUFFER3,8034,,,5319,6986,,,,30,1
5e51cd7caf36f020b0209c7f,e2j8043xx3,Emily_Honors_Thesis_Part_2,1,201,2020-08-29T11:38:25-07:00,2.690770149231,9,versionA_stim.csv,RL_JOLVersionA.csv,"RELATIONAL Version A",OLD,TOOL,SHED,Buffer3,Buffer,178,94,JOL,User,-,"How likely are you to correctly recall the second item in the pair?|Type your response on a scale from 0-100 and then press Enter.",Study/JOL,BUFFER3,2260,,,1833,1996,,,,50,1
5e51cd7caf36f020b0209c7f,e2j8043xx3,Emily_Honors_Thesis_Part_2,1,202,2020-08-29T11:38:29-07:00,3.529412984848,9,versionA_stim.csv,RL_JOLVersionA.csv,"RELATIONAL Version A",OLD,ICE,FROZEN,Buffer3,Buffer,94,93,JOL,User,-,"How likely are you to correctly recall the second item in the pair?|Type your response on a scale from 0-100 and then press Enter.",Study/JOL,BUFFER3,3079,,,2516,2660,,,,90,1
5e51cd7caf36f020b0209c7f,e2j8043xx3,Emily_Honors_Thesis_Part_2,1,203,2020-08-29T11:38:33-07:00,4.1595139503479,9,versionA_stim.csv,RL_JOLVersionA.csv,"RELATIONAL Version A",OLD,OCTOBER,SPOOKY,Buffer3,Buffer,180,95,JOL,User,-,"How likely are you to correctly recall the second item in the pair?|Type your response on a scale from 0-100 and then press Enter.",Study/JOL,BUFFER3,3693,,,3080,3282,,,,70,1
5e51cd7caf36f020b0209c7f,e2j8043xx3,Emily_Honors_Thesis_Part_2,1,204,2020-08-29T11:38:36-07:00,3.31090092659,9,versionA_stim.csv,RL_JOLVersionA.csv,"RELATIONAL Version A",OLD,SHRIMP,FISH,Buffer3,Buffer,93,92,JOL,User,-,"How likely are you to correctly recall the second item in the pair?|Type your response on a scale from 0-100 and then press Enter.",Study/JOL,BUFFER3,2833,,,2347,2506,,,,60,1
5e51cd7caf36f020b0209c7f,e2j8043xx3,Emily_Honors_Thesis_Part_2,1,205,2020-08-29T11:38:41-07:00,4.3672399520874,9,versionA_stim.csv,RL_JOLVersionA.csv,"RELATIONAL Version A",OLD,LOAN,SIGN,ON2,U,171,97,JOL,User,-,"How likely are you to correctly recall the second item in the pair?|Type your response on a scale from 0-100 and then press Enter.",Study/JOL,"Study Phase2",3890,,,3665,3665,,,,0,1
5e51cd7caf36f020b0209c7f,e2j8043xx3,Emily_Honors_Thesis_Part_2,1,206,2020-08-29T11:38:45-07:00,4.1848931312561,9,versionA_stim.csv,RL_JOLVersionA.csv,"RELATIONAL Version A",OLD,SLEEP,NAP,ON2,B,134,120,JOL,User,-,"How likely are you to correctly recall the second item in the pair?|Type your response on a scale from 0-100 and then press Enter.",Study/JOL,"Study Phase2",3754,,,3331,3495,,,,70,1
5e51cd7caf36f020b0209c7f,e2j8043xx3,Emily_Honors_Thesis_Part_2,1,207,2020-08-29T11:38:53-07:00,8.1990659236908,9,versionA_stim.csv,RL_JOLVersionA.csv,"RELATIONAL Version A",OLD,ALONE,LONELY,ON2,S,145,156,JOL,User,-,"How likely are you to correctly recall the second item in the pair?|Type your response on a scale from 0-100 and then press Enter.",Study/JOL,"Study Phase2",7771,,,1544,6857,,,,60,1
5e51cd7caf36f020b0209c7f,e2j8043xx3,Emily_Honors_Thesis_Part_2,1,208,2020-08-29T11:39:06-07:00,12.661977052689,9,versionA_stim.csv,RL_JOLVersionA.csv,"RELATIONAL Version A",OLD,KEYS,JOKE,ON2,U,165,113,JOL,User,-,"How likely are you to correctly recall the second item in the pair?|Type your response on a scale from 0-100 and then press Enter.",Study/JOL,"Study Phase2",12180,,,11153,11153,,,,0,1
5e51cd7caf36f020b0209c7f,e2j8043xx3,Emily_Honors_Thesis_Part_2,1,209,2020-08-29T11:39:16-07:00,9.8724370002747,9,versionA_stim.csv,RL_JOLVersionA.csv,"RELATIONAL Version A",OLD,FISH,SARDINE,ON2,B,130,157,JOL,User,-,"How likely are you to correctly recall the second item in the pair?|Type your response on a scale from 0-100 and then press Enter.",Study/JOL,"Study Phase2",9328,,,2651,9126,,,,90,1
5e51cd7caf36f020b0209c7f,e2j8043xx3,Emily_Honors_Thesis_Part_2,1,210,2020-08-29T11:39:29-07:00,13.808146953583,9,versionA_stim.csv,RL_JOLVersionA.csv,"RELATIONAL Version A",OLD,MONEY,BANKER,ON2,B,132,119,JOL,User,-,"How likely are you to correctly recall the second item in the pair?|Type your response on a scale from 0-100 and then press Enter.",Study/JOL,"Study Phase2",13350,,,2116,2555,,,,70,1
5e51cd7caf36f020b0209c7f,e2j8043xx3,Emily_Honors_Thesis_Part_2,1,211,2020-08-29T11:39:32-07:00,2.8486659526825,9,versionA_stim.csv,RL_JOLVersionA.csv,"RELATIONAL Version A",OLD,GLASS,BREAKABLE,ON2,B,127,114,JOL,User,-,"How likely are you to correctly recall the second item in the pair?|Type your response on a scale from 0-100 and then press Enter.",Study/JOL,"Study Phase2",2428,,,2005,2168,,,,60,1
5e51cd7caf36f020b0209c7f,e2j8043xx3,Emily_Honors_Thesis_Part_2,1,212,2020-08-29T11:39:37-07:00,5.1661570072174,9,versionA_stim.csv,RL_JOLVersionA.csv,"RELATIONAL Version A",OLD,CAR,WINDSHIELD,ON2,B,117,154,JOL,User,-,"How likely are you to correctly recall the second item in the pair?|Type your response on a scale from 0-100 and then press Enter.",Study/JOL,"Study Phase2",4688,,,2783,4356,,,,30,1
5e51cd7caf36f020b0209c7f,e2j8043xx3,Emily_Honors_Thesis_Part_2,1,213,2020-08-29T11:39:42-07:00,5.0897960662842,9,versionA_stim.csv,RL_JOLVersionA.csv,"RELATIONAL Version A",OLD,STAR,ACTRESS,ON2,B,120,112,JOL,User,-,"How likely are you to correctly recall the second item in the pair?|Type your response on a scale from 0-100 and then press Enter.",Study/JOL,"Study Phase2",4673,,,4240,4421,,,,40,1
5e51cd7caf36f020b0209c7f,e2j8043xx3,Emily_Honors_Thesis_Part_2,1,214,2020-08-29T11:39:46-07:00,3.9079549312592,9,versionA_stim.csv,RL_JOLVersionA.csv,"RELATIONAL Version A",OLD,DEAD,COFFIN,ON2,B,128,162,JOL,User,-,"How likely are you to correctly recall the second item in the pair?|Type your response on a scale from 0-100 and then press Enter.",Study/JOL,"Study Phase2",3498,,,1676,2018,,,,50,1
5e51cd7caf36f020b0209c7f,e2j8043xx3,Emily_Honors_Thesis_Part_2,1,215,2020-08-29T11:39:51-07:00,5.1059670448303,9,versionA_stim.csv,RL_JOLVersionA.csv,"RELATIONAL Version A",OLD,SHOELACE,TIE,ON2,F,99,172,JOL,User,-,"How likely are you to correctly recall the second item in the pair?|Type your response on a scale from 0-100 and then press Enter.",Study/JOL,"Study Phase2",4659,,,3621,4306,,,,30,1
5e51cd7caf36f020b0209c7f,e2j8043xx3,Emily_Honors_Thesis_Part_2,1,216,2020-08-29T11:39:56-07:00,4.4557580947876,9,versionA_stim.csv,RL_JOLVersionA.csv,"RELATIONAL Version A",OLD,BASEBALL,LEAGUE,ON2,B,131,153,JOL,User,-,"How likely are you to correctly recall the second item in the pair?|Type your response on a scale from 0-100 and then press Enter.",Study/JOL,"Study Phase2",3997,,,1534,3728,,,,70,1
5e51cd7caf36f020b0209c7f,e2j8043xx3,Emily_Honors_Thesis_Part_2,1,217,2020-08-29T11:40:04-07:00,7.7781538963318,9,versionA_stim.csv,RL_JOLVersionA.csv,"RELATIONAL Version A",OLD,NAME,HATE,ON2,U,167,123,JOL,User,-,"How likely are you to correctly recall the second item in the pair?|Type your response on a scale from 0-100 and then press Enter.",Study/JOL,"Study Phase2",7345,,,4112,4112,,,,0,1
5e51cd7caf36f020b0209c7f,e2j8043xx3,Emily_Honors_Thesis_Part_2,1,218,2020-08-29T11:40:15-07:00,10.966074943542,9,versionA_stim.csv,RL_JOLVersionA.csv,"RELATIONAL Version A",OLD,EARTH,GROUND,ON2,S,144,148,JOL,User,-,"How likely are you to correctly recall the second item in the pair?|Type your response on a scale from 0-100 and then press Enter.",Study/JOL,"Study Phase2",10418,,,9883,10019,,,,50,1
5e51cd7caf36f020b0209c7f,e2j8043xx3,Emily_Honors_Thesis_Part_2,1,219,2020-08-29T11:40:18-07:00,3.5079641342163,9,versionA_stim.csv,RL_JOLVersionA.csv,"RELATIONAL Version A",OLD,SHELL,SHAKE,ON2,U,163,152,JOL,User,-,"How likely are you to correctly recall the second item in the pair?|Type your response on a scale from 0-100 and then press Enter.",Study/JOL,"Study Phase2",2975,,,2197,2198,,,,0,1
5e51cd7caf36f020b0209c7f,e2j8043xx3,Emily_Honors_Thesis_Part_2,1,220,2020-08-29T11:40:20-07:00,1.8399770259857,9,versionA_stim.csv,RL_JOLVersionA.csv,"RELATIONAL Version A",OLD,MIRROR,CHILDREN,ON2,U,174,128,JOL,User,-,"How likely are you to correctly recall the second item in the pair?|Type your response on a scale from 0-100 and then press Enter.",Study/JOL,"Study Phase2",1393,,,-1,-1,,,,,1
5e51cd7caf36f020b0209c7f,e2j8043xx3,Emily_Honors_Thesis_Part_2,1,221,2020-08-29T11:40:25-07:00,4.77024102211,9,versionA_stim.csv,RL_JOLVersionA.csv,"RELATIONAL Version A",OLD,SUN,TAN,ON2,S,155,121,JOL,User,-,"How likely are you to correctly recall the second item in the pair?|Type your response on a scale from 0-100 and then press Enter.",Study/JOL,"Study Phase2",4303,,,3827,3984,,,,60,1
5e51cd7caf36f020b0209c7f,e2j8043xx3,Emily_Honors_Thesis_Part_2,1,222,2020-08-29T11:40:27-07:00,2.7243850231171,9,versionA_stim.csv,RL_JOLVersionA.csv,"RELATIONAL Version A",OLD,BAD,VILLAIN,ON2,B,118,129,JOL,User,-,"How likely are you to correctly recall the second item in the pair?|Type your response on a scale from 0-100 and then press Enter.",Study/JOL,"Study Phase2",2304,,,1877,2073,,,,90,1
5e51cd7caf36f020b0209c7f,e2j8043xx3,Emily_Honors_Thesis_Part_2,1,223,2020-08-29T11:40:33-07:00,5.8817780017853,9,versionA_stim.csv,RL_JOLVersionA.csv,"RELATIONAL Version A",OLD,BIRD,PENGUIN,ON2,B,119,144,JOL,User,-,"How likely are you to correctly recall the second item in the pair?|Type your response on a scale from 0-100 and then press Enter.",Study/JOL,"Study Phase2",5458,,,5036,5167,,,,60,1
5e51cd7caf36f020b0209c7f,e2j8043xx3,Emily_Honors_Thesis_Part_2,1,224,2020-08-29T11:40:35-07:00,1.7972149848938,9,versionA_stim.csv,RL_JOLVersionA.csv,"RELATIONAL Version A",OLD,CAKE,CLOTHES,ON2,U,166,146,JOL,User,-,"How likely are you to correctly recall the second item in the pair?|Type your response on a scale from 0-100 and then press Enter.",Study/JOL,"Study Phase2",1325,,,1087,1087,,,,0,1
5e51cd7caf36f020b0209c7f,e2j8043xx3,Emily_Honors_Thesis_Part_2,1,225,2020-08-29T11:40:41-07:00,5.7314758300781,9,versionA_stim.csv,RL_JOLVersionA.csv,"RELATIONAL Version A",OLD,THREAD,THIMBLE,ON2,B,121,170,JOL,User,-,"How likely are you to correctly recall the second item in the pair?|Type your response on a scale from 0-100 and then press Enter.",Study/JOL,"Study Phase2",5278,,,1934,4768,,,,20,1
5e51cd7caf36f020b0209c7f,e2j8043xx3,Emily_Honors_Thesis_Part_2,1,226,2020-08-29T11:40:45-07:00,3.6192371845245,9,versionA_stim.csv,RL_JOLVersionA.csv,"RELATIONAL Version A",OLD,MAIN,SCAR,ON2,U,175,161,JOL,User,-,"How likely are you to correctly recall the second item in the pair?|Type your response on a scale from 0-100 and then press Enter.",Study/JOL,"Study Phase2",3198,,,2941,2941,,,,0,1
5e51cd7caf36f020b0209c7f,e2j8043xx3,Emily_Honors_Thesis_Part_2,1,227,2020-08-29T11:40:48-07:00,3.4978148937225,9,versionA_stim.csv,RL_JOLVersionA.csv,"RELATIONAL Version A",OLD,RIGHTS,EQUAL,ON2,S,137,136,JOL,User,-,"How likely are you to correctly recall the second item in the pair?|Type your response on a scale from 0-100 and then press Enter.",Study/JOL,"Study Phase2",3070,,,2664,2812,,,,40,1
5e51cd7caf36f020b0209c7f,e2j8043xx3,Emily_Honors_Thesis_Part_2,1,228,2020-08-29T11:40:51-07:00,2.5500199794769,9,versionA_stim.csv,RL_JOLVersionA.csv,"RELATIONAL Version A",OLD,BEST,FAVORITE,ON2,B,125,115,JOL,User,-,"How likely are you to correctly recall the second item in the pair?|Type your response on a scale from 0-100 and then press Enter.",Study/JOL,"Study Phase2",2108,,,1571,1671,,,,70,1
5e51cd7caf36f020b0209c7f,e2j8043xx3,Emily_Honors_Thesis_Part_2,1,229,2020-08-29T11:40:55-07:00,4.5823919773102,9,versionA_stim.csv,RL_JOLVersionA.csv,"RELATIONAL Version A",OLD,LISTEN,FICTION,ON2,U,164,105,JOL,User,-,"How likely are you to correctly recall the second item in the pair?|Type your response on a scale from 0-100 and then press Enter.",Study/JOL,"Study Phase2",4149,,,2147,3935,,,,0,1
5e51cd7caf36f020b0209c7f,e2j8043xx3,Emily_Honors_Thesis_Part_2,1,230,2020-08-29T11:41:01-07:00,6.1196110248566,9,versionA_stim.csv,RL_JOLVersionA.csv,"RELATIONAL Version A",OLD,HONEST,TRUTHFUL,ON2,B,133,133,JOL,User,-,"How likely are you to correctly recall the second item in the pair?|Type your response on a scale from 0-100 and then press Enter.",Study/JOL,"Study Phase2",5674,,,2572,5293,,,,80,1
5e51cd7caf36f020b0209c7f,e2j8043xx3,Emily_Honors_Thesis_Part_2,1,231,2020-08-29T11:41:12-07:00,10.868094921112,9,versionA_stim.csv,RL_JOLVersionA.csv,"RELATIONAL Version A",OLD,DINE,EAT,ON2,F,111,174,JOL,User,-,"How likely are you to correctly recall the second item in the pair?|Type your response on a scale from 0-100 and then press Enter.",Study/JOL,"Study Phase2",10407,,,9516,9727,,,,70,1
5e51cd7caf36f020b0209c7f,e2j8043xx3,Emily_Honors_Thesis_Part_2,1,232,2020-08-29T11:41:15-07:00,2.4603111743927,9,versionA_stim.csv,RL_JOLVersionA.csv,"RELATIONAL Version A",OLD,ROD,REEL,ON2,S,150,138,JOL,User,-,"How likely are you to correctly recall the second item in the pair?|Type your response on a scale from 0-100 and then press Enter.",Study/JOL,"Study Phase2",1969,,,1523,1523,,,,0,1
5e51cd7caf36f020b0209c7f,e2j8043xx3,Emily_Honors_Thesis_Part_2,1,233,2020-08-29T11:41:26-07:00,11.618007898331,9,versionA_stim.csv,RL_JOLVersionA.csv,"RELATIONAL Version A",OLD,DRIVER,CAR,ON2,F,106,166,JOL,User,-,"How likely are you to correctly recall the second item in the pair?|Type your response on a scale from 0-100 and then press Enter.",Study/JOL,"Study Phase2",11094,,,4407,10680,,,,80,1
5e51cd7caf36f020b0209c7f,e2j8043xx3,Emily_Honors_Thesis_Part_2,1,234,2020-08-29T11:41:34-07:00,8.0367939472198,9,versionA_stim.csv,RL_JOLVersionA.csv,"RELATIONAL Version A",OLD,FURRY,DOG,ON2,F,102,103,JOL,User,-,"How likely are you to correctly recall the second item in the pair?|Type your response on a scale from 0-100 and then press Enter.",Study/JOL,"Study Phase2",7600,,,3143,7061,,,,50,1
5e51cd7caf36f020b0209c7f,e2j8043xx3,Emily_Honors_Thesis_Part_2,1,235,2020-08-29T11:41:37-07:00,2.6562061309814,9,versionA_stim.csv,RL_JOLVersionA.csv,"RELATIONAL Version A",OLD,LEASE,TOIL,ON2,U,170,111,JOL,User,-,"How likely are you to correctly recall the second item in the pair?|Type your response on a scale from 0-100 and then press Enter.",Study/JOL,"Study Phase2",2213,,,1815,1815,,,,0,1
5e51cd7caf36f020b0209c7f,e2j8043xx3,Emily_Honors_Thesis_Part_2,1,236,2020-08-29T11:41:41-07:00,4.1939899921417,9,versionA_stim.csv,RL_JOLVersionA.csv,"RELATIONAL Version A",OLD,TURN,FLIP,ON2,B,116,102,JOL,User,-,"How likely are you to correctly recall the second item in the pair?|Type your response on a scale from 0-100 and then press Enter.",Study/JOL,"Study Phase2",3761,,,3541,3541,,,,0,1
5e51cd7caf36f020b0209c7f,e2j8043xx3,Emily_Honors_Thesis_Part_2,1,237,2020-08-29T11:41:48-07:00,6.645947933197,9,versionA_stim.csv,RL_JOLVersionA.csv,"RELATIONAL Version A",OLD,TEMPERATURE,MORNING,ON2,U,173,159,JOL,User,-,"How likely are you to correctly recall the second item in the pair?|Type your response on a scale from 0-100 and then press Enter.",Study/JOL,"Study Phase2",6189,,,5919,5919,,,,0,1
5e51cd7caf36f020b0209c7f,e2j8043xx3,Emily_Honors_Thesis_Part_2,1,238,2020-08-29T11:41:56-07:00,7.932599067688,9,versionA_stim.csv,RL_JOLVersionA.csv,"RELATIONAL Version A",OLD,CHERRY,RED,ON2,F,104,151,JOL,User,-,"How likely are you to correctly recall the second item in the pair?|Type your response on a scale from 0-100 and then press Enter.",Study/JOL,"Study Phase2",7449,,,6920,7112,,,,80,1
5e51cd7caf36f020b0209c7f,e2j8043xx3,Emily_Honors_Thesis_Part_2,1,239,2020-08-29T11:42:19-07:00,23.531105041504,9,versionA_stim.csv,RL_JOLVersionA.csv,"RELATIONAL Version A",OLD,,,,,,0,Instruct,-,3,"Remember to focus on how the two items are similiar while you study and make your ratings!",,CHECK5,21956,,,-1,-1,,,,,1
5e51cd7caf36f020b0209c7f,e2j8043xx3,Emily_Honors_Thesis_Part_2,1,240,2020-08-29T11:42:39-07:00,20.066088914871,9,versionA_stim.csv,RL_JOLVersionA.csv,"RELATIONAL Version A",OLD,INCENSE,SMELL,ON2,F,110,175,JOL,User,-,"How likely are you to correctly recall the second item in the pair?|Type your response on a scale from 0-100 and then press Enter.",Study/JOL,"Study Phase2",19511,,,17940,19032,,,,80,0.459
5e51cd7caf36f020b0209c7f,e2j8043xx3,Emily_Honors_Thesis_Part_2,1,241,2020-08-29T11:42:54-07:00,14.435110092163,9,versionA_stim.csv,RL_JOLVersionA.csv,"RELATIONAL Version A",OLD,POP,BALLOON,ON2,B,123,163,JOL,User,-,"How likely are you to correctly recall the second item in the pair?|Type your response on a scale from 0-100 and then press Enter.",Study/JOL,"Study Phase2",13995,,,9385,13664,,,,30,1
5e51cd7caf36f020b0209c7f,e2j8043xx3,Emily_Honors_Thesis_Part_2,1,242,2020-08-29T11:42:56-07:00,2.5638399124146,9,versionA_stim.csv,RL_JOLVersionA.csv,"RELATIONAL Version A",OLD,JUSTICE,MAROON,ON2,U,156,122,JOL,User,-,"How likely are you to correctly recall the second item in the pair?|Type your response on a scale from 0-100 and then press Enter.",Study/JOL,"Study Phase2",1932,,,1298,1298,,,,0,1
5e51cd7caf36f020b0209c7f,e2j8043xx3,Emily_Honors_Thesis_Part_2,1,243,2020-08-29T11:43:02-07:00,5.3984470367432,9,versionA_stim.csv,RL_JOLVersionA.csv,"RELATIONAL Version A",OLD,EXTENSION,LONG,ON2,F,96,116,JOL,User,-,"How likely are you to correctly recall the second item in the pair?|Type your response on a scale from 0-100 and then press Enter.",Study/JOL,"Study Phase2",4939,,,4599,4721,,,,50,1
5e51cd7caf36f020b0209c7f,e2j8043xx3,Emily_Honors_Thesis_Part_2,1,244,2020-08-29T11:43:05-07:00,3.6949849128723,9,versionA_stim.csv,RL_JOLVersionA.csv,"RELATIONAL Version A",OLD,CLUE,GAME,ON2,F,97,176,JOL,User,-,"How likely are you to correctly recall the second item in the pair?|Type your response on a scale from 0-100 and then press Enter.",Study/JOL,"Study Phase2",2257,,,2035,2035,,,,0,1
5e51cd7caf36f020b0209c7f,e2j8043xx3,Emily_Honors_Thesis_Part_2,1,245,2020-08-29T11:43:09-07:00,3.7433550357819,9,versionA_stim.csv,RL_JOLVersionA.csv,"RELATIONAL Version A",OLD,STRETCH,CLOTH,ON2,U,157,137,JOL,User,-,"How likely are you to correctly recall the second item in the pair?|Type your response on a scale from 0-100 and then press Enter.",Study/JOL,"Study Phase2",3241,,,2374,2811,,,,20,1
5e51cd7caf36f020b0209c7f,e2j8043xx3,Emily_Honors_Thesis_Part_2,1,246,2020-08-29T11:43:14-07:00,4.8733050823212,9,versionA_stim.csv,RL_JOLVersionA.csv,"RELATIONAL Version A",OLD,MAZE,ELECTION,ON2,U,159,155,JOL,User,-,"How likely are you to correctly recall the second item in the pair?|Type your response on a scale from 0-100 and then press Enter.",Study/JOL,"Study Phase2",4385,,,3564,3564,,,,0,1
5e51cd7caf36f020b0209c7f,e2j8043xx3,Emily_Honors_Thesis_Part_2,1,247,2020-08-29T11:43:18-07:00,3.9549720287323,9,versionA_stim.csv,RL_JOLVersionA.csv,"RELATIONAL Version A",OLD,SCALP,HEAD,ON2,F,105,168,JOL,User,-,"How likely are you to correctly recall the second item in the pair?|Type your response on a scale from 0-100 and then press Enter.",Study/JOL,"Study Phase2",3491,,,2793,3099,,,,60,1
5e51cd7caf36f020b0209c7f,e2j8043xx3,Emily_Honors_Thesis_Part_2,1,248,2020-08-29T11:43:23-07:00,4.8203067779541,9,versionA_stim.csv,RL_JOLVersionA.csv,"RELATIONAL Version A",OLD,WATER,DRINK,ON2,S,143,150,JOL,User,-,"How likely are you to correctly recall the second item in the pair?|Type your response on a scale from 0-100 and then press Enter.",Study/JOL,"Study Phase2",4377,,,3771,3982,,,,80,1
5e51cd7caf36f020b0209c7f,e2j8043xx3,Emily_Honors_Thesis_Part_2,1,249,2020-08-29T11:43:27-07:00,4.4850730895996,9,versionA_stim.csv,RL_JOLVersionA.csv,"RELATIONAL Version A",OLD,CACTUS,PLANT,ON2,F,98,158,JOL,User,-,"How likely are you to correctly recall the second item in the pair?|Type your response on a scale from 0-100 and then press Enter.",Study/JOL,"Study Phase2",4092,,,3704,3889,,,,60,1
5e51cd7caf36f020b0209c7f,e2j8043xx3,Emily_Honors_Thesis_Part_2,1,250,2020-08-29T11:43:35-07:00,7.750186920166,9,versionA_stim.csv,RL_JOLVersionA.csv,"RELATIONAL Version A",OLD,PLANE,AIRCRAFT,ON2,B,129,141,JOL,User,-,"How likely are you to correctly recall the second item in the pair?|Type your response on a scale from 0-100 and then press Enter.",Study/JOL,"Study Phase2",7332,,,6714,6921,,,,70,1
5e51cd7caf36f020b0209c7f,e2j8043xx3,Emily_Honors_Thesis_Part_2,1,251,2020-08-29T11:43:37-07:00,1.8319480419159,9,versionA_stim.csv,RL_JOLVersionA.csv,"RELATIONAL Version A",OLD,CRACKLE,ABLE,ON2,U,162,147,JOL,User,-,"How likely are you to correctly recall the second item in the pair?|Type your response on a scale from 0-100 and then press Enter.",Study/JOL,"Study Phase2",1372,,,1080,1080,,,,0,1
5e51cd7caf36f020b0209c7f,e2j8043xx3,Emily_Honors_Thesis_Part_2,1,252,2020-08-29T11:43:40-07:00,2.9495251178741,9,versionA_stim.csv,RL_JOLVersionA.csv,"RELATIONAL Version A",OLD,FRUIT,STRAWBERRY,ON2,B,124,149,JOL,User,-,"How likely are you to correctly recall the second item in the pair?|Type your response on a scale from 0-100 and then press Enter.",Study/JOL,"Study Phase2",2490,,,2081,2260,,,,70,1
5e51cd7caf36f020b0209c7f,e2j8043xx3,Emily_Honors_Thesis_Part_2,1,253,2020-08-29T11:43:42-07:00,2.0264668464661,9,versionA_stim.csv,RL_JOLVersionA.csv,"RELATIONAL Version A",OLD,RAZOR,SHAVE,ON2,S,136,127,JOL,User,-,"How likely are you to correctly recall the second item in the pair?|Type your response on a scale from 0-100 and then press Enter.",Study/JOL,"Study Phase2",1561,,,1264,1376,,,,80,1
5e51cd7caf36f020b0209c7f,e2j8043xx3,Emily_Honors_Thesis_Part_2,1,254,2020-08-29T11:43:45-07:00,2.7600240707397,9,versionA_stim.csv,RL_JOLVersionA.csv,"RELATIONAL Version A",OLD,FEUD,FIGHT,ON2,F,113,164,JOL,User,-,"How likely are you to correctly recall the second item in the pair?|Type your response on a scale from 0-100 and then press Enter.",Study/JOL,"Study Phase2",2324,,,1906,2057,,,,70,1
5e51cd7caf36f020b0209c7f,e2j8043xx3,Emily_Honors_Thesis_Part_2,1,255,2020-08-29T11:43:48-07:00,3.4208450317383,9,versionA_stim.csv,RL_JOLVersionA.csv,"RELATIONAL Version A",OLD,FUZZY,BANG,ON2,U,168,134,JOL,User,-,"How likely are you to correctly recall the second item in the pair?|Type your response on a scale from 0-100 and then press Enter.",Study/JOL,"Study Phase2",3001,,,1956,2800,,,,10,1
5e51cd7caf36f020b0209c7f,e2j8043xx3,Emily_Honors_Thesis_Part_2,1,256,2020-08-29T11:43:51-07:00,2.9357249736786,9,versionA_stim.csv,RL_JOLVersionA.csv,"RELATIONAL Version A",OLD,FLEA,TICK,ON2,S,151,108,JOL,User,-,"How likely are you to correctly recall the second item in the pair?|Type your response on a scale from 0-100 and then press Enter.",Study/JOL,"Study Phase2",2498,,,2177,2331,,,,90,1
5e51cd7caf36f020b0209c7f,e2j8043xx3,Emily_Honors_Thesis_Part_2,1,257,2020-08-29T11:43:54-07:00,3.5328640937805,9,versionA_stim.csv,RL_JOLVersionA.csv,"RELATIONAL Version A",OLD,CHILL,COLD,ON2,F,114,110,JOL,User,-,"How likely are you to correctly recall the second item in the pair?|Type your response on a scale from 0-100 and then press Enter.",Study/JOL,"Study Phase2",3036,,,2586,2895,,,,100,1
5e51cd7caf36f020b0209c7f,e2j8043xx3,Emily_Honors_Thesis_Part_2,1,258,2020-08-29T11:43:57-07:00,2.8803520202637,9,versionA_stim.csv,RL_JOLVersionA.csv,"RELATIONAL Version A",OLD,LOUD,NOISE,ON2,S,152,139,JOL,User,-,"How likely are you to correctly recall the second item in the pair?|Type your response on a scale from 0-100 and then press Enter.",Study/JOL,"Study Phase2",2446,,,827,2237,,,,100,1
5e51cd7caf36f020b0209c7f,e2j8043xx3,Emily_Honors_Thesis_Part_2,1,259,2020-08-29T11:44:01-07:00,3.5043709278107,9,versionA_stim.csv,RL_JOLVersionA.csv,"RELATIONAL Version A",OLD,BOTH,OUNCE,ON2,U,172,106,JOL,User,-,"How likely are you to correctly recall the second item in the pair?|Type your response on a scale from 0-100 and then press Enter.",Study/JOL,"Study Phase2",3072,,,2862,2862,,,,0,1
5e51cd7caf36f020b0209c7f,e2j8043xx3,Emily_Honors_Thesis_Part_2,1,260,2020-08-29T11:44:08-07:00,7.240630865097,9,versionA_stim.csv,RL_JOLVersionA.csv,"RELATIONAL Version A",OLD,TANTRUM,TEMPER,ON2,S,154,142,JOL,User,-,"How likely are you to correctly recall the second item in the pair?|Type your response on a scale from 0-100 and then press Enter.",Study/JOL,"Study Phase2",6797,,,4349,6564,,,,40,1
5e51cd7caf36f020b0209c7f,e2j8043xx3,Emily_Honors_Thesis_Part_2,1,261,2020-08-29T11:44:12-07:00,3.8964622020721,9,versionA_stim.csv,RL_JOLVersionA.csv,"RELATIONAL Version A",OLD,MASON,JAR,ON2,S,138,160,JOL,User,-,"How likely are you to correctly recall the second item in the pair?|Type your response on a scale from 0-100 and then press Enter.",Study/JOL,"Study Phase2",3490,,,2788,2964,,,,60,1
5e51cd7caf36f020b0209c7f,e2j8043xx3,Emily_Honors_Thesis_Part_2,1,262,2020-08-29T11:44:31-07:00,19.219215869904,9,versionA_stim.csv,RL_JOLVersionA.csv,"RELATIONAL Version A",OLD,MOAT,CLEAR,ON2,U,169,98,JOL,User,-,"How likely are you to correctly recall the second item in the pair?|Type your response on a scale from 0-100 and then press Enter.",Study/JOL,"Study Phase2",18775,,,18340,18340,,,,0,1
5e51cd7caf36f020b0209c7f,e2j8043xx3,Emily_Honors_Thesis_Part_2,1,263,2020-08-29T11:44:37-07:00,6.0587930679321,9,versionA_stim.csv,RL_JOLVersionA.csv,"RELATIONAL Version A",OLD,SAFETY,SEATBELT,ON2,S,147,104,JOL,User,-,"How likely are you to correctly recall the second item in the pair?|Type your response on a scale from 0-100 and then press Enter.",Study/JOL,"Study Phase2",5552,,,4387,4953,,,,50,1
5e51cd7caf36f020b0209c7f,e2j8043xx3,Emily_Honors_Thesis_Part_2,1,264,2020-08-29T11:44:46-07:00,8.5948898792267,9,versionA_stim.csv,RL_JOLVersionA.csv,"RELATIONAL Version A",OLD,DOCUMENT,PAPER,ON2,F,109,132,JOL,User,-,"How likely are you to correctly recall the second item in the pair?|Type your response on a scale from 0-100 and then press Enter.",Study/JOL,"Study Phase2",8121,,,2360,6473,,,,10,1
5e51cd7caf36f020b0209c7f,e2j8043xx3,Emily_Honors_Thesis_Part_2,1,265,2020-08-29T11:44:59-07:00,12.747632026672,9,versionA_stim.csv,RL_JOLVersionA.csv,"RELATIONAL Version A",OLD,DRY,WET,ON2,S,146,145,JOL,User,-,"How likely are you to correctly recall the second item in the pair?|Type your response on a scale from 0-100 and then press Enter.",Study/JOL,"Study Phase2",12314,,,11683,11683,,,,0,1
5e51cd7caf36f020b0209c7f,e2j8043xx3,Emily_Honors_Thesis_Part_2,1,266,2020-08-29T11:45:02-07:00,3.4091610908508,9,versionA_stim.csv,RL_JOLVersionA.csv,"RELATIONAL Version A",OLD,TRUTH,LIE,ON2,S,148,99,JOL,User,-,"How likely are you to correctly recall the second item in the pair?|Type your response on a scale from 0-100 and then press Enter.",Study/JOL,"Study Phase2",3002,,,2005,2603,,,,50,1
5e51cd7caf36f020b0209c7f,e2j8043xx3,Emily_Honors_Thesis_Part_2,1,267,2020-08-29T11:45:21-07:00,18.856106996536,9,versionA_stim.csv,RL_JOLVersionA.csv,"RELATIONAL Version A",OLD,WRIST,BRACELET,ON2,S,140,171,JOL,User,-,"How likely are you to correctly recall the second item in the pair?|Type your response on a scale from 0-100 and then press Enter.",Study/JOL,"Study Phase2",18412,,,13488,18113,,,,60,1
5e51cd7caf36f020b0209c7f,e2j8043xx3,Emily_Honors_Thesis_Part_2,1,268,2020-08-29T11:45:24-07:00,3.6152939796448,9,versionA_stim.csv,RL_JOLVersionA.csv,"RELATIONAL Version A",OLD,DETECTIVE,MYSTERY,ON2,F,100,117,JOL,User,-,"How likely are you to correctly recall the second item in the pair?|Type your response on a scale from 0-100 and then press Enter.",Study/JOL,"Study Phase2",2973,,,2656,2788,,,,90,1
5e51cd7caf36f020b0209c7f,e2j8043xx3,Emily_Honors_Thesis_Part_2,1,269,2020-08-29T11:45:27-07:00,2.5275609493256,9,versionA_stim.csv,RL_JOLVersionA.csv,"RELATIONAL Version A",OLD,MEAT,OBTAIN,ON2,U,161,131,JOL,User,-,"How likely are you to correctly recall the second item in the pair?|Type your response on a scale from 0-100 and then press Enter.",Study/JOL,"Study Phase2",1722,,,1228,1228,,,,0,1
5e51cd7caf36f020b0209c7f,e2j8043xx3,Emily_Honors_Thesis_Part_2,1,270,2020-08-29T11:45:36-07:00,9.0497341156006,9,versionA_stim.csv,RL_JOLVersionA.csv,"RELATIONAL Version A",OLD,CANDLE,WAX,ON2,S,139,173,JOL,User,-,"How likely are you to correctly recall the second item in the pair?|Type your response on a scale from 0-100 and then press Enter.",Study/JOL,"Study Phase2",8556,,,2386,8123,,,,70,1
5e51cd7caf36f020b0209c7f,e2j8043xx3,Emily_Honors_Thesis_Part_2,1,271,2020-08-29T11:45:42-07:00,5.788008928299,9,versionA_stim.csv,RL_JOLVersionA.csv,"RELATIONAL Version A",OLD,GONE,AWAY,ON2,S,142,126,JOL,User,-,"How likely are you to correctly recall the second item in the pair?|Type your response on a scale from 0-100 and then press Enter.",Study/JOL,"Study Phase2",5377,,,4858,4858,,,,0,1
5e51cd7caf36f020b0209c7f,e2j8043xx3,Emily_Honors_Thesis_Part_2,1,272,2020-08-29T11:46:19-07:00,37.28086400032,9,versionA_stim.csv,RL_JOLVersionA.csv,"RELATIONAL Version A",OLD,FIGHT,BRAWL,ON2,B,135,109,JOL,User,-,"How likely are you to correctly recall the second item in the pair?|Type your response on a scale from 0-100 and then press Enter.",Study/JOL,"Study Phase2",36843,,,34596,36546,,,,80,1
5e51cd7caf36f020b0209c7f,e2j8043xx3,Emily_Honors_Thesis_Part_2,1,273,2020-08-29T11:46:41-07:00,22.297774076462,9,versionA_stim.csv,RL_JOLVersionA.csv,"RELATIONAL Version A",OLD,VEHICLE,CHARM,ON2,U,160,107,JOL,User,-,"How likely are you to correctly recall the second item in the pair?|Type your response on a scale from 0-100 and then press Enter.",Study/JOL,"Study Phase2",21757,,,1282,1283,,,,0,1
5e51cd7caf36f020b0209c7f,e2j8043xx3,Emily_Honors_Thesis_Part_2,1,274,2020-08-29T11:46:49-07:00,7.4525220394135,9,versionA_stim.csv,RL_JOLVersionA.csv,"RELATIONAL Version A",OLD,MULE,DONKEY,ON2,F,108,100,JOL,User,-,"How likely are you to correctly recall the second item in the pair?|Type your response on a scale from 0-100 and then press Enter.",Study/JOL,"Study Phase2",6948,,,6551,6690,,,,50,1
5e51cd7caf36f020b0209c7f,e2j8043xx3,Emily_Honors_Thesis_Part_2,1,275,2020-08-29T11:47:08-07:00,19.08766579628,9,versionA_stim.csv,RL_JOLVersionA.csv,"RELATIONAL Version A",OLD,PHONE,COMMUNICATION,ON2,S,149,130,JOL,User,-,"How likely are you to correctly recall the second item in the pair?|Type your response on a scale from 0-100 and then press Enter.",Study/JOL,"Study Phase2",18597,,,12056,12519,,,,60,1
5e51cd7caf36f020b0209c7f,e2j8043xx3,Emily_Honors_Thesis_Part_2,1,276,2020-08-29T11:47:11-07:00,2.8022930622101,9,versionA_stim.csv,RL_JOLVersionA.csv,"RELATIONAL Version A",OLD,ADJOURN,END,ON2,F,101,165,JOL,User,-,"How likely are you to correctly recall the second item in the pair?|Type your response on a scale from 0-100 and then press Enter.",Study/JOL,"Study Phase2",2275,,,1483,1483,,,,0,1
5e51cd7caf36f020b0209c7f,e2j8043xx3,Emily_Honors_Thesis_Part_2,1,277,2020-08-29T11:47:15-07:00,3.8031489849091,9,versionA_stim.csv,RL_JOLVersionA.csv,"RELATIONAL Version A",OLD,CAT,PANTHER,ON2,B,126,169,JOL,User,-,"How likely are you to correctly recall the second item in the pair?|Type your response on a scale from 0-100 and then press Enter.",Study/JOL,"Study Phase2",3335,,,1883,3097,,,,70,1
5e51cd7caf36f020b0209c7f,e2j8043xx3,Emily_Honors_Thesis_Part_2,1,278,2020-08-29T11:47:18-07:00,3.909511089325,9,versionA_stim.csv,RL_JOLVersionA.csv,"RELATIONAL Version A",OLD,AFFECTION,LOVE,ON2,F,115,101,JOL,User,-,"How likely are you to correctly recall the second item in the pair?|Type your response on a scale from 0-100 and then press Enter.",Study/JOL,"Study Phase2",3452,,,2120,2714,,,,100,1
5e51cd7caf36f020b0209c7f,e2j8043xx3,Emily_Honors_Thesis_Part_2,1,279,2020-08-29T11:47:29-07:00,10.636470079422,9,versionA_stim.csv,RL_JOLVersionA.csv,"RELATIONAL Version A",OLD,SHEARS,SCISSORS,ON2,F,112,124,JOL,User,-,"How likely are you to correctly recall the second item in the pair?|Type your response on a scale from 0-100 and then press Enter.",Study/JOL,"Study Phase2",10169,,,8833,9120,,,,50,1
