Username,ID,ExperimentName,Session,Trial,Date,TimeDif,"Condition Number","Stimuli File","Order File","Condition Description","Condition Notes",Stimuli*Cue,Stimuli*Answer,Stimuli*Shuffle,"Stimuli*Stimuli Notes",Stimuli*Value,Procedure*Item,"Procedure*Trial Type","Procedure*Max Time","Procedure*Min Time",Procedure*Text,"Procedure*Procedure Notes",Procedure*Shuffle,Response*RT,Response*Response,Response*Accuracy,Response*RTfirst,Response*RTlast,Response*strictAcc,Response*lenientAcc,Response*focus,Response*JOL,Response*Focus
5f17274c254e30027ad9bb7b,l0kwcm0tzq,Emily_Honors_Thesis_Part_2,1,1,2020-08-31T07:47:23-07:00,32.897449970245,11,versionC_stim.csv,RL_JOLVersionC.csv,"RELATIONAL Version C",OLD,,,,,,0,Instruct,-,10,"In this section, you will be presented with a series of word pairs. As you study, you will be asked to rate your ability to remember the second item in the pair if you were only shown the first at test. You will make these ratings using a 0 to 100 Scale.",,Instruct13,32524,,,-1,-1,,,,,1
5f17274c254e30027ad9bb7b,l0kwcm0tzq,Emily_Honors_Thesis_Part_2,1,2,2020-08-31T07:47:51-07:00,27.819746017456,11,versionC_stim.csv,RL_JOLVersionC.csv,"RELATIONAL Version C",OLD,,,,,,0,Instruct,-,10,"For example, if you are given the pair CAT - DOG, a rating of 0 indicates that you would not remember DOG at test, while a rating of 100 indicates full certainty that you would remember the word DOG at test.",,Instruct14,27269,,,-1,-1,,,,,1
5f17274c254e30027ad9bb7b,l0kwcm0tzq,Emily_Honors_Thesis_Part_2,1,3,2020-08-31T07:48:02-07:00,11.217751979828,11,versionC_stim.csv,RL_JOLVersionC.csv,"RELATIONAL Version C",OLD,,,,,,0,Instruct,-,10,"When making these ratings, it is criticial that you use the full range of the scale. You will be disqualified for only giving ratings of 0 or 100! After making your rating, press Enter to advance to the next pair.",,Instruct15,10622,,,-1,-1,,,,,1
5f17274c254e30027ad9bb7b,l0kwcm0tzq,Emily_Honors_Thesis_Part_2,1,4,2020-08-31T07:48:28-07:00,25.439001083374,11,versionC_stim.csv,RL_JOLVersionC.csv,"RELATIONAL Version C",OLD,,,,,,0,Instruct,-,15,"As you study and make your ratings, please think about how the two concepts are RELATED to each other. For example, if you see the pair TURTLE-CAT, think about how both are alive, they are both animals, and both can be kept as pets.",,Instruct19,24044,,,-1,-1,,,,,1
5f17274c254e30027ad9bb7b,l0kwcm0tzq,Emily_Honors_Thesis_Part_2,1,5,2020-08-31T07:49:55-07:00,87.00941991806,11,versionC_stim.csv,RL_JOLVersionC.csv,"RELATIONAL Version C",OLD,,,,,,0,FreeRecall,-,10,"What you should think about as you study each item pair? Type your response in the box below.",,CHECK1,86459,"Type of it. Costs. ",0,-1,-1,0,0,,,0.934
5f17274c254e30027ad9bb7b,l0kwcm0tzq,Emily_Honors_Thesis_Part_2,1,6,2020-08-31T07:50:09-07:00,14.399402141571,11,versionC_stim.csv,RL_JOLVersionC.csv,"RELATIONAL Version C",OLD,,,,,,0,Instruct,-,5,"You will now complete a practice session. Please study the following items and rate your ability to remember them. Remember to think about how the two items are similiar!",,Instruct17,13687,,,-1,-1,,,,,1
5f17274c254e30027ad9bb7b,l0kwcm0tzq,Emily_Honors_Thesis_Part_2,1,7,2020-08-31T07:50:39-07:00,30.337558984756,11,versionC_stim.csv,RL_JOLVersionC.csv,"RELATIONAL Version C",OLD,HINGE,SWING,PRACTICE,PRACTICE,185,187,JOL,User,-,"How likely are you to correctly recall the second item in the pair?|Type your response on a scale from 0-100 and then press Enter.",Study/JOL,PRACTICE,29669,,,-1,-1,,,,65,1
5f17274c254e30027ad9bb7b,l0kwcm0tzq,Emily_Honors_Thesis_Part_2,1,8,2020-08-31T07:51:02-07:00,22.277961015701,11,versionC_stim.csv,RL_JOLVersionC.csv,"RELATIONAL Version C",OLD,DEAF,MUTE,PRACTICE,PRACTICE,182,183,JOL,User,-,"How likely are you to correctly recall the second item in the pair?|Type your response on a scale from 0-100 and then press Enter.",Study/JOL,PRACTICE,21700,,,-1,-1,,,,30,1
5f17274c254e30027ad9bb7b,l0kwcm0tzq,Emily_Honors_Thesis_Part_2,1,9,2020-08-31T07:51:07-07:00,5.5576848983765,11,versionC_stim.csv,RL_JOLVersionC.csv,"RELATIONAL Version C",OLD,FASHION,MODEL,PRACTICE,PRACTICE,190,185,JOL,User,-,"How likely are you to correctly recall the second item in the pair?|Type your response on a scale from 0-100 and then press Enter.",Study/JOL,PRACTICE,5041,,,-1,-1,,,,90,1
5f17274c254e30027ad9bb7b,l0kwcm0tzq,Emily_Honors_Thesis_Part_2,1,10,2020-08-31T07:51:26-07:00,18.879533052444,11,versionC_stim.csv,RL_JOLVersionC.csv,"RELATIONAL Version C",OLD,HAM,BONE,PRACTICE,PRACTICE,183,188,JOL,User,-,"How likely are you to correctly recall the second item in the pair?|Type your response on a scale from 0-100 and then press Enter.",Study/JOL,PRACTICE,18354,,,-1,-1,,,,75,1
5f17274c254e30027ad9bb7b,l0kwcm0tzq,Emily_Honors_Thesis_Part_2,1,11,2020-08-31T07:51:33-07:00,6.7462310791016,11,versionC_stim.csv,RL_JOLVersionC.csv,"RELATIONAL Version C",OLD,CHOCOLATE,BAR,PRACTICE,PRACTICE,187,191,JOL,User,-,"How likely are you to correctly recall the second item in the pair?|Type your response on a scale from 0-100 and then press Enter.",Study/JOL,PRACTICE,6170,,,-1,-1,,,,85,1
5f17274c254e30027ad9bb7b,l0kwcm0tzq,Emily_Honors_Thesis_Part_2,1,12,2020-08-31T07:51:41-07:00,8.5736749172211,11,versionC_stim.csv,RL_JOLVersionC.csv,"RELATIONAL Version C",OLD,DISBELIEVE,SKEPTIC,PRACTICE,PRACTICE,186,190,JOL,User,-,"How likely are you to correctly recall the second item in the pair?|Type your response on a scale from 0-100 and then press Enter.",Study/JOL,PRACTICE,8053,,,-1,-1,,,,40,1
5f17274c254e30027ad9bb7b,l0kwcm0tzq,Emily_Honors_Thesis_Part_2,1,13,2020-08-31T07:52:05-07:00,23.615103006363,11,versionC_stim.csv,RL_JOLVersionC.csv,"RELATIONAL Version C",OLD,CHIME,MUSIC,PRACTICE,PRACTICE,188,189,JOL,User,-,"How likely are you to correctly recall the second item in the pair?|Type your response on a scale from 0-100 and then press Enter.",Study/JOL,PRACTICE,22013,,,-1,-1,,,,50,1
5f17274c254e30027ad9bb7b,l0kwcm0tzq,Emily_Honors_Thesis_Part_2,1,14,2020-08-31T07:52:11-07:00,5.8802421092987,11,versionC_stim.csv,RL_JOLVersionC.csv,"RELATIONAL Version C",OLD,BEHAVIOR,SOCIAL,PRACTICE,PRACTICE,189,182,JOL,User,-,"How likely are you to correctly recall the second item in the pair?|Type your response on a scale from 0-100 and then press Enter.",Study/JOL,PRACTICE,5179,,,-1,-1,,,,75,1
5f17274c254e30027ad9bb7b,l0kwcm0tzq,Emily_Honors_Thesis_Part_2,1,15,2020-08-31T07:52:42-07:00,30.730320930481,11,versionC_stim.csv,RL_JOLVersionC.csv,"RELATIONAL Version C",OLD,AARDVARK,ZOO,PRACTICE,PRACTICE,181,186,JOL,User,-,"How likely are you to correctly recall the second item in the pair?|Type your response on a scale from 0-100 and then press Enter.",Study/JOL,PRACTICE,5336,,,-1,-1,,,,20,0.741
5f17274c254e30027ad9bb7b,l0kwcm0tzq,Emily_Honors_Thesis_Part_2,1,16,2020-08-31T07:52:59-07:00,16.919365882874,11,versionC_stim.csv,RL_JOLVersionC.csv,"RELATIONAL Version C",OLD,PADDLE,ROW,PRACTICE,PRACTICE,184,184,JOL,User,-,"How likely are you to correctly recall the second item in the pair?|Type your response on a scale from 0-100 and then press Enter.",Study/JOL,PRACTICE,16362,,,-1,-1,,,,25,1
5f17274c254e30027ad9bb7b,l0kwcm0tzq,Emily_Honors_Thesis_Part_2,1,17,2020-08-31T07:53:02-07:00,3.8076210021973,11,versionC_stim.csv,RL_JOLVersionC.csv,"RELATIONAL Version C",OLD,,,,,,0,Instruct,User,-,"You have completed this section. Please press Enter to continue.",,Instruct18,3220,,,-1,-1,,,,,1
5f17274c254e30027ad9bb7b,l0kwcm0tzq,Emily_Honors_Thesis_Part_2,1,18,2020-08-31T07:53:14-07:00,11.753563165665,11,versionC_stim.csv,RL_JOLVersionC.csv,"RELATIONAL Version C",OLD,,,,,,0,Instruct,User,-,"You will now begin the study. Press Enter when you are ready to begin.",,Instruct16,10919,,,-1,-1,,,,,1
5f17274c254e30027ad9bb7b,l0kwcm0tzq,Emily_Honors_Thesis_Part_2,1,19,2020-08-31T07:53:28-07:00,13.730360984802,11,versionC_stim.csv,RL_JOLVersionC.csv,"RELATIONAL Version C",OLD,CATCHER,BASEBALL,Buffer,Buffer,2,4,JOL,User,-,"How likely are you to correctly recall the second item in the pair?|Type your response on a scale from 0-100 and then press Enter.",Study/JOL,BUFFER,12900,,,-1,-1,,,,15,1
5f17274c254e30027ad9bb7b,l0kwcm0tzq,Emily_Honors_Thesis_Part_2,1,20,2020-08-31T07:53:35-07:00,6.925048828125,11,versionC_stim.csv,RL_JOLVersionC.csv,"RELATIONAL Version C",OLD,BUTTER,PEANUT,Buffer,Buffer,3,3,JOL,User,-,"How likely are you to correctly recall the second item in the pair?|Type your response on a scale from 0-100 and then press Enter.",Study/JOL,BUFFER,6117,,,-1,-1,,,,70,1
5f17274c254e30027ad9bb7b,l0kwcm0tzq,Emily_Honors_Thesis_Part_2,1,21,2020-08-31T07:53:42-07:00,6.7634711265564,11,versionC_stim.csv,RL_JOLVersionC.csv,"RELATIONAL Version C",OLD,GREEN,TREES,Buffer,Buffer,1,2,JOL,User,-,"How likely are you to correctly recall the second item in the pair?|Type your response on a scale from 0-100 and then press Enter.",Study/JOL,BUFFER,6084,,,-1,-1,,,,78,1
5f17274c254e30027ad9bb7b,l0kwcm0tzq,Emily_Honors_Thesis_Part_2,1,22,2020-08-31T07:53:51-07:00,9.3158540725708,11,versionC_stim.csv,RL_JOLVersionC.csv,"RELATIONAL Version C",OLD,HIDE,SCARE,Buffer,Buffer,4,6,JOL,User,-,"How likely are you to correctly recall the second item in the pair?|Type your response on a scale from 0-100 and then press Enter.",Study/JOL,BUFFER,8616,,,-1,-1,,,,21,1
5f17274c254e30027ad9bb7b,l0kwcm0tzq,Emily_Honors_Thesis_Part_2,1,23,2020-08-31T07:53:57-07:00,6.4910409450531,11,versionC_stim.csv,RL_JOLVersionC.csv,"RELATIONAL Version C",OLD,JAM,SPACE,Buffer,Buffer,5,5,JOL,User,-,"How likely are you to correctly recall the second item in the pair?|Type your response on a scale from 0-100 and then press Enter.",Study/JOL,BUFFER,5301,,,-1,-1,,,,10,1
5f17274c254e30027ad9bb7b,l0kwcm0tzq,Emily_Honors_Thesis_Part_2,1,24,2020-08-31T07:54:06-07:00,8.5253579616547,11,versionC_stim.csv,RL_JOLVersionC.csv,"RELATIONAL Version C",OLD,SALAD,LETTUCE,ON,S,59,30,JOL,User,-,"How likely are you to correctly recall the second item in the pair?|Type your response on a scale from 0-100 and then press Enter.",Study/JOL,"Study Phase",7831,,,-1,-1,,,,90,1
5f17274c254e30027ad9bb7b,l0kwcm0tzq,Emily_Honors_Thesis_Part_2,1,25,2020-08-31T07:54:11-07:00,5.5266289710999,11,versionC_stim.csv,RL_JOLVersionC.csv,"RELATIONAL Version C",OLD,CAR,HAPPY,ON,U,77,14,JOL,User,-,"How likely are you to correctly recall the second item in the pair?|Type your response on a scale from 0-100 and then press Enter.",Study/JOL,"Study Phase",4865,,,-1,-1,,,,10,1
5f17274c254e30027ad9bb7b,l0kwcm0tzq,Emily_Honors_Thesis_Part_2,1,26,2020-08-31T07:54:19-07:00,7.7075200080872,11,versionC_stim.csv,RL_JOLVersionC.csv,"RELATIONAL Version C",OLD,BRONZE,ARTERY,ON,U,74,49,JOL,User,-,"How likely are you to correctly recall the second item in the pair?|Type your response on a scale from 0-100 and then press Enter.",Study/JOL,"Study Phase",6964,,,-1,-1,,,,45,1
5f17274c254e30027ad9bb7b,l0kwcm0tzq,Emily_Honors_Thesis_Part_2,1,27,2020-08-31T07:54:26-07:00,6.7824459075928,11,versionC_stim.csv,RL_JOLVersionC.csv,"RELATIONAL Version C",OLD,BLAZE,FIRE,ON,F,45,58,JOL,User,-,"How likely are you to correctly recall the second item in the pair?|Type your response on a scale from 0-100 and then press Enter.",Study/JOL,"Study Phase",6202,,,-1,-1,,,,70,1
5f17274c254e30027ad9bb7b,l0kwcm0tzq,Emily_Honors_Thesis_Part_2,1,28,2020-08-31T07:54:35-07:00,9.1942150592804,11,versionC_stim.csv,RL_JOLVersionC.csv,"RELATIONAL Version C",OLD,WASP,BUG,ON,F,32,11,JOL,User,-,"How likely are you to correctly recall the second item in the pair?|Type your response on a scale from 0-100 and then press Enter.",Study/JOL,"Study Phase",8556,,,-1,-1,,,,20,1
5f17274c254e30027ad9bb7b,l0kwcm0tzq,Emily_Honors_Thesis_Part_2,1,29,2020-08-31T07:54:42-07:00,7.1002609729767,11,versionC_stim.csv,RL_JOLVersionC.csv,"RELATIONAL Version C",OLD,FUTURE,PAST,ON,S,61,77,JOL,User,-,"How likely are you to correctly recall the second item in the pair?|Type your response on a scale from 0-100 and then press Enter.",Study/JOL,"Study Phase",6569,,,-1,-1,,,,50,1
5f17274c254e30027ad9bb7b,l0kwcm0tzq,Emily_Honors_Thesis_Part_2,1,30,2020-08-31T07:54:50-07:00,7.8851499557495,11,versionC_stim.csv,RL_JOLVersionC.csv,"RELATIONAL Version C",OLD,ATTORNEY,LAW,ON,F,34,61,JOL,User,-,"How likely are you to correctly recall the second item in the pair?|Type your response on a scale from 0-100 and then press Enter.",Study/JOL,"Study Phase",7169,,,-1,-1,,,,50,1
5f17274c254e30027ad9bb7b,l0kwcm0tzq,Emily_Honors_Thesis_Part_2,1,31,2020-08-31T07:54:57-07:00,6.4336621761322,11,versionC_stim.csv,RL_JOLVersionC.csv,"RELATIONAL Version C",OLD,CARD,CREDIT,ON,B,23,82,JOL,User,-,"How likely are you to correctly recall the second item in the pair?|Type your response on a scale from 0-100 and then press Enter.",Study/JOL,"Study Phase",5750,,,-1,-1,,,,93,1
5f17274c254e30027ad9bb7b,l0kwcm0tzq,Emily_Honors_Thesis_Part_2,1,32,2020-08-31T07:55:01-07:00,4.4952309131622,11,versionC_stim.csv,RL_JOLVersionC.csv,"RELATIONAL Version C",OLD,TOILET,BATHROOM,ON,S,58,52,JOL,User,-,"How likely are you to correctly recall the second item in the pair?|Type your response on a scale from 0-100 and then press Enter.",Study/JOL,"Study Phase",3542,,,-1,-1,,,,87,1
5f17274c254e30027ad9bb7b,l0kwcm0tzq,Emily_Honors_Thesis_Part_2,1,33,2020-08-31T07:55:07-07:00,6.2585411071777,11,versionC_stim.csv,RL_JOLVersionC.csv,"RELATIONAL Version C",OLD,BIRD,SWAN,ON,B,14,10,JOL,User,-,"How likely are you to correctly recall the second item in the pair?|Type your response on a scale from 0-100 and then press Enter.",Study/JOL,"Study Phase",5683,,,-1,-1,,,,60,1
5f17274c254e30027ad9bb7b,l0kwcm0tzq,Emily_Honors_Thesis_Part_2,1,34,2020-08-31T07:55:13-07:00,5.9448800086975,11,versionC_stim.csv,RL_JOLVersionC.csv,"RELATIONAL Version C",OLD,WATER,BRIDGE,ON,B,18,64,JOL,User,-,"How likely are you to correctly recall the second item in the pair?|Type your response on a scale from 0-100 and then press Enter.",Study/JOL,"Study Phase",5350,,,-1,-1,,,,34,1
5f17274c254e30027ad9bb7b,l0kwcm0tzq,Emily_Honors_Thesis_Part_2,1,35,2020-08-31T07:55:19-07:00,5.6203858852386,11,versionC_stim.csv,RL_JOLVersionC.csv,"RELATIONAL Version C",OLD,WAR,REVOLUTION,ON,B,20,19,JOL,User,-,"How likely are you to correctly recall the second item in the pair?|Type your response on a scale from 0-100 and then press Enter.",Study/JOL,"Study Phase",5078,,,-1,-1,,,,75,1
5f17274c254e30027ad9bb7b,l0kwcm0tzq,Emily_Honors_Thesis_Part_2,1,36,2020-08-31T07:55:25-07:00,5.8610229492188,11,versionC_stim.csv,RL_JOLVersionC.csv,"RELATIONAL Version C",OLD,OUT,WAY,ON,B,16,54,JOL,User,-,"How likely are you to correctly recall the second item in the pair?|Type your response on a scale from 0-100 and then press Enter.",Study/JOL,"Study Phase",5312,,,-1,-1,,,,35,1
5f17274c254e30027ad9bb7b,l0kwcm0tzq,Emily_Honors_Thesis_Part_2,1,37,2020-08-31T07:55:29-07:00,4.8103411197662,11,versionC_stim.csv,RL_JOLVersionC.csv,"RELATIONAL Version C",OLD,CHORE,WORK,ON,F,39,37,JOL,User,-,"How likely are you to correctly recall the second item in the pair?|Type your response on a scale from 0-100 and then press Enter.",Study/JOL,"Study Phase",4244,,,-1,-1,,,,20,1
5f17274c254e30027ad9bb7b,l0kwcm0tzq,Emily_Honors_Thesis_Part_2,1,38,2020-08-31T07:55:36-07:00,6.6279308795929,11,versionC_stim.csv,RL_JOLVersionC.csv,"RELATIONAL Version C",OLD,SITE,LOCATION,ON,S,48,24,JOL,User,-,"How likely are you to correctly recall the second item in the pair?|Type your response on a scale from 0-100 and then press Enter.",Study/JOL,"Study Phase",6094,,,-1,-1,,,,87,1
5f17274c254e30027ad9bb7b,l0kwcm0tzq,Emily_Honors_Thesis_Part_2,1,39,2020-08-31T07:55:41-07:00,4.53169298172,11,versionC_stim.csv,RL_JOLVersionC.csv,"RELATIONAL Version C",OLD,SACKING,DIETARY,ON,U,67,8,JOL,User,-,"How likely are you to correctly recall the second item in the pair?|Type your response on a scale from 0-100 and then press Enter.",Study/JOL,"Study Phase",3985,,,-1,-1,,,,65,1
5f17274c254e30027ad9bb7b,l0kwcm0tzq,Emily_Honors_Thesis_Part_2,1,40,2020-08-31T07:55:49-07:00,7.9499950408936,11,versionC_stim.csv,RL_JOLVersionC.csv,"RELATIONAL Version C",OLD,SIP,DRINK,ON,F,27,75,JOL,User,-,"How likely are you to correctly recall the second item in the pair?|Type your response on a scale from 0-100 and then press Enter.",Study/JOL,"Study Phase",6367,,,-1,-1,,,,23,1
5f17274c254e30027ad9bb7b,l0kwcm0tzq,Emily_Honors_Thesis_Part_2,1,41,2020-08-31T07:55:56-07:00,7.0407240390778,11,versionC_stim.csv,RL_JOLVersionC.csv,"RELATIONAL Version C",OLD,DROWSY,SLEEP,ON,F,41,73,JOL,User,-,"How likely are you to correctly recall the second item in the pair?|Type your response on a scale from 0-100 and then press Enter.",Study/JOL,"Study Phase",6516,,,-1,-1,,,,40,1
5f17274c254e30027ad9bb7b,l0kwcm0tzq,Emily_Honors_Thesis_Part_2,1,42,2020-08-31T07:56:10-07:00,13.983660936356,11,versionC_stim.csv,RL_JOLVersionC.csv,"RELATIONAL Version C",OLD,SODA,POP,ON,S,56,27,JOL,User,-,"How likely are you to correctly recall the second item in the pair?|Type your response on a scale from 0-100 and then press Enter.",Study/JOL,"Study Phase",13297,,,-1,-1,,,,50,1
5f17274c254e30027ad9bb7b,l0kwcm0tzq,Emily_Honors_Thesis_Part_2,1,43,2020-08-31T07:56:17-07:00,7.1269099712372,11,versionC_stim.csv,RL_JOLVersionC.csv,"RELATIONAL Version C",OLD,BAR,GRILL,ON,S,52,84,JOL,User,-,"How likely are you to correctly recall the second item in the pair?|Type your response on a scale from 0-100 and then press Enter.",Study/JOL,"Study Phase",6585,,,-1,-1,,,,30,1
5f17274c254e30027ad9bb7b,l0kwcm0tzq,Emily_Honors_Thesis_Part_2,1,44,2020-08-31T07:56:29-07:00,12.067614078522,11,versionC_stim.csv,RL_JOLVersionC.csv,"RELATIONAL Version C",OLD,FLOOR,DISCOVER,ON,U,71,78,JOL,User,-,"How likely are you to correctly recall the second item in the pair?|Type your response on a scale from 0-100 and then press Enter.",Study/JOL,"Study Phase",11500,,,-1,-1,,,,25,1
5f17274c254e30027ad9bb7b,l0kwcm0tzq,Emily_Honors_Thesis_Part_2,1,45,2020-08-31T07:56:44-07:00,14.734008073807,11,versionC_stim.csv,RL_JOLVersionC.csv,"RELATIONAL Version C",OLD,NEWS,EDITOR,ON,B,10,71,JOL,User,-,"How likely are you to correctly recall the second item in the pair?|Type your response on a scale from 0-100 and then press Enter.",Study/JOL,"Study Phase",14168,,,-1,-1,,,,25,1
5f17274c254e30027ad9bb7b,l0kwcm0tzq,Emily_Honors_Thesis_Part_2,1,46,2020-08-31T07:56:49-07:00,5.5979008674622,11,versionC_stim.csv,RL_JOLVersionC.csv,"RELATIONAL Version C",OLD,ROUND,CIRCLE,ON,S,65,60,JOL,User,-,"How likely are you to correctly recall the second item in the pair?|Type your response on a scale from 0-100 and then press Enter.",Study/JOL,"Study Phase",5059,,,-1,-1,,,,95,1
5f17274c254e30027ad9bb7b,l0kwcm0tzq,Emily_Honors_Thesis_Part_2,1,47,2020-08-31T07:56:54-07:00,4.5890111923218,11,versionC_stim.csv,RL_JOLVersionC.csv,"RELATIONAL Version C",OLD,LION,ART,ON,U,79,86,JOL,User,-,"How likely are you to correctly recall the second item in the pair?|Type your response on a scale from 0-100 and then press Enter.",Study/JOL,"Study Phase",3906,,,-1,-1,,,,10,1
5f17274c254e30027ad9bb7b,l0kwcm0tzq,Emily_Honors_Thesis_Part_2,1,48,2020-08-31T07:57:02-07:00,8.1993188858032,11,versionC_stim.csv,RL_JOLVersionC.csv,"RELATIONAL Version C",OLD,SIGHT,DEBATE,ON,U,73,17,JOL,User,-,"How likely are you to correctly recall the second item in the pair?|Type your response on a scale from 0-100 and then press Enter.",Study/JOL,"Study Phase",7680,,,-1,-1,,,,50,1
5f17274c254e30027ad9bb7b,l0kwcm0tzq,Emily_Honors_Thesis_Part_2,1,49,2020-08-31T07:57:16-07:00,14.182137012482,11,versionC_stim.csv,RL_JOLVersionC.csv,"RELATIONAL Version C",OLD,MONEY,WAGE,ON,B,8,25,JOL,User,-,"How likely are you to correctly recall the second item in the pair?|Type your response on a scale from 0-100 and then press Enter.",Study/JOL,"Study Phase",13613,,,-1,-1,,,,70,1
5f17274c254e30027ad9bb7b,l0kwcm0tzq,Emily_Honors_Thesis_Part_2,1,50,2020-08-31T07:57:32-07:00,15.781085014343,11,versionC_stim.csv,RL_JOLVersionC.csv,"RELATIONAL Version C",OLD,ATTIRE,CLOTHES,ON,F,43,45,JOL,User,-,"How likely are you to correctly recall the second item in the pair?|Type your response on a scale from 0-100 and then press Enter.",Study/JOL,"Study Phase",15078,,,-1,-1,,,,20,1
5f17274c254e30027ad9bb7b,l0kwcm0tzq,Emily_Honors_Thesis_Part_2,1,51,2020-08-31T07:57:36-07:00,4.2966148853302,11,versionC_stim.csv,RL_JOLVersionC.csv,"RELATIONAL Version C",OLD,ENOUGH,FULL,ON,F,26,47,JOL,User,-,"How likely are you to correctly recall the second item in the pair?|Type your response on a scale from 0-100 and then press Enter.",Study/JOL,"Study Phase",3724,,,-1,-1,,,,10,1
5f17274c254e30027ad9bb7b,l0kwcm0tzq,Emily_Honors_Thesis_Part_2,1,52,2020-08-31T07:57:41-07:00,4.47172498703,11,versionC_stim.csv,RL_JOLVersionC.csv,"RELATIONAL Version C",OLD,BELT,SOON,ON,U,70,9,JOL,User,-,"How likely are you to correctly recall the second item in the pair?|Type your response on a scale from 0-100 and then press Enter.",Study/JOL,"Study Phase",3917,,,-1,-1,,,,45,1
5f17274c254e30027ad9bb7b,l0kwcm0tzq,Emily_Honors_Thesis_Part_2,1,53,2020-08-31T07:57:45-07:00,4.6290190219879,11,versionC_stim.csv,RL_JOLVersionC.csv,"RELATIONAL Version C",OLD,HAND,FIX,ON,U,75,15,JOL,User,-,"How likely are you to correctly recall the second item in the pair?|Type your response on a scale from 0-100 and then press Enter.",Study/JOL,"Study Phase",4130,,,-1,-1,,,,20,1
5f17274c254e30027ad9bb7b,l0kwcm0tzq,Emily_Honors_Thesis_Part_2,1,54,2020-08-31T07:57:51-07:00,5.2524750232697,11,versionC_stim.csv,RL_JOLVersionC.csv,"RELATIONAL Version C",OLD,ROCK,GEOLOGY,ON,B,19,7,JOL,User,-,"How likely are you to correctly recall the second item in the pair?|Type your response on a scale from 0-100 and then press Enter.",Study/JOL,"Study Phase",4696,,,-1,-1,,,,80,1
5f17274c254e30027ad9bb7b,l0kwcm0tzq,Emily_Honors_Thesis_Part_2,1,55,2020-08-31T07:57:58-07:00,7.3484811782837,11,versionC_stim.csv,RL_JOLVersionC.csv,"RELATIONAL Version C",OLD,DIVISION,MATH,ON,F,33,67,JOL,User,-,"How likely are you to correctly recall the second item in the pair?|Type your response on a scale from 0-100 and then press Enter.",Study/JOL,"Study Phase",6846,,,-1,-1,,,,30,1
5f17274c254e30027ad9bb7b,l0kwcm0tzq,Emily_Honors_Thesis_Part_2,1,56,2020-08-31T07:58:07-07:00,9.031742811203,11,versionC_stim.csv,RL_JOLVersionC.csv,"RELATIONAL Version C",OLD,COLD,BITTER,ON,B,12,48,JOL,User,-,"How likely are you to correctly recall the second item in the pair?|Type your response on a scale from 0-100 and then press Enter.",Study/JOL,"Study Phase",8507,,,-1,-1,,,,34,1
5f17274c254e30027ad9bb7b,l0kwcm0tzq,Emily_Honors_Thesis_Part_2,1,57,2020-08-31T07:58:14-07:00,6.8806111812592,11,versionC_stim.csv,RL_JOLVersionC.csv,"RELATIONAL Version C",OLD,VASE,KING,ON,U,85,31,JOL,User,-,"How likely are you to correctly recall the second item in the pair?|Type your response on a scale from 0-100 and then press Enter.",Study/JOL,"Study Phase",6311,,,-1,-1,,,,68,1
5f17274c254e30027ad9bb7b,l0kwcm0tzq,Emily_Honors_Thesis_Part_2,1,58,2020-08-31T07:58:22-07:00,8.6645569801331,11,versionC_stim.csv,RL_JOLVersionC.csv,"RELATIONAL Version C",OLD,,,,,,0,Instruct,-,3,"Remember to focus on how the two items are similiar while you study and make your ratings!",,CHECK2,8114,,,-1,-1,,,,,1
5f17274c254e30027ad9bb7b,l0kwcm0tzq,Emily_Honors_Thesis_Part_2,1,59,2020-08-31T07:58:30-07:00,7.6173658370972,11,versionC_stim.csv,RL_JOLVersionC.csv,"RELATIONAL Version C",OLD,BEE,HONEY,ON,S,63,56,JOL,User,-,"How likely are you to correctly recall the second item in the pair?|Type your response on a scale from 0-100 and then press Enter.",Study/JOL,"Study Phase",7093,,,-1,-1,,,,85,1
5f17274c254e30027ad9bb7b,l0kwcm0tzq,Emily_Honors_Thesis_Part_2,1,60,2020-08-31T07:58:38-07:00,7.4060790538788,11,versionC_stim.csv,RL_JOLVersionC.csv,"RELATIONAL Version C",OLD,FAMINE,HUNGER,ON,F,40,39,JOL,User,-,"How likely are you to correctly recall the second item in the pair?|Type your response on a scale from 0-100 and then press Enter.",Study/JOL,"Study Phase",6857,,,-1,-1,,,,98,1
5f17274c254e30027ad9bb7b,l0kwcm0tzq,Emily_Honors_Thesis_Part_2,1,61,2020-08-31T07:58:43-07:00,5.6598169803619,11,versionC_stim.csv,RL_JOLVersionC.csv,"RELATIONAL Version C",OLD,DEFINITION,MEANING,ON,S,62,62,JOL,User,-,"How likely are you to correctly recall the second item in the pair?|Type your response on a scale from 0-100 and then press Enter.",Study/JOL,"Study Phase",5161,,,-1,-1,,,,95,1
5f17274c254e30027ad9bb7b,l0kwcm0tzq,Emily_Honors_Thesis_Part_2,1,62,2020-08-31T07:58:51-07:00,7.4509289264679,11,versionC_stim.csv,RL_JOLVersionC.csv,"RELATIONAL Version C",OLD,BUSINESS,DEATH,ON,U,72,57,JOL,User,-,"How likely are you to correctly recall the second item in the pair?|Type your response on a scale from 0-100 and then press Enter.",Study/JOL,"Study Phase",6930,,,-1,-1,,,,15,1
5f17274c254e30027ad9bb7b,l0kwcm0tzq,Emily_Honors_Thesis_Part_2,1,63,2020-08-31T07:58:57-07:00,6.1273159980774,11,versionC_stim.csv,RL_JOLVersionC.csv,"RELATIONAL Version C",OLD,STING,HORNET,ON,B,11,28,JOL,User,-,"How likely are you to correctly recall the second item in the pair?|Type your response on a scale from 0-100 and then press Enter.",Study/JOL,"Study Phase",5527,,,-1,-1,,,,78,1
5f17274c254e30027ad9bb7b,l0kwcm0tzq,Emily_Honors_Thesis_Part_2,1,64,2020-08-31T07:59:02-07:00,4.9947881698608,11,versionC_stim.csv,RL_JOLVersionC.csv,"RELATIONAL Version C",OLD,TUCK,ALLOW,ON,U,78,20,JOL,User,-,"How likely are you to correctly recall the second item in the pair?|Type your response on a scale from 0-100 and then press Enter.",Study/JOL,"Study Phase",4475,,,-1,-1,,,,59,1
5f17274c254e30027ad9bb7b,l0kwcm0tzq,Emily_Honors_Thesis_Part_2,1,65,2020-08-31T07:59:14-07:00,12.240833044052,11,versionC_stim.csv,RL_JOLVersionC.csv,"RELATIONAL Version C",OLD,PLANT,ROOT,ON,B,13,34,JOL,User,-,"How likely are you to correctly recall the second item in the pair?|Type your response on a scale from 0-100 and then press Enter.",Study/JOL,"Study Phase",11688,,,-1,-1,,,,70,1
5f17274c254e30027ad9bb7b,l0kwcm0tzq,Emily_Honors_Thesis_Part_2,1,66,2020-08-31T07:59:22-07:00,7.7400808334351,11,versionC_stim.csv,RL_JOLVersionC.csv,"RELATIONAL Version C",OLD,GROWTH,HEIGHT,ON,F,30,65,JOL,User,-,"How likely are you to correctly recall the second item in the pair?|Type your response on a scale from 0-100 and then press Enter.",Study/JOL,"Study Phase",7148,,,-1,-1,,,,92,1
5f17274c254e30027ad9bb7b,l0kwcm0tzq,Emily_Honors_Thesis_Part_2,1,67,2020-08-31T07:59:28-07:00,6.2986841201782,11,versionC_stim.csv,RL_JOLVersionC.csv,"RELATIONAL Version C",OLD,RIDDLE,SUGAR,ON,U,81,53,JOL,User,-,"How likely are you to correctly recall the second item in the pair?|Type your response on a scale from 0-100 and then press Enter.",Study/JOL,"Study Phase",5762,,,-1,-1,,,,76,1
5f17274c254e30027ad9bb7b,l0kwcm0tzq,Emily_Honors_Thesis_Part_2,1,68,2020-08-31T07:59:35-07:00,6.8005800247192,11,versionC_stim.csv,RL_JOLVersionC.csv,"RELATIONAL Version C",OLD,DESIGN,ARCHITECTURE,ON,S,51,63,JOL,User,-,"How likely are you to correctly recall the second item in the pair?|Type your response on a scale from 0-100 and then press Enter.",Study/JOL,"Study Phase",6186,,,-1,-1,,,,50,1
5f17274c254e30027ad9bb7b,l0kwcm0tzq,Emily_Honors_Thesis_Part_2,1,69,2020-08-31T07:59:41-07:00,5.6876888275146,11,versionC_stim.csv,RL_JOLVersionC.csv,"RELATIONAL Version C",OLD,FANTASTIC,GREAT,ON,F,35,16,JOL,User,-,"How likely are you to correctly recall the second item in the pair?|Type your response on a scale from 0-100 and then press Enter.",Study/JOL,"Study Phase",5100,,,-1,-1,,,,80,1
5f17274c254e30027ad9bb7b,l0kwcm0tzq,Emily_Honors_Thesis_Part_2,1,70,2020-08-31T07:59:46-07:00,5.0714612007141,11,versionC_stim.csv,RL_JOLVersionC.csv,"RELATIONAL Version C",OLD,LIVER,KIDNEY,ON,S,53,51,JOL,User,-,"How likely are you to correctly recall the second item in the pair?|Type your response on a scale from 0-100 and then press Enter.",Study/JOL,"Study Phase",4512,,,-1,-1,,,,20,1
5f17274c254e30027ad9bb7b,l0kwcm0tzq,Emily_Honors_Thesis_Part_2,1,71,2020-08-31T07:59:52-07:00,6.300843000412,11,versionC_stim.csv,RL_JOLVersionC.csv,"RELATIONAL Version C",OLD,WORD,SENTENCE,ON,F,31,46,JOL,User,-,"How likely are you to correctly recall the second item in the pair?|Type your response on a scale from 0-100 and then press Enter.",Study/JOL,"Study Phase",5783,,,-1,-1,,,,35,1
5f17274c254e30027ad9bb7b,l0kwcm0tzq,Emily_Honors_Thesis_Part_2,1,72,2020-08-31T07:59:57-07:00,4.7199318408966,11,versionC_stim.csv,RL_JOLVersionC.csv,"RELATIONAL Version C",OLD,ASSIGNMENT,DUE,ON,S,46,22,JOL,User,-,"How likely are you to correctly recall the second item in the pair?|Type your response on a scale from 0-100 and then press Enter.",Study/JOL,"Study Phase",4137,,,-1,-1,,,,40,1
5f17274c254e30027ad9bb7b,l0kwcm0tzq,Emily_Honors_Thesis_Part_2,1,73,2020-08-31T08:00:05-07:00,8.2513871192932,11,versionC_stim.csv,RL_JOLVersionC.csv,"RELATIONAL Version C",OLD,RACKET,BALL,ON,F,38,66,JOL,User,-,"How likely are you to correctly recall the second item in the pair?|Type your response on a scale from 0-100 and then press Enter.",Study/JOL,"Study Phase",7687,,,-1,-1,,,,70,1
5f17274c254e30027ad9bb7b,l0kwcm0tzq,Emily_Honors_Thesis_Part_2,1,74,2020-08-31T08:00:13-07:00,8.5008318424225,11,versionC_stim.csv,RL_JOLVersionC.csv,"RELATIONAL Version C",OLD,CLEAN,HYGIENE,ON,B,17,50,JOL,User,-,"How likely are you to correctly recall the second item in the pair?|Type your response on a scale from 0-100 and then press Enter.",Study/JOL,"Study Phase",8022,,,-1,-1,,,,80,1
5f17274c254e30027ad9bb7b,l0kwcm0tzq,Emily_Honors_Thesis_Part_2,1,75,2020-08-31T08:00:18-07:00,4.7392179965973,11,versionC_stim.csv,RL_JOLVersionC.csv,"RELATIONAL Version C",OLD,LATCH,KEY,ON,F,36,40,JOL,User,-,"How likely are you to correctly recall the second item in the pair?|Type your response on a scale from 0-100 and then press Enter.",Study/JOL,"Study Phase",4218,,,-1,-1,,,,40,1
5f17274c254e30027ad9bb7b,l0kwcm0tzq,Emily_Honors_Thesis_Part_2,1,76,2020-08-31T08:00:23-07:00,4.9605832099915,11,versionC_stim.csv,RL_JOLVersionC.csv,"RELATIONAL Version C",OLD,CLUTTER,PUSHER,ON,U,66,23,JOL,User,-,"How likely are you to correctly recall the second item in the pair?|Type your response on a scale from 0-100 and then press Enter.",Study/JOL,"Study Phase",4386,,,-1,-1,,,,60,1
5f17274c254e30027ad9bb7b,l0kwcm0tzq,Emily_Honors_Thesis_Part_2,1,77,2020-08-31T08:00:30-07:00,7.1998989582062,11,versionC_stim.csv,RL_JOLVersionC.csv,"RELATIONAL Version C",OLD,WOMAN,LIFT,ON,U,69,44,JOL,User,-,"How likely are you to correctly recall the second item in the pair?|Type your response on a scale from 0-100 and then press Enter.",Study/JOL,"Study Phase",6692,,,-1,-1,,,,40,1
5f17274c254e30027ad9bb7b,l0kwcm0tzq,Emily_Honors_Thesis_Part_2,1,78,2020-08-31T08:00:37-07:00,6.6471350193024,11,versionC_stim.csv,RL_JOLVersionC.csv,"RELATIONAL Version C",OLD,CAVE,DARK,ON,F,28,70,JOL,User,-,"How likely are you to correctly recall the second item in the pair?|Type your response on a scale from 0-100 and then press Enter.",Study/JOL,"Study Phase",6111,,,-1,-1,,,,80,1
5f17274c254e30027ad9bb7b,l0kwcm0tzq,Emily_Honors_Thesis_Part_2,1,79,2020-08-31T08:00:45-07:00,7.8124959468842,11,versionC_stim.csv,RL_JOLVersionC.csv,"RELATIONAL Version C",OLD,WASTE,DUMP,ON,S,49,13,JOL,User,-,"How likely are you to correctly recall the second item in the pair?|Type your response on a scale from 0-100 and then press Enter.",Study/JOL,"Study Phase",7297,,,-1,-1,,,,85,1
5f17274c254e30027ad9bb7b,l0kwcm0tzq,Emily_Honors_Thesis_Part_2,1,80,2020-08-31T08:01:00-07:00,15.40209197998,11,versionC_stim.csv,RL_JOLVersionC.csv,"RELATIONAL Version C",OLD,SEIZE,TAKE,ON,F,29,33,JOL,User,-,"How likely are you to correctly recall the second item in the pair?|Type your response on a scale from 0-100 and then press Enter.",Study/JOL,"Study Phase",14794,,,-1,-1,,,,10,1
5f17274c254e30027ad9bb7b,l0kwcm0tzq,Emily_Honors_Thesis_Part_2,1,81,2020-08-31T08:01:11-07:00,10.528579950333,11,versionC_stim.csv,RL_JOLVersionC.csv,"RELATIONAL Version C",OLD,FISH,TUNA,ON,B,25,81,JOL,User,-,"How likely are you to correctly recall the second item in the pair?|Type your response on a scale from 0-100 and then press Enter.",Study/JOL,"Study Phase",9871,,,-1,-1,,,,85,1
5f17274c254e30027ad9bb7b,l0kwcm0tzq,Emily_Honors_Thesis_Part_2,1,82,2020-08-31T08:01:17-07:00,6.0859611034393,11,versionC_stim.csv,RL_JOLVersionC.csv,"RELATIONAL Version C",OLD,POSITION,MACHINE,ON,U,76,35,JOL,User,-,"How likely are you to correctly recall the second item in the pair?|Type your response on a scale from 0-100 and then press Enter.",Study/JOL,"Study Phase",4562,,,-1,-1,,,,10,1
5f17274c254e30027ad9bb7b,l0kwcm0tzq,Emily_Honors_Thesis_Part_2,1,83,2020-08-31T08:01:21-07:00,4.6586999893188,11,versionC_stim.csv,RL_JOLVersionC.csv,"RELATIONAL Version C",OLD,HUNGRY,PARK,ON,U,68,36,JOL,User,-,"How likely are you to correctly recall the second item in the pair?|Type your response on a scale from 0-100 and then press Enter.",Study/JOL,"Study Phase",4102,,,-1,-1,,,,40,1
5f17274c254e30027ad9bb7b,l0kwcm0tzq,Emily_Honors_Thesis_Part_2,1,84,2020-08-31T08:01:27-07:00,5.3056869506836,11,versionC_stim.csv,RL_JOLVersionC.csv,"RELATIONAL Version C",OLD,COW,HERD,ON,B,22,76,JOL,User,-,"How likely are you to correctly recall the second item in the pair?|Type your response on a scale from 0-100 and then press Enter.",Study/JOL,"Study Phase",4533,,,-1,-1,,,,16,1
5f17274c254e30027ad9bb7b,l0kwcm0tzq,Emily_Honors_Thesis_Part_2,1,85,2020-08-31T08:01:32-07:00,4.9042100906372,11,versionC_stim.csv,RL_JOLVersionC.csv,"RELATIONAL Version C",OLD,CHILI,HOT,ON,F,37,68,JOL,User,-,"How likely are you to correctly recall the second item in the pair?|Type your response on a scale from 0-100 and then press Enter.",Study/JOL,"Study Phase",4290,,,-1,-1,,,,80,1
5f17274c254e30027ad9bb7b,l0kwcm0tzq,Emily_Honors_Thesis_Part_2,1,86,2020-08-31T08:01:37-07:00,4.9678678512573,11,versionC_stim.csv,RL_JOLVersionC.csv,"RELATIONAL Version C",OLD,WIND,BLOW,ON,S,55,29,JOL,User,-,"How likely are you to correctly recall the second item in the pair?|Type your response on a scale from 0-100 and then press Enter.",Study/JOL,"Study Phase",4340,,,-1,-1,,,,50,1
5f17274c254e30027ad9bb7b,l0kwcm0tzq,Emily_Honors_Thesis_Part_2,1,87,2020-08-31T08:01:43-07:00,6.6047160625458,11,versionC_stim.csv,RL_JOLVersionC.csv,"RELATIONAL Version C",OLD,BAD,DELINQUENT,ON,B,6,32,JOL,User,-,"How likely are you to correctly recall the second item in the pair?|Type your response on a scale from 0-100 and then press Enter.",Study/JOL,"Study Phase",6049,,,-1,-1,,,,60,1
5f17274c254e30027ad9bb7b,l0kwcm0tzq,Emily_Honors_Thesis_Part_2,1,88,2020-08-31T08:01:56-07:00,12.471508026123,11,versionC_stim.csv,RL_JOLVersionC.csv,"RELATIONAL Version C",OLD,ADD,VALLEY,ON,U,82,83,JOL,User,-,"How likely are you to correctly recall the second item in the pair?|Type your response on a scale from 0-100 and then press Enter.",Study/JOL,"Study Phase",11887,,,-1,-1,,,,0,1
5f17274c254e30027ad9bb7b,l0kwcm0tzq,Emily_Honors_Thesis_Part_2,1,89,2020-08-31T08:02:00-07:00,4.8078000545502,11,versionC_stim.csv,RL_JOLVersionC.csv,"RELATIONAL Version C",OLD,CHILD,BABY,ON,S,64,74,JOL,User,-,"How likely are you to correctly recall the second item in the pair?|Type your response on a scale from 0-100 and then press Enter.",Study/JOL,"Study Phase",4258,,,-1,-1,,,,95,1
5f17274c254e30027ad9bb7b,l0kwcm0tzq,Emily_Honors_Thesis_Part_2,1,90,2020-08-31T08:02:07-07:00,6.3284878730774,11,versionC_stim.csv,RL_JOLVersionC.csv,"RELATIONAL Version C",OLD,FLOWER,ORCHID,ON,B,24,38,JOL,User,-,"How likely are you to correctly recall the second item in the pair?|Type your response on a scale from 0-100 and then press Enter.",Study/JOL,"Study Phase",5774,,,-1,-1,,,,70,1
5f17274c254e30027ad9bb7b,l0kwcm0tzq,Emily_Honors_Thesis_Part_2,1,91,2020-08-31T08:02:12-07:00,5.6277890205383,11,versionC_stim.csv,RL_JOLVersionC.csv,"RELATIONAL Version C",OLD,TALK,DISCUSSION,ON,B,21,18,JOL,User,-,"How likely are you to correctly recall the second item in the pair?|Type your response on a scale from 0-100 and then press Enter.",Study/JOL,"Study Phase",4904,,,-1,-1,,,,99,1
5f17274c254e30027ad9bb7b,l0kwcm0tzq,Emily_Honors_Thesis_Part_2,1,92,2020-08-31T08:02:17-07:00,4.9948348999023,11,versionC_stim.csv,RL_JOLVersionC.csv,"RELATIONAL Version C",OLD,END,BEGIN,ON,S,54,72,JOL,User,-,"How likely are you to correctly recall the second item in the pair?|Type your response on a scale from 0-100 and then press Enter.",Study/JOL,"Study Phase",4387,,,-1,-1,,,,60,1
5f17274c254e30027ad9bb7b,l0kwcm0tzq,Emily_Honors_Thesis_Part_2,1,93,2020-08-31T08:02:22-07:00,4.6991209983826,11,versionC_stim.csv,RL_JOLVersionC.csv,"RELATIONAL Version C",OLD,DOG,PAW,ON,B,15,79,JOL,User,-,"How likely are you to correctly recall the second item in the pair?|Type your response on a scale from 0-100 and then press Enter.",Study/JOL,"Study Phase",4109,,,-1,-1,,,,50,1
5f17274c254e30027ad9bb7b,l0kwcm0tzq,Emily_Honors_Thesis_Part_2,1,94,2020-08-31T08:02:26-07:00,4.3960621356964,11,versionC_stim.csv,RL_JOLVersionC.csv,"RELATIONAL Version C",OLD,ACCIDENT,STRONG,ON,U,80,43,JOL,User,-,"How likely are you to correctly recall the second item in the pair?|Type your response on a scale from 0-100 and then press Enter.",Study/JOL,"Study Phase",3766,,,-1,-1,,,,40,1
5f17274c254e30027ad9bb7b,l0kwcm0tzq,Emily_Honors_Thesis_Part_2,1,95,2020-08-31T08:02:32-07:00,5.2110030651093,11,versionC_stim.csv,RL_JOLVersionC.csv,"RELATIONAL Version C",OLD,HAMMER,CHISEL,ON,B,9,12,JOL,User,-,"How likely are you to correctly recall the second item in the pair?|Type your response on a scale from 0-100 and then press Enter.",Study/JOL,"Study Phase",4719,,,-1,-1,,,,60,1
5f17274c254e30027ad9bb7b,l0kwcm0tzq,Emily_Honors_Thesis_Part_2,1,96,2020-08-31T08:02:36-07:00,4.7411599159241,11,versionC_stim.csv,RL_JOLVersionC.csv,"RELATIONAL Version C",OLD,JURY,TRIAL,ON,S,50,69,JOL,User,-,"How likely are you to correctly recall the second item in the pair?|Type your response on a scale from 0-100 and then press Enter.",Study/JOL,"Study Phase",4035,,,-1,-1,,,,50,1
5f17274c254e30027ad9bb7b,l0kwcm0tzq,Emily_Honors_Thesis_Part_2,1,97,2020-08-31T08:02:41-07:00,4.553230047226,11,versionC_stim.csv,RL_JOLVersionC.csv,"RELATIONAL Version C",OLD,AMOUNT,NUMBER,ON,S,47,21,JOL,User,-,"How likely are you to correctly recall the second item in the pair?|Type your response on a scale from 0-100 and then press Enter.",Study/JOL,"Study Phase",4061,,,-1,-1,,,,80,1
5f17274c254e30027ad9bb7b,l0kwcm0tzq,Emily_Honors_Thesis_Part_2,1,98,2020-08-31T08:02:46-07:00,4.9937708377838,11,versionC_stim.csv,RL_JOLVersionC.csv,"RELATIONAL Version C",OLD,WOULD,CASH,ON,U,83,59,JOL,User,-,"How likely are you to correctly recall the second item in the pair?|Type your response on a scale from 0-100 and then press Enter.",Study/JOL,"Study Phase",4385,,,-1,-1,,,,20,1
5f17274c254e30027ad9bb7b,l0kwcm0tzq,Emily_Honors_Thesis_Part_2,1,99,2020-08-31T08:02:53-07:00,6.8544020652771,11,versionC_stim.csv,RL_JOLVersionC.csv,"RELATIONAL Version C",OLD,FOOT,SHOE,ON,S,60,80,JOL,User,-,"How likely are you to correctly recall the second item in the pair?|Type your response on a scale from 0-100 and then press Enter.",Study/JOL,"Study Phase",6179,,,-1,-1,,,,60,1
5f17274c254e30027ad9bb7b,l0kwcm0tzq,Emily_Honors_Thesis_Part_2,1,100,2020-08-31T08:02:59-07:00,6.6480610370636,11,versionC_stim.csv,RL_JOLVersionC.csv,"RELATIONAL Version C",OLD,STOMACH,DIGESTION,ON,B,7,26,JOL,User,-,"How likely are you to correctly recall the second item in the pair?|Type your response on a scale from 0-100 and then press Enter.",Study/JOL,"Study Phase",5455,,,-1,-1,,,,30,1
5f17274c254e30027ad9bb7b,l0kwcm0tzq,Emily_Honors_Thesis_Part_2,1,101,2020-08-31T08:03:06-07:00,6.7371740341187,11,versionC_stim.csv,RL_JOLVersionC.csv,"RELATIONAL Version C",OLD,PILOT,PLANE,ON,F,44,85,JOL,User,-,"How likely are you to correctly recall the second item in the pair?|Type your response on a scale from 0-100 and then press Enter.",Study/JOL,"Study Phase",5775,,,-1,-1,,,,80,1
5f17274c254e30027ad9bb7b,l0kwcm0tzq,Emily_Honors_Thesis_Part_2,1,102,2020-08-31T08:03:12-07:00,5.6976659297943,11,versionC_stim.csv,RL_JOLVersionC.csv,"RELATIONAL Version C",OLD,STENCH,SMELL,ON,F,42,41,JOL,User,-,"How likely are you to correctly recall the second item in the pair?|Type your response on a scale from 0-100 and then press Enter.",Study/JOL,"Study Phase",4201,,,-1,-1,,,,30,1
5f17274c254e30027ad9bb7b,l0kwcm0tzq,Emily_Honors_Thesis_Part_2,1,103,2020-08-31T08:03:19-07:00,7.2779469490051,11,versionC_stim.csv,RL_JOLVersionC.csv,"RELATIONAL Version C",OLD,CHEESE,WINE,ON,S,57,55,JOL,User,-,"How likely are you to correctly recall the second item in the pair?|Type your response on a scale from 0-100 and then press Enter.",Study/JOL,"Study Phase",6640,,,-1,-1,,,,26,1
5f17274c254e30027ad9bb7b,l0kwcm0tzq,Emily_Honors_Thesis_Part_2,1,104,2020-08-31T08:03:24-07:00,4.9511280059814,11,versionC_stim.csv,RL_JOLVersionC.csv,"RELATIONAL Version C",OLD,SICK,HIDE,ON,U,84,42,JOL,User,-,"How likely are you to correctly recall the second item in the pair?|Type your response on a scale from 0-100 and then press Enter.",Study/JOL,"Study Phase",4440,,,-1,-1,,,,10,1
5f17274c254e30027ad9bb7b,l0kwcm0tzq,Emily_Honors_Thesis_Part_2,1,105,2020-08-31T08:03:31-07:00,6.568706035614,11,versionC_stim.csv,RL_JOLVersionC.csv,"RELATIONAL Version C",OLD,CHOCOLATE,MALT,Buffer2,Buffer,88,88,JOL,User,-,"How likely are you to correctly recall the second item in the pair?|Type your response on a scale from 0-100 and then press Enter.",Study/JOL,BUFFER2,6006,,,-1,-1,,,,60,1
5f17274c254e30027ad9bb7b,l0kwcm0tzq,Emily_Honors_Thesis_Part_2,1,106,2020-08-31T08:03:36-07:00,5.5415699481964,11,versionC_stim.csv,RL_JOLVersionC.csv,"RELATIONAL Version C",OLD,SPACE,MOON,Buffer2,Buffer,89,91,JOL,User,-,"How likely are you to correctly recall the second item in the pair?|Type your response on a scale from 0-100 and then press Enter.",Study/JOL,BUFFER2,5013,,,-1,-1,,,,70,1
5f17274c254e30027ad9bb7b,l0kwcm0tzq,Emily_Honors_Thesis_Part_2,1,107,2020-08-31T08:03:42-07:00,5.2476940155029,11,versionC_stim.csv,RL_JOLVersionC.csv,"RELATIONAL Version C",OLD,POLICE,SHERIFF,Buffer2,Buffer,87,89,JOL,User,-,"How likely are you to correctly recall the second item in the pair?|Type your response on a scale from 0-100 and then press Enter.",Study/JOL,BUFFER2,4671,,,-1,-1,,,,89,1
5f17274c254e30027ad9bb7b,l0kwcm0tzq,Emily_Honors_Thesis_Part_2,1,108,2020-08-31T08:03:46-07:00,4.2308721542358,11,versionC_stim.csv,RL_JOLVersionC.csv,"RELATIONAL Version C",OLD,STUFF,THING,Buffer2,Buffer,90,90,JOL,User,-,"How likely are you to correctly recall the second item in the pair?|Type your response on a scale from 0-100 and then press Enter.",Study/JOL,BUFFER2,3642,,,-1,-1,,,,50,1
5f17274c254e30027ad9bb7b,l0kwcm0tzq,Emily_Honors_Thesis_Part_2,1,109,2020-08-31T08:03:53-07:00,7.459645986557,11,versionC_stim.csv,RL_JOLVersionC.csv,"RELATIONAL Version C",OLD,GOOSE,GEESE,Buffer2,Buffer,86,87,JOL,User,-,"How likely are you to correctly recall the second item in the pair?|Type your response on a scale from 0-100 and then press Enter.",Study/JOL,BUFFER2,6921,,,-1,-1,,,,70,1
5f17274c254e30027ad9bb7b,l0kwcm0tzq,Emily_Honors_Thesis_Part_2,1,110,2020-08-31T08:03:55-07:00,1.889899969101,11,versionC_stim.csv,RL_JOLVersionC.csv,"RELATIONAL Version C",OLD,,,,,,0,Instruct,User,-,"You have completed this section. Please press Enter.",Filler_Instruction,Instruct5,1393,,,-1,-1,,,,,1
5f17274c254e30027ad9bb7b,l0kwcm0tzq,Emily_Honors_Thesis_Part_2,1,111,2020-08-31T08:04:47-07:00,52.389126062393,11,versionC_stim.csv,RL_JOLVersionC.csv,"RELATIONAL Version C",OLD,,,,,,0,FreeRecall,-,10,"What were you supposed to focus on while you studied each pair? (Hint: Think back to the instructions). Type your answer in the space below.",,CHECK3,51626,"Meaning and type of word",0,-1,-1,0,0,,,1
5f17274c254e30027ad9bb7b,l0kwcm0tzq,Emily_Honors_Thesis_Part_2,1,112,2020-08-31T08:04:50-07:00,2.7875599861145,11,versionC_stim.csv,RL_JOLVersionC.csv,"RELATIONAL Version C",OLD,,,,,,0,Instruct,User,-,"You have completed this section. Please press Enter.",Filler_Instruction,Instruct2,2174,,,-1,-1,,,,,1
5f17274c254e30027ad9bb7b,l0kwcm0tzq,Emily_Honors_Thesis_Part_2,1,113,2020-08-31T08:06:51-07:00,120.58364582062,11,versionC_stim.csv,RL_JOLVersionC.csv,"RELATIONAL Version C",OLD,,,,,,0,FreeRecall,120,120,"Please list the 50 US states in alphabetical order. The task will automatically advance to the next screen after two minutes.",,Filler1,120005,"Alabama Alaska Arizona Arkansas California Colorado Connecticut Delaware Florida Georgia Hawaii Idaho Illinois Indiana Iowa Kansas Kentucky Louisiana Maine Maryland Massachusetts Michigan Minnesota Mississippi Missouri Montana Nebraska Nevada New Hampshire New Jersey New Mexico New York North Carolina North Dakota Ohio Oklahoma Oregon Pennsylvania Rhode Island South Carolina South Dakota Tennessee Texas Utah Vermont Virginia Washington West Virginia Wisconsin Wyoming",0,-1,-1,0,0,,,0.696
5f17274c254e30027ad9bb7b,l0kwcm0tzq,Emily_Honors_Thesis_Part_2,1,114,2020-08-31T08:07:05-07:00,14.345370054245,11,versionC_stim.csv,RL_JOLVersionC.csv,"RELATIONAL Version C",OLD,,,,,,0,Instruct,-,10,"You will now be presented with the first word from each of the previously studied item pairs. Please type the missing word. If you do not know the word, you may guess or press Enter to skip forward to the next pair.",,Instruct3,13713,,,-1,-1,,,,,1
5f17274c254e30027ad9bb7b,l0kwcm0tzq,Emily_Honors_Thesis_Part_2,1,115,2020-08-31T08:07:16-07:00,11.15095615387,11,versionC_stim.csv,RL_JOLVersionC.csv,"RELATIONAL Version C",OLD,STING,HORNET,ON,B,11,28,Test,User,-,,Recall,Recall1,10591,Meagt,36.363636363636,-1,-1,0,0,,,1
5f17274c254e30027ad9bb7b,l0kwcm0tzq,Emily_Honors_Thesis_Part_2,1,116,2020-08-31T08:07:26-07:00,9.6898939609528,11,versionC_stim.csv,RL_JOLVersionC.csv,"RELATIONAL Version C",OLD,DIVISION,MATH,ON,F,33,67,Test,User,-,,Recall,Recall1,9113,,0,-1,-1,0,0,,,1
5f17274c254e30027ad9bb7b,l0kwcm0tzq,Emily_Honors_Thesis_Part_2,1,117,2020-08-31T08:07:30-07:00,4.0436859130859,11,versionC_stim.csv,RL_JOLVersionC.csv,"RELATIONAL Version C",OLD,FISH,TUNA,ON,B,25,81,Test,User,-,,Recall,Recall1,3534,Tuna,100,-1,-1,1,1,,,1
5f17274c254e30027ad9bb7b,l0kwcm0tzq,Emily_Honors_Thesis_Part_2,1,118,2020-08-31T08:07:38-07:00,8.3587899208069,11,versionC_stim.csv,RL_JOLVersionC.csv,"RELATIONAL Version C",OLD,JURY,TRIAL,ON,S,50,69,Test,User,-,,Recall,Recall1,7822,,0,-1,-1,0,0,,,1
5f17274c254e30027ad9bb7b,l0kwcm0tzq,Emily_Honors_Thesis_Part_2,1,119,2020-08-31T08:07:41-07:00,2.8372061252594,11,versionC_stim.csv,RL_JOLVersionC.csv,"RELATIONAL Version C",OLD,RIDDLE,SUGAR,ON,U,81,53,Test,User,-,,Recall,Recall1,2080,,0,-1,-1,0,0,,,1
5f17274c254e30027ad9bb7b,l0kwcm0tzq,Emily_Honors_Thesis_Part_2,1,120,2020-08-31T08:07:45-07:00,3.8645188808441,11,versionC_stim.csv,RL_JOLVersionC.csv,"RELATIONAL Version C",OLD,CHILI,HOT,ON,F,37,68,Test,User,-,,Recall,Recall1,3301,Hot,100,-1,-1,1,1,,,1
5f17274c254e30027ad9bb7b,l0kwcm0tzq,Emily_Honors_Thesis_Part_2,1,121,2020-08-31T08:07:48-07:00,3.2825911045074,11,versionC_stim.csv,RL_JOLVersionC.csv,"RELATIONAL Version C",OLD,SACKING,DIETARY,ON,U,67,8,Test,User,-,,Recall,Recall1,2774,,0,-1,-1,0,0,,,1
5f17274c254e30027ad9bb7b,l0kwcm0tzq,Emily_Honors_Thesis_Part_2,1,122,2020-08-31T08:07:51-07:00,2.8339750766754,11,versionC_stim.csv,RL_JOLVersionC.csv,"RELATIONAL Version C",OLD,SIP,DRINK,ON,F,27,75,Test,User,-,,Recall,Recall1,2205,,0,-1,-1,0,0,,,1
5f17274c254e30027ad9bb7b,l0kwcm0tzq,Emily_Honors_Thesis_Part_2,1,123,2020-08-31T08:08:00-07:00,8.5192790031433,11,versionC_stim.csv,RL_JOLVersionC.csv,"RELATIONAL Version C",OLD,CLEAN,HYGIENE,ON,B,17,50,Test,User,-,,Recall,Recall1,7997,Hygiene,100,-1,-1,1,1,,,1
5f17274c254e30027ad9bb7b,l0kwcm0tzq,Emily_Honors_Thesis_Part_2,1,124,2020-08-31T08:08:06-07:00,6.1582129001617,11,versionC_stim.csv,RL_JOLVersionC.csv,"RELATIONAL Version C",OLD,BLAZE,FIRE,ON,F,45,58,Test,User,-,,Recall,Recall1,5131,Fire,100,-1,-1,1,1,,,1
5f17274c254e30027ad9bb7b,l0kwcm0tzq,Emily_Honors_Thesis_Part_2,1,125,2020-08-31T08:08:11-07:00,5.2373199462891,11,versionC_stim.csv,RL_JOLVersionC.csv,"RELATIONAL Version C",OLD,WASTE,DUMP,ON,S,49,13,Test,User,-,,Recall,Recall1,2826,,0,-1,-1,0,0,,,1
5f17274c254e30027ad9bb7b,l0kwcm0tzq,Emily_Honors_Thesis_Part_2,1,126,2020-08-31T08:08:15-07:00,3.699627161026,11,versionC_stim.csv,RL_JOLVersionC.csv,"RELATIONAL Version C",OLD,DOG,PAW,ON,B,15,79,Test,User,-,,Recall,Recall1,3174,Paw,100,-1,-1,1,1,,,1
5f17274c254e30027ad9bb7b,l0kwcm0tzq,Emily_Honors_Thesis_Part_2,1,127,2020-08-31T08:08:20-07:00,5.5001978874207,11,versionC_stim.csv,RL_JOLVersionC.csv,"RELATIONAL Version C",OLD,ROUND,CIRCLE,ON,S,65,60,Test,User,-,,Recall,Recall1,4791,Circle,100,-1,-1,1,1,,,1
5f17274c254e30027ad9bb7b,l0kwcm0tzq,Emily_Honors_Thesis_Part_2,1,128,2020-08-31T08:08:26-07:00,5.347090959549,11,versionC_stim.csv,RL_JOLVersionC.csv,"RELATIONAL Version C",OLD,WORD,SENTENCE,ON,F,31,46,Test,User,-,,Recall,Recall1,4319,Sentence,100,-1,-1,1,1,,,1
5f17274c254e30027ad9bb7b,l0kwcm0tzq,Emily_Honors_Thesis_Part_2,1,129,2020-08-31T08:08:33-07:00,6.8274500370026,11,versionC_stim.csv,RL_JOLVersionC.csv,"RELATIONAL Version C",OLD,SITE,LOCATION,ON,S,48,24,Test,User,-,,Recall,Recall1,6122,Location,100,-1,-1,1,1,,,1
5f17274c254e30027ad9bb7b,l0kwcm0tzq,Emily_Honors_Thesis_Part_2,1,130,2020-08-31T08:08:36-07:00,3.8569860458374,11,versionC_stim.csv,RL_JOLVersionC.csv,"RELATIONAL Version C",OLD,BRONZE,ARTERY,ON,U,74,49,Test,User,-,,Recall,Recall1,2937,,0,-1,-1,0,0,,,1
5f17274c254e30027ad9bb7b,l0kwcm0tzq,Emily_Honors_Thesis_Part_2,1,131,2020-08-31T08:08:39-07:00,2.6698250770569,11,versionC_stim.csv,RL_JOLVersionC.csv,"RELATIONAL Version C",OLD,FLOOR,DISCOVER,ON,U,71,78,Test,User,-,,Recall,Recall1,2039,,0,-1,-1,0,0,,,1
5f17274c254e30027ad9bb7b,l0kwcm0tzq,Emily_Honors_Thesis_Part_2,1,132,2020-08-31T08:08:46-07:00,6.7583827972412,11,versionC_stim.csv,RL_JOLVersionC.csv,"RELATIONAL Version C",OLD,FAMINE,HUNGER,ON,F,40,39,Test,User,-,,Recall,Recall1,6134,Hungry,83.333333333333,-1,-1,0,1,,,1
5f17274c254e30027ad9bb7b,l0kwcm0tzq,Emily_Honors_Thesis_Part_2,1,133,2020-08-31T08:08:48-07:00,2.5476560592651,11,versionC_stim.csv,RL_JOLVersionC.csv,"RELATIONAL Version C",OLD,OUT,WAY,ON,B,16,54,Test,User,-,,Recall,Recall1,1762,,0,-1,-1,0,0,,,1
5f17274c254e30027ad9bb7b,l0kwcm0tzq,Emily_Honors_Thesis_Part_2,1,134,2020-08-31T08:09:10-07:00,21.546653032303,11,versionC_stim.csv,RL_JOLVersionC.csv,"RELATIONAL Version C",OLD,SALAD,LETTUCE,ON,S,59,30,Test,User,-,,Recall,Recall1,20971,Lettuce,100,-1,-1,1,1,,,1
5f17274c254e30027ad9bb7b,l0kwcm0tzq,Emily_Honors_Thesis_Part_2,1,135,2020-08-31T08:09:18-07:00,8.1398921012878,11,versionC_stim.csv,RL_JOLVersionC.csv,"RELATIONAL Version C",OLD,BUSINESS,DEATH,ON,U,72,57,Test,User,-,,Recall,Recall1,7601,Death,100,-1,-1,1,1,,,1
5f17274c254e30027ad9bb7b,l0kwcm0tzq,Emily_Honors_Thesis_Part_2,1,136,2020-08-31T08:09:21-07:00,2.4837880134583,11,versionC_stim.csv,RL_JOLVersionC.csv,"RELATIONAL Version C",OLD,SEIZE,TAKE,ON,F,29,33,Test,User,-,,Recall,Recall1,1927,,0,-1,-1,0,0,,,1
5f17274c254e30027ad9bb7b,l0kwcm0tzq,Emily_Honors_Thesis_Part_2,1,137,2020-08-31T08:09:23-07:00,1.9992039203644,11,versionC_stim.csv,RL_JOLVersionC.csv,"RELATIONAL Version C",OLD,CHORE,WORK,ON,F,39,37,Test,User,-,,Recall,Recall1,1338,,0,-1,-1,0,0,,,1
5f17274c254e30027ad9bb7b,l0kwcm0tzq,Emily_Honors_Thesis_Part_2,1,138,2020-08-31T08:09:29-07:00,6.3207859992981,11,versionC_stim.csv,RL_JOLVersionC.csv,"RELATIONAL Version C",OLD,LIVER,KIDNEY,ON,S,53,51,Test,User,-,,Recall,Recall1,5821,Kidney,100,-1,-1,1,1,,,1
5f17274c254e30027ad9bb7b,l0kwcm0tzq,Emily_Honors_Thesis_Part_2,1,139,2020-08-31T08:09:33-07:00,4.2006549835205,11,versionC_stim.csv,RL_JOLVersionC.csv,"RELATIONAL Version C",OLD,CAVE,DARK,ON,F,28,70,Test,User,-,,Recall,Recall1,3706,Dark,100,-1,-1,1,1,,,1
5f17274c254e30027ad9bb7b,l0kwcm0tzq,Emily_Honors_Thesis_Part_2,1,140,2020-08-31T08:09:36-07:00,3.3596949577332,11,versionC_stim.csv,RL_JOLVersionC.csv,"RELATIONAL Version C",OLD,ADD,VALLEY,ON,U,82,83,Test,User,-,,Recall,Recall1,2771,,0,-1,-1,0,0,,,1
5f17274c254e30027ad9bb7b,l0kwcm0tzq,Emily_Honors_Thesis_Part_2,1,141,2020-08-31T08:09:38-07:00,1.8389899730682,11,versionC_stim.csv,RL_JOLVersionC.csv,"RELATIONAL Version C",OLD,VASE,KING,ON,U,85,31,Test,User,-,,Recall,Recall1,1309,,0,-1,-1,0,0,,,1
5f17274c254e30027ad9bb7b,l0kwcm0tzq,Emily_Honors_Thesis_Part_2,1,142,2020-08-31T08:09:42-07:00,4.116131067276,11,versionC_stim.csv,RL_JOLVersionC.csv,"RELATIONAL Version C",OLD,SODA,POP,ON,S,56,27,Test,User,-,,Recall,Recall1,3545,Pop,100,-1,-1,1,1,,,1
5f17274c254e30027ad9bb7b,l0kwcm0tzq,Emily_Honors_Thesis_Part_2,1,143,2020-08-31T08:09:45-07:00,2.1564540863037,11,versionC_stim.csv,RL_JOLVersionC.csv,"RELATIONAL Version C",OLD,ATTIRE,CLOTHES,ON,F,43,45,Test,User,-,,Recall,Recall1,1610,,0,-1,-1,0,0,,,1
5f17274c254e30027ad9bb7b,l0kwcm0tzq,Emily_Honors_Thesis_Part_2,1,144,2020-08-31T08:09:48-07:00,3.2887389659882,11,versionC_stim.csv,RL_JOLVersionC.csv,"RELATIONAL Version C",OLD,BIRD,SWAN,ON,B,14,10,Test,User,-,,Recall,Recall1,2648,,0,-1,-1,0,0,,,1
5f17274c254e30027ad9bb7b,l0kwcm0tzq,Emily_Honors_Thesis_Part_2,1,145,2020-08-31T08:09:52-07:00,4.3210859298706,11,versionC_stim.csv,RL_JOLVersionC.csv,"RELATIONAL Version C",OLD,RACKET,BALL,ON,F,38,66,Test,User,-,,Recall,Recall1,3669,Ball,100,-1,-1,1,1,,,1
5f17274c254e30027ad9bb7b,l0kwcm0tzq,Emily_Honors_Thesis_Part_2,1,146,2020-08-31T08:09:55-07:00,2.3560869693756,11,versionC_stim.csv,RL_JOLVersionC.csv,"RELATIONAL Version C",OLD,SIGHT,DEBATE,ON,U,73,17,Test,User,-,,Recall,Recall1,1787,,0,-1,-1,0,0,,,1
5f17274c254e30027ad9bb7b,l0kwcm0tzq,Emily_Honors_Thesis_Part_2,1,147,2020-08-31T08:09:57-07:00,2.0964391231537,11,versionC_stim.csv,RL_JOLVersionC.csv,"RELATIONAL Version C",OLD,COW,HERD,ON,B,22,76,Test,User,-,,Recall,Recall1,1298,,0,-1,-1,0,0,,,1
5f17274c254e30027ad9bb7b,l0kwcm0tzq,Emily_Honors_Thesis_Part_2,1,148,2020-08-31T08:10:02-07:00,5.4035818576813,11,versionC_stim.csv,RL_JOLVersionC.csv,"RELATIONAL Version C",OLD,CHEESE,WINE,ON,S,57,55,Test,User,-,,Recall,Recall1,4825,Wine,100,-1,-1,1,1,,,1
5f17274c254e30027ad9bb7b,l0kwcm0tzq,Emily_Honors_Thesis_Part_2,1,149,2020-08-31T08:10:08-07:00,6.2776560783386,11,versionC_stim.csv,RL_JOLVersionC.csv,"RELATIONAL Version C",OLD,HUNGRY,PARK,ON,U,68,36,Test,User,-,,Recall,Recall1,5791,Faminne,18.181818181818,-1,-1,0,0,,,1
5f17274c254e30027ad9bb7b,l0kwcm0tzq,Emily_Honors_Thesis_Part_2,1,150,2020-08-31T08:10:10-07:00,2.171012878418,11,versionC_stim.csv,RL_JOLVersionC.csv,"RELATIONAL Version C",OLD,HAMMER,CHISEL,ON,B,9,12,Test,User,-,,Recall,Recall1,1667,,0,-1,-1,0,0,,,1
5f17274c254e30027ad9bb7b,l0kwcm0tzq,Emily_Honors_Thesis_Part_2,1,151,2020-08-31T08:10:13-07:00,2.1192932128906,11,versionC_stim.csv,RL_JOLVersionC.csv,"RELATIONAL Version C",OLD,BAD,DELINQUENT,ON,B,6,32,Test,User,-,,Recall,Recall1,1557,,0,-1,-1,0,0,,,1
5f17274c254e30027ad9bb7b,l0kwcm0tzq,Emily_Honors_Thesis_Part_2,1,152,2020-08-31T08:10:18-07:00,5.1692187786102,11,versionC_stim.csv,RL_JOLVersionC.csv,"RELATIONAL Version C",OLD,BAR,GRILL,ON,S,52,84,Test,User,-,,Recall,Recall1,4617,Chocolate,14.285714285714,-1,-1,0,0,,,1
5f17274c254e30027ad9bb7b,l0kwcm0tzq,Emily_Honors_Thesis_Part_2,1,153,2020-08-31T08:10:20-07:00,2.0238471031189,11,versionC_stim.csv,RL_JOLVersionC.csv,"RELATIONAL Version C",OLD,WATER,BRIDGE,ON,B,18,64,Test,User,-,,Recall,Recall1,1472,,0,-1,-1,0,0,,,1
5f17274c254e30027ad9bb7b,l0kwcm0tzq,Emily_Honors_Thesis_Part_2,1,154,2020-08-31T08:10:25-07:00,5.0140280723572,11,versionC_stim.csv,RL_JOLVersionC.csv,"RELATIONAL Version C",OLD,BEE,HONEY,ON,S,63,56,Test,User,-,,Recall,Recall1,4454,Honey,100,-1,-1,1,1,,,1
5f17274c254e30027ad9bb7b,l0kwcm0tzq,Emily_Honors_Thesis_Part_2,1,155,2020-08-31T08:10:27-07:00,2.4000968933105,11,versionC_stim.csv,RL_JOLVersionC.csv,"RELATIONAL Version C",OLD,FANTASTIC,GREAT,ON,F,35,16,Test,User,-,,Recall,Recall1,1760,,0,-1,-1,0,0,,,1
5f17274c254e30027ad9bb7b,l0kwcm0tzq,Emily_Honors_Thesis_Part_2,1,156,2020-08-31T08:10:30-07:00,2.3371109962463,11,versionC_stim.csv,RL_JOLVersionC.csv,"RELATIONAL Version C",OLD,TUCK,ALLOW,ON,U,78,20,Test,User,-,,Recall,Recall1,1737,,0,-1,-1,0,0,,,1
5f17274c254e30027ad9bb7b,l0kwcm0tzq,Emily_Honors_Thesis_Part_2,1,157,2020-08-31T08:10:31-07:00,1.6060020923615,11,versionC_stim.csv,RL_JOLVersionC.csv,"RELATIONAL Version C",OLD,WASP,BUG,ON,F,32,11,Test,User,-,,Recall,Recall1,1035,,0,-1,-1,0,0,,,1
5f17274c254e30027ad9bb7b,l0kwcm0tzq,Emily_Honors_Thesis_Part_2,1,158,2020-08-31T08:10:37-07:00,6.003555059433,11,versionC_stim.csv,RL_JOLVersionC.csv,"RELATIONAL Version C",OLD,POSITION,MACHINE,ON,U,76,35,Test,User,-,,Recall,Recall1,5448,Location,40,-1,-1,0,0,,,1
5f17274c254e30027ad9bb7b,l0kwcm0tzq,Emily_Honors_Thesis_Part_2,1,159,2020-08-31T08:10:39-07:00,2.1919739246368,11,versionC_stim.csv,RL_JOLVersionC.csv,"RELATIONAL Version C",OLD,STOMACH,DIGESTION,ON,B,7,26,Test,User,-,,Recall,Recall1,1680,,0,-1,-1,0,0,,,1
5f17274c254e30027ad9bb7b,l0kwcm0tzq,Emily_Honors_Thesis_Part_2,1,160,2020-08-31T08:10:53-07:00,13.591037034988,11,versionC_stim.csv,RL_JOLVersionC.csv,"RELATIONAL Version C",OLD,TOILET,BATHROOM,ON,S,58,52,Test,User,-,,Recall,Recall1,13035,Paper,30.769230769231,-1,-1,0,0,,,1
5f17274c254e30027ad9bb7b,l0kwcm0tzq,Emily_Honors_Thesis_Part_2,1,161,2020-08-31T08:10:55-07:00,2.3851449489594,11,versionC_stim.csv,RL_JOLVersionC.csv,"RELATIONAL Version C",OLD,BELT,SOON,ON,U,70,9,Test,User,-,,Recall,Recall1,1619,,0,-1,-1,0,0,,,1
5f17274c254e30027ad9bb7b,l0kwcm0tzq,Emily_Honors_Thesis_Part_2,1,162,2020-08-31T08:10:57-07:00,1.9259560108185,11,versionC_stim.csv,RL_JOLVersionC.csv,"RELATIONAL Version C",OLD,ASSIGNMENT,DUE,ON,S,46,22,Test,User,-,,Recall,Recall1,1366,,0,-1,-1,0,0,,,1
5f17274c254e30027ad9bb7b,l0kwcm0tzq,Emily_Honors_Thesis_Part_2,1,163,2020-08-31T08:10:59-07:00,1.7983510494232,11,versionC_stim.csv,RL_JOLVersionC.csv,"RELATIONAL Version C",OLD,FLOWER,ORCHID,ON,B,24,38,Test,User,-,,Recall,Recall1,1189,,0,-1,-1,0,0,,,1
5f17274c254e30027ad9bb7b,l0kwcm0tzq,Emily_Honors_Thesis_Part_2,1,164,2020-08-31T08:11:01-07:00,1.6408569812775,11,versionC_stim.csv,RL_JOLVersionC.csv,"RELATIONAL Version C",OLD,ACCIDENT,STRONG,ON,U,80,43,Test,User,-,,Recall,Recall1,1138,,0,-1,-1,0,0,,,1
5f17274c254e30027ad9bb7b,l0kwcm0tzq,Emily_Honors_Thesis_Part_2,1,165,2020-08-31T08:11:04-07:00,2.8410658836365,11,versionC_stim.csv,RL_JOLVersionC.csv,"RELATIONAL Version C",OLD,COLD,BITTER,ON,B,12,48,Test,User,-,,Recall,Recall1,2133,,0,-1,-1,0,0,,,1
5f17274c254e30027ad9bb7b,l0kwcm0tzq,Emily_Honors_Thesis_Part_2,1,166,2020-08-31T08:11:14-07:00,10.368805170059,11,versionC_stim.csv,RL_JOLVersionC.csv,"RELATIONAL Version C",OLD,END,BEGIN,ON,S,54,72,Test,User,-,,Recall,Recall1,9809,Beginning,71.428571428571,-1,-1,0,0,,,1
5f17274c254e30027ad9bb7b,l0kwcm0tzq,Emily_Honors_Thesis_Part_2,1,167,2020-08-31T08:11:17-07:00,3.511255979538,11,versionC_stim.csv,RL_JOLVersionC.csv,"RELATIONAL Version C",OLD,MONEY,WAGE,ON,B,8,25,Test,User,-,,Recall,Recall1,2971,,0,-1,-1,0,0,,,1
5f17274c254e30027ad9bb7b,l0kwcm0tzq,Emily_Honors_Thesis_Part_2,1,168,2020-08-31T08:11:27-07:00,9.7268970012665,11,versionC_stim.csv,RL_JOLVersionC.csv,"RELATIONAL Version C",OLD,WAR,REVOLUTION,ON,B,20,19,Test,User,-,,Recall,Recall1,9049,Revolution,100,-1,-1,1,1,,,1
5f17274c254e30027ad9bb7b,l0kwcm0tzq,Emily_Honors_Thesis_Part_2,1,169,2020-08-31T08:11:46-07:00,19.361385822296,11,versionC_stim.csv,RL_JOLVersionC.csv,"RELATIONAL Version C",OLD,FOOT,SHOE,ON,S,60,80,Test,User,-,,Recall,Recall1,18791,Shoes,88.888888888889,-1,-1,0,1,,,1
5f17274c254e30027ad9bb7b,l0kwcm0tzq,Emily_Honors_Thesis_Part_2,1,170,2020-08-31T08:11:48-07:00,1.8715531826019,11,versionC_stim.csv,RL_JOLVersionC.csv,"RELATIONAL Version C",OLD,TALK,DISCUSSION,ON,B,21,18,Test,User,-,,Recall,Recall1,1293,,0,-1,-1,0,0,,,1
5f17274c254e30027ad9bb7b,l0kwcm0tzq,Emily_Honors_Thesis_Part_2,1,171,2020-08-31T08:11:51-07:00,2.376128911972,11,versionC_stim.csv,RL_JOLVersionC.csv,"RELATIONAL Version C",OLD,WIND,BLOW,ON,S,55,29,Test,User,-,,Recall,Recall1,1744,,0,-1,-1,0,0,,,1
5f17274c254e30027ad9bb7b,l0kwcm0tzq,Emily_Honors_Thesis_Part_2,1,172,2020-08-31T08:11:53-07:00,1.7777280807495,11,versionC_stim.csv,RL_JOLVersionC.csv,"RELATIONAL Version C",OLD,NEWS,EDITOR,ON,B,10,71,Test,User,-,,Recall,Recall1,1214,,0,-1,-1,0,0,,,1
5f17274c254e30027ad9bb7b,l0kwcm0tzq,Emily_Honors_Thesis_Part_2,1,173,2020-08-31T08:11:56-07:00,3.29900598526,11,versionC_stim.csv,RL_JOLVersionC.csv,"RELATIONAL Version C",OLD,WOMAN,LIFT,ON,U,69,44,Test,User,-,,Recall,Recall1,2519,,0,-1,-1,0,0,,,1
5f17274c254e30027ad9bb7b,l0kwcm0tzq,Emily_Honors_Thesis_Part_2,1,174,2020-08-31T08:11:59-07:00,3.5437018871307,11,versionC_stim.csv,RL_JOLVersionC.csv,"RELATIONAL Version C",OLD,DROWSY,SLEEP,ON,F,41,73,Test,User,-,,Recall,Recall1,2947,,0,-1,-1,0,0,,,1
5f17274c254e30027ad9bb7b,l0kwcm0tzq,Emily_Honors_Thesis_Part_2,1,175,2020-08-31T08:12:05-07:00,5.8314690589905,11,versionC_stim.csv,RL_JOLVersionC.csv,"RELATIONAL Version C",OLD,SICK,HIDE,ON,U,84,42,Test,User,-,,Recall,Recall1,5010,Hide,100,-1,-1,1,1,,,1
5f17274c254e30027ad9bb7b,l0kwcm0tzq,Emily_Honors_Thesis_Part_2,1,176,2020-08-31T08:12:09-07:00,3.8649289608002,11,versionC_stim.csv,RL_JOLVersionC.csv,"RELATIONAL Version C",OLD,PLANT,ROOT,ON,B,13,34,Test,User,-,,Recall,Recall1,2713,,0,-1,-1,0,0,,,1
5f17274c254e30027ad9bb7b,l0kwcm0tzq,Emily_Honors_Thesis_Part_2,1,177,2020-08-31T08:12:12-07:00,2.7956650257111,11,versionC_stim.csv,RL_JOLVersionC.csv,"RELATIONAL Version C",OLD,DEFINITION,MEANING,ON,S,62,62,Test,User,-,,Recall,Recall1,1986,,0,-1,-1,0,0,,,1
5f17274c254e30027ad9bb7b,l0kwcm0tzq,Emily_Honors_Thesis_Part_2,1,178,2020-08-31T08:12:17-07:00,5.3233799934387,11,versionC_stim.csv,RL_JOLVersionC.csv,"RELATIONAL Version C",OLD,ROCK,GEOLOGY,ON,B,19,7,Test,User,-,,Recall,Recall1,4340,Geology,100,-1,-1,1,1,,,1
5f17274c254e30027ad9bb7b,l0kwcm0tzq,Emily_Honors_Thesis_Part_2,1,179,2020-08-31T08:12:19-07:00,2.1113269329071,11,versionC_stim.csv,RL_JOLVersionC.csv,"RELATIONAL Version C",OLD,LATCH,KEY,ON,F,36,40,Test,User,-,,Recall,Recall1,1296,,0,-1,-1,0,0,,,1
5f17274c254e30027ad9bb7b,l0kwcm0tzq,Emily_Honors_Thesis_Part_2,1,180,2020-08-31T08:12:27-07:00,7.3021230697632,11,versionC_stim.csv,RL_JOLVersionC.csv,"RELATIONAL Version C",OLD,CHILD,BABY,ON,S,64,74,Test,User,-,,Recall,Recall1,6319,Baby,100,-1,-1,1,1,,,1
5f17274c254e30027ad9bb7b,l0kwcm0tzq,Emily_Honors_Thesis_Part_2,1,181,2020-08-31T08:12:33-07:00,6.7212929725647,11,versionC_stim.csv,RL_JOLVersionC.csv,"RELATIONAL Version C",OLD,DESIGN,ARCHITECTURE,ON,S,51,63,Test,User,-,,Recall,Recall1,6145,Architecture,100,-1,-1,1,1,,,1
5f17274c254e30027ad9bb7b,l0kwcm0tzq,Emily_Honors_Thesis_Part_2,1,182,2020-08-31T08:12:35-07:00,1.8620109558105,11,versionC_stim.csv,RL_JOLVersionC.csv,"RELATIONAL Version C",OLD,ENOUGH,FULL,ON,F,26,47,Test,User,-,,Recall,Recall1,1279,,0,-1,-1,0,0,,,1
5f17274c254e30027ad9bb7b,l0kwcm0tzq,Emily_Honors_Thesis_Part_2,1,183,2020-08-31T08:12:42-07:00,6.9579169750214,11,versionC_stim.csv,RL_JOLVersionC.csv,"RELATIONAL Version C",OLD,CAR,HAPPY,ON,U,77,14,Test,User,-,,Recall,Recall1,6400,Jam,25,-1,-1,0,0,,,1
5f17274c254e30027ad9bb7b,l0kwcm0tzq,Emily_Honors_Thesis_Part_2,1,184,2020-08-31T08:12:44-07:00,2.0502970218658,11,versionC_stim.csv,RL_JOLVersionC.csv,"RELATIONAL Version C",OLD,AMOUNT,NUMBER,ON,S,47,21,Test,User,-,,Recall,Recall1,1464,,0,-1,-1,0,0,,,1
5f17274c254e30027ad9bb7b,l0kwcm0tzq,Emily_Honors_Thesis_Part_2,1,185,2020-08-31T08:12:46-07:00,1.7677750587463,11,versionC_stim.csv,RL_JOLVersionC.csv,"RELATIONAL Version C",OLD,HAND,FIX,ON,U,75,15,Test,User,-,,Recall,Recall1,1203,,0,-1,-1,0,0,,,1
5f17274c254e30027ad9bb7b,l0kwcm0tzq,Emily_Honors_Thesis_Part_2,1,186,2020-08-31T08:12:48-07:00,1.6198229789734,11,versionC_stim.csv,RL_JOLVersionC.csv,"RELATIONAL Version C",OLD,STENCH,SMELL,ON,F,42,41,Test,User,-,,Recall,Recall1,1102,,0,-1,-1,0,0,,,1
5f17274c254e30027ad9bb7b,l0kwcm0tzq,Emily_Honors_Thesis_Part_2,1,187,2020-08-31T08:12:49-07:00,1.511862039566,11,versionC_stim.csv,RL_JOLVersionC.csv,"RELATIONAL Version C",OLD,FUTURE,PAST,ON,S,61,77,Test,User,-,,Recall,Recall1,995,,0,-1,-1,0,0,,,1
5f17274c254e30027ad9bb7b,l0kwcm0tzq,Emily_Honors_Thesis_Part_2,1,188,2020-08-31T08:12:51-07:00,1.6485419273376,11,versionC_stim.csv,RL_JOLVersionC.csv,"RELATIONAL Version C",OLD,PILOT,PLANE,ON,F,44,85,Test,User,-,,Recall,Recall1,1049,,0,-1,-1,0,0,,,1
5f17274c254e30027ad9bb7b,l0kwcm0tzq,Emily_Honors_Thesis_Part_2,1,189,2020-08-31T08:12:53-07:00,2.1599249839783,11,versionC_stim.csv,RL_JOLVersionC.csv,"RELATIONAL Version C",OLD,LION,ART,ON,U,79,86,Test,User,-,,Recall,Recall1,1576,,0,-1,-1,0,0,,,1
5f17274c254e30027ad9bb7b,l0kwcm0tzq,Emily_Honors_Thesis_Part_2,1,190,2020-08-31T08:12:55-07:00,1.7441871166229,11,versionC_stim.csv,RL_JOLVersionC.csv,"RELATIONAL Version C",OLD,CLUTTER,PUSHER,ON,U,66,23,Test,User,-,,Recall,Recall1,1179,,0,-1,-1,0,0,,,1
5f17274c254e30027ad9bb7b,l0kwcm0tzq,Emily_Honors_Thesis_Part_2,1,191,2020-08-31T08:13:00-07:00,5.6958680152893,11,versionC_stim.csv,RL_JOLVersionC.csv,"RELATIONAL Version C",OLD,CARD,CREDIT,ON,B,23,82,Test,User,-,,Recall,Recall1,4459,Credit,100,-1,-1,1,1,,,1
5f17274c254e30027ad9bb7b,l0kwcm0tzq,Emily_Honors_Thesis_Part_2,1,192,2020-08-31T08:13:05-07:00,4.8682758808136,11,versionC_stim.csv,RL_JOLVersionC.csv,"RELATIONAL Version C",OLD,ATTORNEY,LAW,ON,F,34,61,Test,User,-,,Recall,Recall1,3142,,0,-1,-1,0,0,,,1
5f17274c254e30027ad9bb7b,l0kwcm0tzq,Emily_Honors_Thesis_Part_2,1,193,2020-08-31T08:13:07-07:00,2.0032210350037,11,versionC_stim.csv,RL_JOLVersionC.csv,"RELATIONAL Version C",OLD,GROWTH,HEIGHT,ON,F,30,65,Test,User,-,,Recall,Recall1,1393,,0,-1,-1,0,0,,,1
5f17274c254e30027ad9bb7b,l0kwcm0tzq,Emily_Honors_Thesis_Part_2,1,194,2020-08-31T08:13:09-07:00,1.6788499355316,11,versionC_stim.csv,RL_JOLVersionC.csv,"RELATIONAL Version C",OLD,WOULD,CASH,ON,U,83,59,Test,User,-,,Recall,Recall1,1139,,0,-1,-1,0,0,,,1
5f17274c254e30027ad9bb7b,l0kwcm0tzq,Emily_Honors_Thesis_Part_2,1,195,2020-08-31T08:13:20-07:00,11.442931175232,11,versionC_stim.csv,RL_JOLVersionC.csv,"RELATIONAL Version C",OLD,,,,,,0,Instruct,-,10,"You will now be presented with a new set of word pairs. Please study each pair. Remember that your memory will be tested! When finished, press Enter to move to the next pair.",Initial_Instruct,Instruct4,10851,,,-1,-1,,,,,1
5f17274c254e30027ad9bb7b,l0kwcm0tzq,Emily_Honors_Thesis_Part_2,1,196,2020-08-31T08:13:32-07:00,11.337699890137,11,versionC_stim.csv,RL_JOLVersionC.csv,"RELATIONAL Version C",OLD,,,,,,0,Instruct,,10,"You will again be asked to rate your ability to remember these items using a 0 to 100 scale. Remember to use the full range of the scale!",,Instruct10,10838,,,-1,-1,,,,,1
5f17274c254e30027ad9bb7b,l0kwcm0tzq,Emily_Honors_Thesis_Part_2,1,197,2020-08-31T08:13:54-07:00,21.873268127441,11,versionC_stim.csv,RL_JOLVersionC.csv,"RELATIONAL Version C",OLD,,,,,,0,Instruct,-,15,"As you study and make your ratings, please think about how the two concepts are RELATED to each other. For example, if you see the pair TURTLE-CAT, think about how both are alive, they are both animals, and both can be kept as pets.",,Instruct20,21099,,,-1,-1,,,,,1
5f17274c254e30027ad9bb7b,l0kwcm0tzq,Emily_Honors_Thesis_Part_2,1,198,2020-08-31T08:14:33-07:00,39.346694946289,11,versionC_stim.csv,RL_JOLVersionC.csv,"RELATIONAL Version C",OLD,,,,,,0,FreeRecall,-,10,"What you should think about as you study each item pair? Type your response in the box below.",,CHECK4,38653,"Both of them are animals. Both can be a pet. ",0,-1,-1,0,0,,,1
5f17274c254e30027ad9bb7b,l0kwcm0tzq,Emily_Honors_Thesis_Part_2,1,199,2020-08-31T08:14:35-07:00,2.3891649246216,11,versionC_stim.csv,RL_JOLVersionC.csv,"RELATIONAL Version C",OLD,,,,,,0,Instruct,User,-,"Press Enter when you are readty to begin",,Instruct11,1834,,,-1,-1,,,,,1
5f17274c254e30027ad9bb7b,l0kwcm0tzq,Emily_Honors_Thesis_Part_2,1,200,2020-08-31T08:14:40-07:00,5.0779070854187,11,versionC_stim.csv,RL_JOLVersionC.csv,"RELATIONAL Version C",OLD,POTATO,CARROT,Buffer3,Buffer,91,93,JOL,User,-,"How likely are you to correctly recall the second item in the pair?|Type your response on a scale from 0-100 and then press Enter.",Study/JOL,BUFFER3,4551,,,-1,-1,,,,80,1
5f17274c254e30027ad9bb7b,l0kwcm0tzq,Emily_Honors_Thesis_Part_2,1,201,2020-08-31T08:14:45-07:00,4.5635118484497,11,versionC_stim.csv,RL_JOLVersionC.csv,"RELATIONAL Version C",OLD,SHED,TOOL,Buffer3,Buffer,178,92,JOL,User,-,"How likely are you to correctly recall the second item in the pair?|Type your response on a scale from 0-100 and then press Enter.",Study/JOL,BUFFER3,4018,,,-1,-1,,,,30,1
5f17274c254e30027ad9bb7b,l0kwcm0tzq,Emily_Honors_Thesis_Part_2,1,202,2020-08-31T08:15:07-07:00,22.366766214371,11,versionC_stim.csv,RL_JOLVersionC.csv,"RELATIONAL Version C",OLD,FISH,SHRIMP,Buffer3,Buffer,93,95,JOL,User,-,"How likely are you to correctly recall the second item in the pair?|Type your response on a scale from 0-100 and then press Enter.",Study/JOL,BUFFER3,20877,,,-1,-1,,,,80,0.396
5f17274c254e30027ad9bb7b,l0kwcm0tzq,Emily_Honors_Thesis_Part_2,1,203,2020-08-31T08:15:13-07:00,6.1908369064331,11,versionC_stim.csv,RL_JOLVersionC.csv,"RELATIONAL Version C",OLD,SPOOKY,OCTOBER,Buffer3,Buffer,180,94,JOL,User,-,"How likely are you to correctly recall the second item in the pair?|Type your response on a scale from 0-100 and then press Enter.",Study/JOL,BUFFER3,5546,,,-1,-1,,,,70,1
5f17274c254e30027ad9bb7b,l0kwcm0tzq,Emily_Honors_Thesis_Part_2,1,204,2020-08-31T08:15:18-07:00,4.3878810405731,11,versionC_stim.csv,RL_JOLVersionC.csv,"RELATIONAL Version C",OLD,STRING,NOODLE,Buffer3,Buffer,92,96,JOL,User,-,"How likely are you to correctly recall the second item in the pair?|Type your response on a scale from 0-100 and then press Enter.",Study/JOL,BUFFER3,3862,,,-1,-1,,,,60,1
5f17274c254e30027ad9bb7b,l0kwcm0tzq,Emily_Honors_Thesis_Part_2,1,205,2020-08-31T08:15:23-07:00,4.8898859024048,11,versionC_stim.csv,RL_JOLVersionC.csv,"RELATIONAL Version C",OLD,TAN,SUN,ON2,S,155,97,JOL,User,-,"How likely are you to correctly recall the second item in the pair?|Type your response on a scale from 0-100 and then press Enter.",Study/JOL,"Study Phase2",4343,,,-1,-1,,,,80,1
5f17274c254e30027ad9bb7b,l0kwcm0tzq,Emily_Honors_Thesis_Part_2,1,206,2020-08-31T08:15:29-07:00,6.1237111091614,11,versionC_stim.csv,RL_JOLVersionC.csv,"RELATIONAL Version C",OLD,WAX,CANDLE,ON2,S,139,171,JOL,User,-,"How likely are you to correctly recall the second item in the pair?|Type your response on a scale from 0-100 and then press Enter.",Study/JOL,"Study Phase2",5587,,,-1,-1,,,,80,1
5f17274c254e30027ad9bb7b,l0kwcm0tzq,Emily_Honors_Thesis_Part_2,1,207,2020-08-31T08:15:33-07:00,4.4561939239502,11,versionC_stim.csv,RL_JOLVersionC.csv,"RELATIONAL Version C",OLD,JOKE,KEYS,ON2,U,165,175,JOL,User,-,"How likely are you to correctly recall the second item in the pair?|Type your response on a scale from 0-100 and then press Enter.",Study/JOL,"Study Phase2",2927,,,-1,-1,,,,30,1
5f17274c254e30027ad9bb7b,l0kwcm0tzq,Emily_Honors_Thesis_Part_2,1,208,2020-08-31T08:15:40-07:00,6.3525040149689,11,versionC_stim.csv,RL_JOLVersionC.csv,"RELATIONAL Version C",OLD,FLIP,TURN,ON2,F,116,167,JOL,User,-,"How likely are you to correctly recall the second item in the pair?|Type your response on a scale from 0-100 and then press Enter.",Study/JOL,"Study Phase2",5550,,,-1,-1,,,,78,1
5f17274c254e30027ad9bb7b,l0kwcm0tzq,Emily_Honors_Thesis_Part_2,1,209,2020-08-31T08:15:50-07:00,10.159491062164,11,versionC_stim.csv,RL_JOLVersionC.csv,"RELATIONAL Version C",OLD,TEMPER,TANTRUM,ON2,S,154,176,JOL,User,-,"How likely are you to correctly recall the second item in the pair?|Type your response on a scale from 0-100 and then press Enter.",Study/JOL,"Study Phase2",9477,,,-1,-1,,,,70,1
5f17274c254e30027ad9bb7b,l0kwcm0tzq,Emily_Honors_Thesis_Part_2,1,210,2020-08-31T08:15:54-07:00,4.5189039707184,11,versionC_stim.csv,RL_JOLVersionC.csv,"RELATIONAL Version C",OLD,FIGHT,FEUD,ON2,B,113,155,JOL,User,-,"How likely are you to correctly recall the second item in the pair?|Type your response on a scale from 0-100 and then press Enter.",Study/JOL,"Study Phase2",3968,,,-1,-1,,,,70,1
5f17274c254e30027ad9bb7b,l0kwcm0tzq,Emily_Honors_Thesis_Part_2,1,211,2020-08-31T08:15:59-07:00,4.8409519195557,11,versionC_stim.csv,RL_JOLVersionC.csv,"RELATIONAL Version C",OLD,WINDSHIELD,CAR,ON2,F,117,159,JOL,User,-,"How likely are you to correctly recall the second item in the pair?|Type your response on a scale from 0-100 and then press Enter.",Study/JOL,"Study Phase2",4310,,,-1,-1,,,,60,1
5f17274c254e30027ad9bb7b,l0kwcm0tzq,Emily_Honors_Thesis_Part_2,1,212,2020-08-31T08:16:07-07:00,8.1518139839172,11,versionC_stim.csv,RL_JOLVersionC.csv,"RELATIONAL Version C",OLD,BANG,FUZZY,ON2,U,168,137,JOL,User,-,"How likely are you to correctly recall the second item in the pair?|Type your response on a scale from 0-100 and then press Enter.",Study/JOL,"Study Phase2",7648,,,-1,-1,,,,40,1
5f17274c254e30027ad9bb7b,l0kwcm0tzq,Emily_Honors_Thesis_Part_2,1,213,2020-08-31T08:16:12-07:00,4.2470450401306,11,versionC_stim.csv,RL_JOLVersionC.csv,"RELATIONAL Version C",OLD,OBTAIN,MEAT,ON2,U,161,113,JOL,User,-,"How likely are you to correctly recall the second item in the pair?|Type your response on a scale from 0-100 and then press Enter.",Study/JOL,"Study Phase2",3645,,,-1,-1,,,,60,1
5f17274c254e30027ad9bb7b,l0kwcm0tzq,Emily_Honors_Thesis_Part_2,1,214,2020-08-31T08:16:18-07:00,6.2699611186981,11,versionC_stim.csv,RL_JOLVersionC.csv,"RELATIONAL Version C",OLD,HAVE,OWN,ON2,S,153,146,JOL,User,-,"How likely are you to correctly recall the second item in the pair?|Type your response on a scale from 0-100 and then press Enter.",Study/JOL,"Study Phase2",5681,,,-1,-1,,,,90,1
5f17274c254e30027ad9bb7b,l0kwcm0tzq,Emily_Honors_Thesis_Part_2,1,215,2020-08-31T08:16:25-07:00,6.9503338336945,11,versionC_stim.csv,RL_JOLVersionC.csv,"RELATIONAL Version C",OLD,NAP,SLEEP,ON2,F,134,158,JOL,User,-,"How likely are you to correctly recall the second item in the pair?|Type your response on a scale from 0-100 and then press Enter.",Study/JOL,"Study Phase2",6401,,,-1,-1,,,,98,1
5f17274c254e30027ad9bb7b,l0kwcm0tzq,Emily_Honors_Thesis_Part_2,1,216,2020-08-31T08:16:31-07:00,6.139885187149,11,versionC_stim.csv,RL_JOLVersionC.csv,"RELATIONAL Version C",OLD,REEL,ROD,ON2,S,150,132,JOL,User,-,"How likely are you to correctly recall the second item in the pair?|Type your response on a scale from 0-100 and then press Enter.",Study/JOL,"Study Phase2",5569,,,-1,-1,,,,40,1
5f17274c254e30027ad9bb7b,l0kwcm0tzq,Emily_Honors_Thesis_Part_2,1,217,2020-08-31T08:16:38-07:00,6.7248268127441,11,versionC_stim.csv,RL_JOLVersionC.csv,"RELATIONAL Version C",OLD,FAVORITE,BEST,ON2,F,125,130,JOL,User,-,"How likely are you to correctly recall the second item in the pair?|Type your response on a scale from 0-100 and then press Enter.",Study/JOL,"Study Phase2",6179,,,-1,-1,,,,89,1
5f17274c254e30027ad9bb7b,l0kwcm0tzq,Emily_Honors_Thesis_Part_2,1,218,2020-08-31T08:16:42-07:00,4.6493101119995,11,versionC_stim.csv,RL_JOLVersionC.csv,"RELATIONAL Version C",OLD,CLOTH,STRETCH,ON2,U,157,151,JOL,User,-,"How likely are you to correctly recall the second item in the pair?|Type your response on a scale from 0-100 and then press Enter.",Study/JOL,"Study Phase2",4149,,,-1,-1,,,,40,1
5f17274c254e30027ad9bb7b,l0kwcm0tzq,Emily_Honors_Thesis_Part_2,1,219,2020-08-31T08:16:51-07:00,9.0674810409546,11,versionC_stim.csv,RL_JOLVersionC.csv,"RELATIONAL Version C",OLD,DRINK,WATER,ON2,S,143,138,JOL,User,-,"How likely are you to correctly recall the second item in the pair?|Type your response on a scale from 0-100 and then press Enter.",Study/JOL,"Study Phase2",8497,,,-1,-1,,,,80,1
5f17274c254e30027ad9bb7b,l0kwcm0tzq,Emily_Honors_Thesis_Part_2,1,220,2020-08-31T08:16:59-07:00,7.7985119819641,11,versionC_stim.csv,RL_JOLVersionC.csv,"RELATIONAL Version C",OLD,MORNING,TEMPERATURE,ON2,U,173,104,JOL,User,-,"How likely are you to correctly recall the second item in the pair?|Type your response on a scale from 0-100 and then press Enter.",Study/JOL,"Study Phase2",7269,,,-1,-1,,,,20,1
5f17274c254e30027ad9bb7b,l0kwcm0tzq,Emily_Honors_Thesis_Part_2,1,221,2020-08-31T08:17:08-07:00,8.4119210243225,11,versionC_stim.csv,RL_JOLVersionC.csv,"RELATIONAL Version C",OLD,PANTHER,CAT,ON2,F,126,121,JOL,User,-,"How likely are you to correctly recall the second item in the pair?|Type your response on a scale from 0-100 and then press Enter.",Study/JOL,"Study Phase2",7850,,,-1,-1,,,,90,1
5f17274c254e30027ad9bb7b,l0kwcm0tzq,Emily_Honors_Thesis_Part_2,1,222,2020-08-31T08:17:26-07:00,18.567979812622,11,versionC_stim.csv,RL_JOLVersionC.csv,"RELATIONAL Version C",OLD,BRAWL,FIGHT,ON2,F,135,136,JOL,User,-,"How likely are you to correctly recall the second item in the pair?|Type your response on a scale from 0-100 and then press Enter.",Study/JOL,"Study Phase2",18015,,,-1,-1,,,,80,1
5f17274c254e30027ad9bb7b,l0kwcm0tzq,Emily_Honors_Thesis_Part_2,1,223,2020-08-31T08:17:45-07:00,19.10088801384,11,versionC_stim.csv,RL_JOLVersionC.csv,"RELATIONAL Version C",OLD,COLD,CHILL,ON2,B,114,102,JOL,User,-,"How likely are you to correctly recall the second item in the pair?|Type your response on a scale from 0-100 and then press Enter.",Study/JOL,"Study Phase2",18543,,,-1,-1,,,,87,1
5f17274c254e30027ad9bb7b,l0kwcm0tzq,Emily_Honors_Thesis_Part_2,1,224,2020-08-31T08:18:21-07:00,35.524490118027,11,versionC_stim.csv,RL_JOLVersionC.csv,"RELATIONAL Version C",OLD,LONELY,ALONE,ON2,S,145,114,JOL,User,-,"How likely are you to correctly recall the second item in the pair?|Type your response on a scale from 0-100 and then press Enter.",Study/JOL,"Study Phase2",34986,,,-1,-1,,,,89,1
5f17274c254e30027ad9bb7b,l0kwcm0tzq,Emily_Honors_Thesis_Part_2,1,225,2020-08-31T08:18:26-07:00,5.3358600139618,11,versionC_stim.csv,RL_JOLVersionC.csv,"RELATIONAL Version C",OLD,TRASH,LITTER,ON2,B,103,144,JOL,User,-,"How likely are you to correctly recall the second item in the pair?|Type your response on a scale from 0-100 and then press Enter.",Study/JOL,"Study Phase2",4682,,,-1,-1,,,,99,1
5f17274c254e30027ad9bb7b,l0kwcm0tzq,Emily_Honors_Thesis_Part_2,1,226,2020-08-31T08:18:50-07:00,23.696687936783,11,versionC_stim.csv,RL_JOLVersionC.csv,"RELATIONAL Version C",OLD,BREAKABLE,GLASS,ON2,F,127,125,JOL,User,-,"How likely are you to correctly recall the second item in the pair?|Type your response on a scale from 0-100 and then press Enter.",Study/JOL,"Study Phase2",22743,,,-1,-1,,,,40,1
5f17274c254e30027ad9bb7b,l0kwcm0tzq,Emily_Honors_Thesis_Part_2,1,227,2020-08-31T08:19:07-07:00,16.95351099968,11,versionC_stim.csv,RL_JOLVersionC.csv,"RELATIONAL Version C",OLD,LIE,TRUTH,ON2,S,148,148,JOL,User,-,"How likely are you to correctly recall the second item in the pair?|Type your response on a scale from 0-100 and then press Enter.",Study/JOL,"Study Phase2",16219,,,-1,-1,,,,0,1
5f17274c254e30027ad9bb7b,l0kwcm0tzq,Emily_Honors_Thesis_Part_2,1,228,2020-08-31T08:19:12-07:00,4.828773021698,11,versionC_stim.csv,RL_JOLVersionC.csv,"RELATIONAL Version C",OLD,CARBON,ELEMENT,ON2,S,141,165,JOL,User,-,"How likely are you to correctly recall the second item in the pair?|Type your response on a scale from 0-100 and then press Enter.",Study/JOL,"Study Phase2",4068,,,-1,-1,,,,30,1
5f17274c254e30027ad9bb7b,l0kwcm0tzq,Emily_Honors_Thesis_Part_2,1,229,2020-08-31T08:19:22-07:00,10.17196393013,11,versionC_stim.csv,RL_JOLVersionC.csv,"RELATIONAL Version C",OLD,THIMBLE,THREAD,ON2,F,121,139,JOL,User,-,"How likely are you to correctly recall the second item in the pair?|Type your response on a scale from 0-100 and then press Enter.",Study/JOL,"Study Phase2",9506,,,-1,-1,,,,70,1
5f17274c254e30027ad9bb7b,l0kwcm0tzq,Emily_Honors_Thesis_Part_2,1,230,2020-08-31T08:19:26-07:00,4.1587641239166,11,versionC_stim.csv,RL_JOLVersionC.csv,"RELATIONAL Version C",OLD,CAR,DRIVER,ON2,B,106,98,JOL,User,-,"How likely are you to correctly recall the second item in the pair?|Type your response on a scale from 0-100 and then press Enter.",Study/JOL,"Study Phase2",3276,,,-1,-1,,,,90,1
5f17274c254e30027ad9bb7b,l0kwcm0tzq,Emily_Honors_Thesis_Part_2,1,231,2020-08-31T08:19:41-07:00,14.766912937164,11,versionC_stim.csv,RL_JOLVersionC.csv,"RELATIONAL Version C",OLD,AIRCRAFT,PLANE,ON2,F,129,131,JOL,User,-,"How likely are you to correctly recall the second item in the pair?|Type your response on a scale from 0-100 and then press Enter.",Study/JOL,"Study Phase2",14019,,,-1,-1,,,,100,1
5f17274c254e30027ad9bb7b,l0kwcm0tzq,Emily_Honors_Thesis_Part_2,1,232,2020-08-31T08:19:51-07:00,10.466295957565,11,versionC_stim.csv,RL_JOLVersionC.csv,"RELATIONAL Version C",OLD,SCISSORS,SHEARS,ON2,B,112,174,JOL,User,-,"How likely are you to correctly recall the second item in the pair?|Type your response on a scale from 0-100 and then press Enter.",Study/JOL,"Study Phase2",9289,,,-1,-1,,,,80,1
5f17274c254e30027ad9bb7b,l0kwcm0tzq,Emily_Honors_Thesis_Part_2,1,233,2020-08-31T08:22:35-07:00,163.92484903336,11,versionC_stim.csv,RL_JOLVersionC.csv,"RELATIONAL Version C",OLD,SIGN,LOAN,ON2,U,171,143,JOL,User,-,"How likely are you to correctly recall the second item in the pair?|Type your response on a scale from 0-100 and then press Enter.",Study/JOL,"Study Phase2",162854,,,-1,-1,,,,80,0.4
5f17274c254e30027ad9bb7b,l0kwcm0tzq,Emily_Honors_Thesis_Part_2,1,234,2020-08-31T08:22:40-07:00,4.7883870601654,11,versionC_stim.csv,RL_JOLVersionC.csv,"RELATIONAL Version C",OLD,SARDINE,FISH,ON2,F,130,170,JOL,User,-,"How likely are you to correctly recall the second item in the pair?|Type your response on a scale from 0-100 and then press Enter.",Study/JOL,"Study Phase2",3484,,,-1,-1,,,,80,1
5f17274c254e30027ad9bb7b,l0kwcm0tzq,Emily_Honors_Thesis_Part_2,1,235,2020-08-31T08:22:48-07:00,7.7016708850861,11,versionC_stim.csv,RL_JOLVersionC.csv,"RELATIONAL Version C",OLD,WET,DRY,ON2,S,146,134,JOL,User,-,"How likely are you to correctly recall the second item in the pair?|Type your response on a scale from 0-100 and then press Enter.",Study/JOL,"Study Phase2",6907,,,-1,-1,,,,50,1
5f17274c254e30027ad9bb7b,l0kwcm0tzq,Emily_Honors_Thesis_Part_2,1,236,2020-08-31T08:24:29-07:00,101.14493012428,11,versionC_stim.csv,RL_JOLVersionC.csv,"RELATIONAL Version C",OLD,CLEAR,MOAT,ON2,U,169,99,JOL,User,-,"How likely are you to correctly recall the second item in the pair?|Type your response on a scale from 0-100 and then press Enter.",Study/JOL,"Study Phase2",100252,,,-1,-1,,,,50,0.9
5f17274c254e30027ad9bb7b,l0kwcm0tzq,Emily_Honors_Thesis_Part_2,1,237,2020-08-31T08:24:37-07:00,8.4632618427277,11,versionC_stim.csv,RL_JOLVersionC.csv,"RELATIONAL Version C",OLD,PAPER,DOCUMENT,ON2,B,109,101,JOL,User,-,"How likely are you to correctly recall the second item in the pair?|Type your response on a scale from 0-100 and then press Enter.",Study/JOL,"Study Phase2",7502,,,-1,-1,,,,80,1
5f17274c254e30027ad9bb7b,l0kwcm0tzq,Emily_Honors_Thesis_Part_2,1,238,2020-08-31T08:26:03-07:00,85.35936498642,11,versionC_stim.csv,RL_JOLVersionC.csv,"RELATIONAL Version C",OLD,BANKER,MONEY,ON2,F,132,110,JOL,User,-,"How likely are you to correctly recall the second item in the pair?|Type your response on a scale from 0-100 and then press Enter.",Study/JOL,"Study Phase2",84439,,,-1,-1,,,,80,0.936
5f17274c254e30027ad9bb7b,l0kwcm0tzq,Emily_Honors_Thesis_Part_2,1,239,2020-08-31T08:26:10-07:00,6.966814994812,11,versionC_stim.csv,RL_JOLVersionC.csv,"RELATIONAL Version C",OLD,,,,,,0,Instruct,-,3,"Remember to focus on how the two items are similiar while you study and make your ratings!",,CHECK5,6257,,,-1,-1,,,,,1
5f17274c254e30027ad9bb7b,l0kwcm0tzq,Emily_Honors_Thesis_Part_2,1,240,2020-08-31T08:27:08-07:00,58.664029121399,11,versionC_stim.csv,RL_JOLVersionC.csv,"RELATIONAL Version C",OLD,SCAR,MAIN,ON2,U,175,173,JOL,User,-,"How likely are you to correctly recall the second item in the pair?|Type your response on a scale from 0-100 and then press Enter.",Study/JOL,"Study Phase2",57851,,,-1,-1,,,,30,1
5f17274c254e30027ad9bb7b,l0kwcm0tzq,Emily_Honors_Thesis_Part_2,1,241,2020-08-31T08:28:37-07:00,89.07976603508,11,versionC_stim.csv,RL_JOLVersionC.csv,"RELATIONAL Version C",OLD,RED,CHERRY,ON2,B,104,152,JOL,User,-,"How likely are you to correctly recall the second item in the pair?|Type your response on a scale from 0-100 and then press Enter.",Study/JOL,"Study Phase2",88388,,,-1,-1,,,,70,0.924
5f17274c254e30027ad9bb7b,l0kwcm0tzq,Emily_Honors_Thesis_Part_2,1,242,2020-08-31T08:28:43-07:00,5.2658050060272,11,versionC_stim.csv,RL_JOLVersionC.csv,"RELATIONAL Version C",OLD,CLOTHES,CAKE,ON2,U,166,135,JOL,User,-,"How likely are you to correctly recall the second item in the pair?|Type your response on a scale from 0-100 and then press Enter.",Study/JOL,"Study Phase2",4456,,,-1,-1,,,,10,1
5f17274c254e30027ad9bb7b,l0kwcm0tzq,Emily_Honors_Thesis_Part_2,1,243,2020-08-31T08:28:46-07:00,3.6942529678345,11,versionC_stim.csv,RL_JOLVersionC.csv,"RELATIONAL Version C",OLD,AWAY,GONE,ON2,S,142,112,JOL,User,-,"How likely are you to correctly recall the second item in the pair?|Type your response on a scale from 0-100 and then press Enter.",Study/JOL,"Study Phase2",2987,,,-1,-1,,,,70,1
5f17274c254e30027ad9bb7b,l0kwcm0tzq,Emily_Honors_Thesis_Part_2,1,244,2020-08-31T08:28:51-07:00,5.1897089481354,11,versionC_stim.csv,RL_JOLVersionC.csv,"RELATIONAL Version C",OLD,ACTRESS,STAR,ON2,F,120,106,JOL,User,-,"How likely are you to correctly recall the second item in the pair?|Type your response on a scale from 0-100 and then press Enter.",Study/JOL,"Study Phase2",4411,,,-1,-1,,,,90,1
5f17274c254e30027ad9bb7b,l0kwcm0tzq,Emily_Honors_Thesis_Part_2,1,245,2020-08-31T08:28:56-07:00,4.9075150489807,11,versionC_stim.csv,RL_JOLVersionC.csv,"RELATIONAL Version C",OLD,COFFIN,DEAD,ON2,F,128,123,JOL,User,-,"How likely are you to correctly recall the second item in the pair?|Type your response on a scale from 0-100 and then press Enter.",Study/JOL,"Study Phase2",4005,,,-1,-1,,,,90,1
5f17274c254e30027ad9bb7b,l0kwcm0tzq,Emily_Honors_Thesis_Part_2,1,246,2020-08-31T08:29:01-07:00,4.9705560207367,11,versionC_stim.csv,RL_JOLVersionC.csv,"RELATIONAL Version C",OLD,GROUND,EARTH,ON2,S,144,124,JOL,User,-,"How likely are you to correctly recall the second item in the pair?|Type your response on a scale from 0-100 and then press Enter.",Study/JOL,"Study Phase2",3857,,,-1,-1,,,,95,1
5f17274c254e30027ad9bb7b,l0kwcm0tzq,Emily_Honors_Thesis_Part_2,1,247,2020-08-31T08:29:11-07:00,9.894593000412,11,versionC_stim.csv,RL_JOLVersionC.csv,"RELATIONAL Version C",OLD,TRUTHFUL,HONEST,ON2,F,133,127,JOL,User,-,"How likely are you to correctly recall the second item in the pair?|Type your response on a scale from 0-100 and then press Enter.",Study/JOL,"Study Phase2",8008,,,-1,-1,,,,87,1
5f17274c254e30027ad9bb7b,l0kwcm0tzq,Emily_Honors_Thesis_Part_2,1,248,2020-08-31T09:00:28-07:00,1876.9074850082,11,versionC_stim.csv,RL_JOLVersionC.csv,"RELATIONAL Version C",OLD,PLANT,CACTUS,ON2,B,98,105,JOL,User,-,"How likely are you to correctly recall the second item in the pair?|Type your response on a scale from 0-100 and then press Enter.",Study/JOL,"Study Phase2",1876169,,,-1,-1,,,,30,0.518
5f17274c254e30027ad9bb7b,l0kwcm0tzq,Emily_Honors_Thesis_Part_2,1,249,2020-08-31T09:00:43-07:00,14.753597021103,11,versionC_stim.csv,RL_JOLVersionC.csv,"RELATIONAL Version C",OLD,SHAVE,RAZOR,ON2,S,136,100,JOL,User,-,"How likely are you to correctly recall the second item in the pair?|Type your response on a scale from 0-100 and then press Enter.",Study/JOL,"Study Phase2",14171,,,-1,-1,,,,89,0.755
5f17274c254e30027ad9bb7b,l0kwcm0tzq,Emily_Honors_Thesis_Part_2,1,250,2020-08-31T09:00:50-07:00,6.9289908409119,11,versionC_stim.csv,RL_JOLVersionC.csv,"RELATIONAL Version C",OLD,NOISE,LOUD,ON2,S,152,120,JOL,User,-,"How likely are you to correctly recall the second item in the pair?|Type your response on a scale from 0-100 and then press Enter.",Study/JOL,"Study Phase2",6392,,,-1,-1,,,,95,1
5f17274c254e30027ad9bb7b,l0kwcm0tzq,Emily_Honors_Thesis_Part_2,1,251,2020-08-31T09:03:00-07:00,130.52785921097,11,versionC_stim.csv,RL_JOLVersionC.csv,"RELATIONAL Version C",OLD,DOG,FURRY,ON2,B,102,118,JOL,User,-,"How likely are you to correctly recall the second item in the pair?|Type your response on a scale from 0-100 and then press Enter.",Study/JOL,"Study Phase2",129988,,,-1,-1,,,,60,0.809
5f17274c254e30027ad9bb7b,l0kwcm0tzq,Emily_Honors_Thesis_Part_2,1,252,2020-08-31T09:03:04-07:00,4.1522238254547,11,versionC_stim.csv,RL_JOLVersionC.csv,"RELATIONAL Version C",OLD,MYSTERY,DETECTIVE,ON2,B,100,169,JOL,User,-,"How likely are you to correctly recall the second item in the pair?|Type your response on a scale from 0-100 and then press Enter.",Study/JOL,"Study Phase2",3530,,,-1,-1,,,,80,1
5f17274c254e30027ad9bb7b,l0kwcm0tzq,Emily_Honors_Thesis_Part_2,1,253,2020-08-31T09:03:08-07:00,3.118921995163,11,versionC_stim.csv,RL_JOLVersionC.csv,"RELATIONAL Version C",OLD,LEAGUE,BASEBALL,ON2,F,131,150,JOL,User,-,"How likely are you to correctly recall the second item in the pair?|Type your response on a scale from 0-100 and then press Enter.",Study/JOL,"Study Phase2",2537,,,-1,-1,,,,56,1
5f17274c254e30027ad9bb7b,l0kwcm0tzq,Emily_Honors_Thesis_Part_2,1,254,2020-08-31T09:03:11-07:00,3.020868062973,11,versionC_stim.csv,RL_JOLVersionC.csv,"RELATIONAL Version C",OLD,TIE,SHOELACE,ON2,B,99,122,JOL,User,-,"How likely are you to correctly recall the second item in the pair?|Type your response on a scale from 0-100 and then press Enter.",Study/JOL,"Study Phase2",2466,,,-1,-1,,,,76,1
5f17274c254e30027ad9bb7b,l0kwcm0tzq,Emily_Honors_Thesis_Part_2,1,255,2020-08-31T09:03:15-07:00,4.3274760246277,11,versionC_stim.csv,RL_JOLVersionC.csv,"RELATIONAL Version C",OLD,FICTION,LISTEN,ON2,U,164,103,JOL,User,-,"How likely are you to correctly recall the second item in the pair?|Type your response on a scale from 0-100 and then press Enter.",Study/JOL,"Study Phase2",3637,,,-1,-1,,,,39,1
5f17274c254e30027ad9bb7b,l0kwcm0tzq,Emily_Honors_Thesis_Part_2,1,256,2020-08-31T09:03:18-07:00,3.4518120288849,11,versionC_stim.csv,RL_JOLVersionC.csv,"RELATIONAL Version C",OLD,MAROON,JUSTICE,ON2,U,156,164,JOL,User,-,"How likely are you to correctly recall the second item in the pair?|Type your response on a scale from 0-100 and then press Enter.",Study/JOL,"Study Phase2",2907,,,-1,-1,,,,84,1
5f17274c254e30027ad9bb7b,l0kwcm0tzq,Emily_Honors_Thesis_Part_2,1,257,2020-08-31T09:03:22-07:00,3.4048459529877,11,versionC_stim.csv,RL_JOLVersionC.csv,"RELATIONAL Version C",OLD,OUNCE,BOTH,ON2,U,172,142,JOL,User,-,"How likely are you to correctly recall the second item in the pair?|Type your response on a scale from 0-100 and then press Enter.",Study/JOL,"Study Phase2",2814,,,-1,-1,,,,84,1
5f17274c254e30027ad9bb7b,l0kwcm0tzq,Emily_Honors_Thesis_Part_2,1,258,2020-08-31T09:03:28-07:00,5.7442800998688,11,versionC_stim.csv,RL_JOLVersionC.csv,"RELATIONAL Version C",OLD,JAR,MASON,ON2,S,138,172,JOL,User,-,"How likely are you to correctly recall the second item in the pair?|Type your response on a scale from 0-100 and then press Enter.",Study/JOL,"Study Phase2",5166,,,-1,-1,,,,78,1
5f17274c254e30027ad9bb7b,l0kwcm0tzq,Emily_Honors_Thesis_Part_2,1,259,2020-08-31T09:03:32-07:00,4.1590168476105,11,versionC_stim.csv,RL_JOLVersionC.csv,"RELATIONAL Version C",OLD,PENGUIN,BIRD,ON2,F,119,147,JOL,User,-,"How likely are you to correctly recall the second item in the pair?|Type your response on a scale from 0-100 and then press Enter.",Study/JOL,"Study Phase2",3542,,,-1,-1,,,,89,1
5f17274c254e30027ad9bb7b,l0kwcm0tzq,Emily_Honors_Thesis_Part_2,1,260,2020-08-31T09:03:35-07:00,3.6544079780579,11,versionC_stim.csv,RL_JOLVersionC.csv,"RELATIONAL Version C",OLD,CHARM,VEHICLE,ON2,U,160,162,JOL,User,-,"How likely are you to correctly recall the second item in the pair?|Type your response on a scale from 0-100 and then press Enter.",Study/JOL,"Study Phase2",3087,,,-1,-1,,,,78,1
5f17274c254e30027ad9bb7b,l0kwcm0tzq,Emily_Honors_Thesis_Part_2,1,261,2020-08-31T09:03:39-07:00,3.5514531135559,11,versionC_stim.csv,RL_JOLVersionC.csv,"RELATIONAL Version C",OLD,BALLOON,POP,ON2,F,123,117,JOL,User,-,"How likely are you to correctly recall the second item in the pair?|Type your response on a scale from 0-100 and then press Enter.",Study/JOL,"Study Phase2",3038,,,-1,-1,,,,33,1
5f17274c254e30027ad9bb7b,l0kwcm0tzq,Emily_Honors_Thesis_Part_2,1,262,2020-08-31T09:03:45-07:00,5.6279618740082,11,versionC_stim.csv,RL_JOLVersionC.csv,"RELATIONAL Version C",OLD,STRAWBERRY,FRUIT,ON2,F,124,163,JOL,User,-,"How likely are you to correctly recall the second item in the pair?|Type your response on a scale from 0-100 and then press Enter.",Study/JOL,"Study Phase2",5109,,,-1,-1,,,,86,1
5f17274c254e30027ad9bb7b,l0kwcm0tzq,Emily_Honors_Thesis_Part_2,1,263,2020-08-31T09:03:50-07:00,5.3988971710205,11,versionC_stim.csv,RL_JOLVersionC.csv,"RELATIONAL Version C",OLD,VILLAIN,BAD,ON2,F,118,168,JOL,User,-,"How likely are you to correctly recall the second item in the pair?|Type your response on a scale from 0-100 and then press Enter.",Study/JOL,"Study Phase2",4842,,,-1,-1,,,,36,1
5f17274c254e30027ad9bb7b,l0kwcm0tzq,Emily_Honors_Thesis_Part_2,1,264,2020-08-31T09:03:54-07:00,4.1212220191956,11,versionC_stim.csv,RL_JOLVersionC.csv,"RELATIONAL Version C",OLD,DONKEY,MULE,ON2,B,108,109,JOL,User,-,"How likely are you to correctly recall the second item in the pair?|Type your response on a scale from 0-100 and then press Enter.",Study/JOL,"Study Phase2",3563,,,-1,-1,,,,87,1
5f17274c254e30027ad9bb7b,l0kwcm0tzq,Emily_Honors_Thesis_Part_2,1,265,2020-08-31T09:03:58-07:00,4.4393417835236,11,versionC_stim.csv,RL_JOLVersionC.csv,"RELATIONAL Version C",OLD,EAT,DINE,ON2,B,111,108,JOL,User,-,"How likely are you to correctly recall the second item in the pair?|Type your response on a scale from 0-100 and then press Enter.",Study/JOL,"Study Phase2",3910,,,-1,-1,,,,34,1
5f17274c254e30027ad9bb7b,l0kwcm0tzq,Emily_Honors_Thesis_Part_2,1,266,2020-08-31T09:04:02-07:00,3.6974391937256,11,versionC_stim.csv,RL_JOLVersionC.csv,"RELATIONAL Version C",OLD,STEAK,GIVE,ON2,U,158,153,JOL,User,-,"How likely are you to correctly recall the second item in the pair?|Type your response on a scale from 0-100 and then press Enter.",Study/JOL,"Study Phase2",3092,,,-1,-1,,,,76,1
5f17274c254e30027ad9bb7b,l0kwcm0tzq,Emily_Honors_Thesis_Part_2,1,267,2020-08-31T09:04:05-07:00,3.1016159057617,11,versionC_stim.csv,RL_JOLVersionC.csv,"RELATIONAL Version C",OLD,CUT,CHOP,ON2,B,107,140,JOL,User,-,"How likely are you to correctly recall the second item in the pair?|Type your response on a scale from 0-100 and then press Enter.",Study/JOL,"Study Phase2",2557,,,-1,-1,,,,56,1
5f17274c254e30027ad9bb7b,l0kwcm0tzq,Emily_Honors_Thesis_Part_2,1,268,2020-08-31T09:04:09-07:00,3.8183710575104,11,versionC_stim.csv,RL_JOLVersionC.csv,"RELATIONAL Version C",OLD,EQUAL,RIGHTS,ON2,S,137,156,JOL,User,-,"How likely are you to correctly recall the second item in the pair?|Type your response on a scale from 0-100 and then press Enter.",Study/JOL,"Study Phase2",3241,,,-1,-1,,,,67,1
5f17274c254e30027ad9bb7b,l0kwcm0tzq,Emily_Honors_Thesis_Part_2,1,269,2020-08-31T09:04:16-07:00,6.4909000396729,11,versionC_stim.csv,RL_JOLVersionC.csv,"RELATIONAL Version C",OLD,HEAD,SCALP,ON2,B,105,107,JOL,User,-,"How likely are you to correctly recall the second item in the pair?|Type your response on a scale from 0-100 and then press Enter.",Study/JOL,"Study Phase2",5681,,,-1,-1,,,,66,1
5f17274c254e30027ad9bb7b,l0kwcm0tzq,Emily_Honors_Thesis_Part_2,1,270,2020-08-31T09:04:20-07:00,4.4498288631439,11,versionC_stim.csv,RL_JOLVersionC.csv,"RELATIONAL Version C",OLD,SEATBELT,SAFETY,ON2,S,147,157,JOL,User,-,"How likely are you to correctly recall the second item in the pair?|Type your response on a scale from 0-100 and then press Enter.",Study/JOL,"Study Phase2",3884,,,-1,-1,,,,78,1
5f17274c254e30027ad9bb7b,l0kwcm0tzq,Emily_Honors_Thesis_Part_2,1,271,2020-08-31T09:04:24-07:00,4.0599370002747,11,versionC_stim.csv,RL_JOLVersionC.csv,"RELATIONAL Version C",OLD,LOVE,AFFECTION,ON2,B,115,133,JOL,User,-,"How likely are you to correctly recall the second item in the pair?|Type your response on a scale from 0-100 and then press Enter.",Study/JOL,"Study Phase2",3504,,,-1,-1,,,,45,1
5f17274c254e30027ad9bb7b,l0kwcm0tzq,Emily_Honors_Thesis_Part_2,1,272,2020-08-31T09:04:28-07:00,4.0796539783478,11,versionC_stim.csv,RL_JOLVersionC.csv,"RELATIONAL Version C",OLD,SMELL,INCENSE,ON2,B,110,160,JOL,User,-,"How likely are you to correctly recall the second item in the pair?|Type your response on a scale from 0-100 and then press Enter.",Study/JOL,"Study Phase2",3544,,,-1,-1,,,,20,1
5f17274c254e30027ad9bb7b,l0kwcm0tzq,Emily_Honors_Thesis_Part_2,1,273,2020-08-31T09:04:33-07:00,5.2608931064606,11,versionC_stim.csv,RL_JOLVersionC.csv,"RELATIONAL Version C",OLD,REVENGE,EVEN,ON2,F,122,116,JOL,User,-,"How likely are you to correctly recall the second item in the pair?|Type your response on a scale from 0-100 and then press Enter.",Study/JOL,"Study Phase2",4704,,,-1,-1,,,,39,1
5f17274c254e30027ad9bb7b,l0kwcm0tzq,Emily_Honors_Thesis_Part_2,1,274,2020-08-31T09:04:38-07:00,4.1195659637451,11,versionC_stim.csv,RL_JOLVersionC.csv,"RELATIONAL Version C",OLD,CHILDREN,MIRROR,ON2,U,174,126,JOL,User,-,"How likely are you to correctly recall the second item in the pair?|Type your response on a scale from 0-100 and then press Enter.",Study/JOL,"Study Phase2",3580,,,-1,-1,,,,1,1
5f17274c254e30027ad9bb7b,l0kwcm0tzq,Emily_Honors_Thesis_Part_2,1,275,2020-08-31T09:04:41-07:00,3.1374270915985,11,versionC_stim.csv,RL_JOLVersionC.csv,"RELATIONAL Version C",OLD,SHAKE,SHELL,ON2,U,163,161,JOL,User,-,"How likely are you to correctly recall the second item in the pair?|Type your response on a scale from 0-100 and then press Enter.",Study/JOL,"Study Phase2",2547,,,-1,-1,,,,2,1
5f17274c254e30027ad9bb7b,l0kwcm0tzq,Emily_Honors_Thesis_Part_2,1,276,2020-08-31T09:04:46-07:00,5.0412828922272,11,versionC_stim.csv,RL_JOLVersionC.csv,"RELATIONAL Version C",OLD,LONG,EXTENSION,ON2,B,96,119,JOL,User,-,"How likely are you to correctly recall the second item in the pair?|Type your response on a scale from 0-100 and then press Enter.",Study/JOL,"Study Phase2",4450,,,-1,-1,,,,41,1
5f17274c254e30027ad9bb7b,l0kwcm0tzq,Emily_Honors_Thesis_Part_2,1,277,2020-08-31T09:04:50-07:00,4.7205109596252,11,versionC_stim.csv,RL_JOLVersionC.csv,"RELATIONAL Version C",OLD,END,ADJOURN,ON2,B,101,129,JOL,User,-,"How likely are you to correctly recall the second item in the pair?|Type your response on a scale from 0-100 and then press Enter.",Study/JOL,"Study Phase2",4193,,,-1,-1,,,,41,1
5f17274c254e30027ad9bb7b,l0kwcm0tzq,Emily_Honors_Thesis_Part_2,1,278,2020-08-31T09:04:56-07:00,5.3994951248169,11,versionC_stim.csv,RL_JOLVersionC.csv,"RELATIONAL Version C",OLD,TICK,FLEA,ON2,S,151,111,JOL,User,-,"How likely are you to correctly recall the second item in the pair?|Type your response on a scale from 0-100 and then press Enter.",Study/JOL,"Study Phase2",4860,,,-1,-1,,,,35,1
5f17274c254e30027ad9bb7b,l0kwcm0tzq,Emily_Honors_Thesis_Part_2,1,279,2020-08-31T09:05:00-07:00,3.9804320335388,11,versionC_stim.csv,RL_JOLVersionC.csv,"RELATIONAL Version C",OLD,TOIL,LEASE,ON2,U,170,166,JOL,User,-,"How likely are you to correctly recall the second item in the pair?|Type your response on a scale from 0-100 and then press Enter.",Study/JOL,"Study Phase2",3352,,,-1,-1,,,,56,1
5f17274c254e30027ad9bb7b,l0kwcm0tzq,Emily_Honors_Thesis_Part_2,1,280,2020-08-31T09:05:06-07:00,5.9593567848206,11,versionC_stim.csv,RL_JOLVersionC.csv,"RELATIONAL Version C",OLD,GAME,CLUE,ON2,B,97,154,JOL,User,-,"How likely are you to correctly recall the second item in the pair?|Type your response on a scale from 0-100 and then press Enter.",Study/JOL,"Study Phase2",5330,,,-1,-1,,,,31,1
