Username,ID,ExperimentName,Session,Trial,Date,TimeDif,"Condition Number","Stimuli File","Order File","Condition Description","Condition Notes",Stimuli*Cue,Stimuli*Answer,Stimuli*Shuffle,"Stimuli*Stimuli Notes",Stimuli*Value,Procedure*Item,"Procedure*Trial Type","Procedure*Max Time","Procedure*Min Time",Procedure*Text,"Procedure*Procedure Notes",Procedure*Shuffle,Response*RT,Response*Response,Response*Accuracy,Response*RTfirst,Response*RTlast,Response*strictAcc,Response*lenientAcc,Response*focus,Response*JOL,Response*Focus
5d51d781dc299300183ce5e2,qwrqko1pna,Emily_Honors_Thesis_Part_2,1,1,2020-07-20T13:19:59-07:00,47.834889888763,14,versionA_stim_BACKWARD.csv,BACKWARD_READ_JOLVersionB.csv,"BACKWARD READ VERSION B",NEW,,,,,,0,Instruct,-,10,"In this section, you will be presented with a series of word pairs. As you study, you will be asked to rate your ability to remember the second item in the pair if you were only shown the first at test. You will make these ratings using a 0 to 100 Scale.",,Instruct13,47353,,,-1,-1,,,,,0.11
5d51d781dc299300183ce5e2,qwrqko1pna,Emily_Honors_Thesis_Part_2,1,2,2020-07-20T13:20:18-07:00,18.483553171158,14,versionA_stim_BACKWARD.csv,BACKWARD_READ_JOLVersionB.csv,"BACKWARD READ VERSION B",NEW,,,,,,0,Instruct,-,10,"For example, if you are given the pair CAT - DOG, a rating of 0 indicates that you would not remember DOG at test, while a rating of 100 indicates full certainty that you would remember the word DOG at test.",,Instruct14,17793,,,-1,-1,,,,,1
5d51d781dc299300183ce5e2,qwrqko1pna,Emily_Honors_Thesis_Part_2,1,3,2020-07-20T13:20:29-07:00,11.482777833939,14,versionA_stim_BACKWARD.csv,BACKWARD_READ_JOLVersionB.csv,"BACKWARD READ VERSION B",NEW,,,,,,0,Instruct,-,10,"When making your ratings, it is criticial that you use the full range of the scale. You will be disqualified for only giving ratings of 0 or 100! After making your rating, press Enter to advance to the next pair.",,Instruct15,10807,,,-1,-1,,,,,1
5d51d781dc299300183ce5e2,qwrqko1pna,Emily_Honors_Thesis_Part_2,1,4,2020-07-20T13:20:53-07:00,23.415152072906,14,versionA_stim_BACKWARD.csv,BACKWARD_READ_JOLVersionB.csv,"BACKWARD READ VERSION B",NEW,,,,,,0,Instruct,-,5,"You will now complete a practice session. Please study the following items and rate your ability to remember them.",,Instruct17,22720,,,-1,-1,,,,,0.219
5d51d781dc299300183ce5e2,qwrqko1pna,Emily_Honors_Thesis_Part_2,1,5,2020-07-20T13:21:04-07:00,11.73571896553,14,versionA_stim_BACKWARD.csv,BACKWARD_READ_JOLVersionB.csv,"BACKWARD READ VERSION B",NEW,BEHAVIOR,SOCIAL,PRACTICE,PRACTICE,189,187,JOL,User,-,"How likely are you to correctly recall the second item in the pair?|Type your response on a scale from 0-100 and then press Enter.",Study/JOL,PRACTICE,11034,,,9831,9914,,,,20,1
5d51d781dc299300183ce5e2,qwrqko1pna,Emily_Honors_Thesis_Part_2,1,6,2020-07-20T13:21:11-07:00,6.6878790855408,14,versionA_stim_BACKWARD.csv,BACKWARD_READ_JOLVersionB.csv,"BACKWARD READ VERSION B",NEW,DEAF,MUTE,PRACTICE,PRACTICE,182,190,JOL,User,-,"How likely are you to correctly recall the second item in the pair?|Type your response on a scale from 0-100 and then press Enter.",Study/JOL,PRACTICE,6012,,,5004,5084,,,,80,1
5d51d781dc299300183ce5e2,qwrqko1pna,Emily_Honors_Thesis_Part_2,1,7,2020-07-20T13:21:40-07:00,29.090422868729,14,versionA_stim_BACKWARD.csv,BACKWARD_READ_JOLVersionB.csv,"BACKWARD READ VERSION B",NEW,DISBELIEVE,SKEPTIC,PRACTICE,PRACTICE,186,189,JOL,User,-,"How likely are you to correctly recall the second item in the pair?|Type your response on a scale from 0-100 and then press Enter.",Study/JOL,PRACTICE,28405,,,27366,27438,,,,10,0.232
5d51d781dc299300183ce5e2,qwrqko1pna,Emily_Honors_Thesis_Part_2,1,8,2020-07-20T13:21:46-07:00,6.2732729911804,14,versionA_stim_BACKWARD.csv,BACKWARD_READ_JOLVersionB.csv,"BACKWARD READ VERSION B",NEW,PADDLE,ROW,PRACTICE,PRACTICE,184,185,JOL,User,-,"How likely are you to correctly recall the second item in the pair?|Type your response on a scale from 0-100 and then press Enter.",Study/JOL,PRACTICE,5585,,,4267,4346,,,,10,1
5d51d781dc299300183ce5e2,qwrqko1pna,Emily_Honors_Thesis_Part_2,1,9,2020-07-20T13:21:51-07:00,4.4081931114197,14,versionA_stim_BACKWARD.csv,BACKWARD_READ_JOLVersionB.csv,"BACKWARD READ VERSION B",NEW,CHIME,MUSIC,PRACTICE,PRACTICE,188,183,JOL,User,-,"How likely are you to correctly recall the second item in the pair?|Type your response on a scale from 0-100 and then press Enter.",Study/JOL,PRACTICE,3694,,,2656,2726,,,,50,1
5d51d781dc299300183ce5e2,qwrqko1pna,Emily_Honors_Thesis_Part_2,1,10,2020-07-20T13:21:55-07:00,4.284784078598,14,versionA_stim_BACKWARD.csv,BACKWARD_READ_JOLVersionB.csv,"BACKWARD READ VERSION B",NEW,HAM,BONE,PRACTICE,PRACTICE,183,188,JOL,User,-,"How likely are you to correctly recall the second item in the pair?|Type your response on a scale from 0-100 and then press Enter.",Study/JOL,PRACTICE,3600,,,2354,2441,,,,10,1
5d51d781dc299300183ce5e2,qwrqko1pna,Emily_Honors_Thesis_Part_2,1,11,2020-07-20T13:22:00-07:00,5.1953539848328,14,versionA_stim_BACKWARD.csv,BACKWARD_READ_JOLVersionB.csv,"BACKWARD READ VERSION B",NEW,AARDVARK,ZOO,PRACTICE,PRACTICE,181,191,JOL,User,-,"How likely are you to correctly recall the second item in the pair?|Type your response on a scale from 0-100 and then press Enter.",Study/JOL,PRACTICE,4497,,,3362,3665,,,,100,1
5d51d781dc299300183ce5e2,qwrqko1pna,Emily_Honors_Thesis_Part_2,1,12,2020-07-20T13:22:06-07:00,5.5589890480042,14,versionA_stim_BACKWARD.csv,BACKWARD_READ_JOLVersionB.csv,"BACKWARD READ VERSION B",NEW,CHOCOLATE,BAR,PRACTICE,PRACTICE,187,186,JOL,User,-,"How likely are you to correctly recall the second item in the pair?|Type your response on a scale from 0-100 and then press Enter.",Study/JOL,PRACTICE,4847,,,3470,3788,,,,100,1
5d51d781dc299300183ce5e2,qwrqko1pna,Emily_Honors_Thesis_Part_2,1,13,2020-07-20T13:22:10-07:00,4.2152349948883,14,versionA_stim_BACKWARD.csv,BACKWARD_READ_JOLVersionB.csv,"BACKWARD READ VERSION B",NEW,FASHION,MODEL,PRACTICE,PRACTICE,190,184,JOL,User,-,"How likely are you to correctly recall the second item in the pair?|Type your response on a scale from 0-100 and then press Enter.",Study/JOL,PRACTICE,3526,,,2495,2599,,,,80,1
5d51d781dc299300183ce5e2,qwrqko1pna,Emily_Honors_Thesis_Part_2,1,14,2020-07-20T13:22:28-07:00,17.642749786377,14,versionA_stim_BACKWARD.csv,BACKWARD_READ_JOLVersionB.csv,"BACKWARD READ VERSION B",NEW,HINGE,SWING,PRACTICE,PRACTICE,185,182,JOL,User,-,"How likely are you to correctly recall the second item in the pair?|Type your response on a scale from 0-100 and then press Enter.",Study/JOL,PRACTICE,16969,,,16085,16162,,,,10,0.094
5d51d781dc299300183ce5e2,qwrqko1pna,Emily_Honors_Thesis_Part_2,1,15,2020-07-20T13:22:35-07:00,7.6234531402588,14,versionA_stim_BACKWARD.csv,BACKWARD_READ_JOLVersionB.csv,"BACKWARD READ VERSION B",NEW,,,,,,0,Instruct,User,-,"You have completed this section. Please press Enter to continue.",,Instruct18,5898,,,-1,-1,,,,,0.1
5d51d781dc299300183ce5e2,qwrqko1pna,Emily_Honors_Thesis_Part_2,1,16,2020-07-20T13:22:41-07:00,5.6404838562012,14,versionA_stim_BACKWARD.csv,BACKWARD_READ_JOLVersionB.csv,"BACKWARD READ VERSION B",NEW,,,,,,0,Instruct,User,-,"You will now begin the study. Press Enter when you are ready to begin.",,Instruct16,4972,,,-1,-1,,,,,1
5d51d781dc299300183ce5e2,qwrqko1pna,Emily_Honors_Thesis_Part_2,1,17,2020-07-20T13:22:46-07:00,5.0777580738068,14,versionA_stim_BACKWARD.csv,BACKWARD_READ_JOLVersionB.csv,"BACKWARD READ VERSION B",NEW,MONTH,YEAR,Buffer3,Buffer,177,93,JOL,User,-,"How likely are you to correctly recall the second item in the pair?|Type your response on a scale from 0-100 and then press Enter.",Study/JOL,BUFFER,4426,,,3996,4106,,,,80,1
5d51d781dc299300183ce5e2,qwrqko1pna,Emily_Honors_Thesis_Part_2,1,18,2020-07-20T13:22:50-07:00,4.1331830024719,14,versionA_stim_BACKWARD.csv,BACKWARD_READ_JOLVersionB.csv,"BACKWARD READ VERSION B",NEW,NOODLE,STRING,Buffer3,Buffer,92,95,JOL,User,-,"How likely are you to correctly recall the second item in the pair?|Type your response on a scale from 0-100 and then press Enter.",Study/JOL,BUFFER,2343,,,2096,2175,,,,10,1
5d51d781dc299300183ce5e2,qwrqko1pna,Emily_Honors_Thesis_Part_2,1,19,2020-07-20T13:22:53-07:00,3.2664699554443,14,versionA_stim_BACKWARD.csv,BACKWARD_READ_JOLVersionB.csv,"BACKWARD READ VERSION B",NEW,TOOL,SHED,Buffer3,Buffer,178,96,JOL,User,-,"How likely are you to correctly recall the second item in the pair?|Type your response on a scale from 0-100 and then press Enter.",Study/JOL,BUFFER,2595,,,2126,2236,,,,40,1
5d51d781dc299300183ce5e2,qwrqko1pna,Emily_Honors_Thesis_Part_2,1,20,2020-07-20T13:23:29-07:00,35.536036014557,14,versionA_stim_BACKWARD.csv,BACKWARD_READ_JOLVersionB.csv,"BACKWARD READ VERSION B",NEW,CARROT,POTATO,Buffer3,Buffer,91,92,JOL,User,-,"How likely are you to correctly recall the second item in the pair?|Type your response on a scale from 0-100 and then press Enter.",Study/JOL,BUFFER,34888,,,34591,34672,,,,50,0.097
5d51d781dc299300183ce5e2,qwrqko1pna,Emily_Honors_Thesis_Part_2,1,21,2020-07-20T13:23:33-07:00,3.6548600196838,14,versionA_stim_BACKWARD.csv,BACKWARD_READ_JOLVersionB.csv,"BACKWARD READ VERSION B",NEW,ICE,FROZEN,Buffer3,Buffer,94,94,JOL,User,-,"How likely are you to correctly recall the second item in the pair?|Type your response on a scale from 0-100 and then press Enter.",Study/JOL,BUFFER,3006,,,2625,2726,,,,40,1
5d51d781dc299300183ce5e2,qwrqko1pna,Emily_Honors_Thesis_Part_2,1,22,2020-07-20T13:23:35-07:00,2.8422949314117,14,versionA_stim_BACKWARD.csv,BACKWARD_READ_JOLVersionB.csv,"BACKWARD READ VERSION B",NEW,LOUD,NOISE,ON2,S,152,105,JOL,User,-,"How likely are you to correctly recall the second item in the pair?|Type your response on a scale from 0-100 and then press Enter.",Study/JOL,"Study Phase",2156,,,1845,1964,,,,80,1
5d51d781dc299300183ce5e2,qwrqko1pna,Emily_Honors_Thesis_Part_2,1,23,2020-07-20T13:23:38-07:00,2.8796451091766,14,versionA_stim_BACKWARD.csv,BACKWARD_READ_JOLVersionB.csv,"BACKWARD READ VERSION B",NEW,GIVE,STEAK,ON2,U,158,101,JOL,User,-,"How likely are you to correctly recall the second item in the pair?|Type your response on a scale from 0-100 and then press Enter.",Study/JOL,"Study Phase",2220,,,1858,1981,,,,80,1
5d51d781dc299300183ce5e2,qwrqko1pna,Emily_Honors_Thesis_Part_2,1,24,2020-07-20T13:23:52-07:00,14.107759952545,14,versionA_stim_BACKWARD.csv,BACKWARD_READ_JOLVersionB.csv,"BACKWARD READ VERSION B",NEW,ADJOURN,END,ON2,F,101,166,JOL,User,-,"How likely are you to correctly recall the second item in the pair?|Type your response on a scale from 0-100 and then press Enter.",Study/JOL,"Study Phase",13435,,,13159,13205,,,,70,0.206
5d51d781dc299300183ce5e2,qwrqko1pna,Emily_Honors_Thesis_Part_2,1,25,2020-07-20T13:23:56-07:00,3.657534122467,14,versionA_stim_BACKWARD.csv,BACKWARD_READ_JOLVersionB.csv,"BACKWARD READ VERSION B",NEW,ROD,REEL,ON2,S,150,169,JOL,User,-,"How likely are you to correctly recall the second item in the pair?|Type your response on a scale from 0-100 and then press Enter.",Study/JOL,"Study Phase",2977,,,2658,2723,,,,50,1
5d51d781dc299300183ce5e2,qwrqko1pna,Emily_Honors_Thesis_Part_2,1,26,2020-07-20T13:23:59-07:00,2.9789018630981,14,versionA_stim_BACKWARD.csv,BACKWARD_READ_JOLVersionB.csv,"BACKWARD READ VERSION B",NEW,VEHICLE,CHARM,ON2,U,160,100,JOL,User,-,"How likely are you to correctly recall the second item in the pair?|Type your response on a scale from 0-100 and then press Enter.",Study/JOL,"Study Phase",2307,,,1994,2075,,,,10,1
5d51d781dc299300183ce5e2,qwrqko1pna,Emily_Honors_Thesis_Part_2,1,27,2020-07-20T13:24:02-07:00,2.675891160965,14,versionA_stim_BACKWARD.csv,BACKWARD_READ_JOLVersionB.csv,"BACKWARD READ VERSION B",NEW,WRIST,BRACELET,ON2,S,140,104,JOL,User,-,"How likely are you to correctly recall the second item in the pair?|Type your response on a scale from 0-100 and then press Enter.",Study/JOL,"Study Phase",2012,,,1751,1797,,,,80,1
5d51d781dc299300183ce5e2,qwrqko1pna,Emily_Honors_Thesis_Part_2,1,28,2020-07-20T13:24:05-07:00,3.2018690109253,14,versionA_stim_BACKWARD.csv,BACKWARD_READ_JOLVersionB.csv,"BACKWARD READ VERSION B",NEW,BOTH,OUNCE,ON2,U,172,175,JOL,User,-,"How likely are you to correctly recall the second item in the pair?|Type your response on a scale from 0-100 and then press Enter.",Study/JOL,"Study Phase",2538,,,2197,2282,,,,10,1
5d51d781dc299300183ce5e2,qwrqko1pna,Emily_Honors_Thesis_Part_2,1,29,2020-07-20T13:24:06-07:00,1.5556659698486,14,versionA_stim_BACKWARD.csv,BACKWARD_READ_JOLVersionB.csv,"BACKWARD READ VERSION B",NEW,ELEMENT,CARBON,ON2,S,141,126,JOL,User,-,"How likely are you to correctly recall the second item in the pair?|Type your response on a scale from 0-100 and then press Enter.",Study/JOL,"Study Phase",1081,,,946,947,,,,0,1
5d51d781dc299300183ce5e2,qwrqko1pna,Emily_Honors_Thesis_Part_2,1,30,2020-07-20T13:24:10-07:00,3.7964899539948,14,versionA_stim_BACKWARD.csv,BACKWARD_READ_JOLVersionB.csv,"BACKWARD READ VERSION B",NEW,FUZZY,BANG,ON2,U,168,129,JOL,User,-,"How likely are you to correctly recall the second item in the pair?|Type your response on a scale from 0-100 and then press Enter.",Study/JOL,"Study Phase",3124,,,2779,2908,,,,50,1
5d51d781dc299300183ce5e2,qwrqko1pna,Emily_Honors_Thesis_Part_2,1,31,2020-07-20T13:24:13-07:00,3.1339828968048,14,versionA_stim_BACKWARD.csv,BACKWARD_READ_JOLVersionB.csv,"BACKWARD READ VERSION B",NEW,CANDLE,WAX,ON2,S,139,143,JOL,User,-,"How likely are you to correctly recall the second item in the pair?|Type your response on a scale from 0-100 and then press Enter.",Study/JOL,"Study Phase",2479,,,2095,2218,,,,80,1
5d51d781dc299300183ce5e2,qwrqko1pna,Emily_Honors_Thesis_Part_2,1,32,2020-07-20T13:24:17-07:00,4.1237881183624,14,versionA_stim_BACKWARD.csv,BACKWARD_READ_JOLVersionB.csv,"BACKWARD READ VERSION B",NEW,CLUE,GAME,ON2,F,97,168,JOL,User,-,"How likely are you to correctly recall the second item in the pair?|Type your response on a scale from 0-100 and then press Enter.",Study/JOL,"Study Phase",3473,,,2576,3207,,,,40,1
5d51d781dc299300183ce5e2,qwrqko1pna,Emily_Honors_Thesis_Part_2,1,33,2020-07-20T13:24:21-07:00,3.0430769920349,14,versionA_stim_BACKWARD.csv,BACKWARD_READ_JOLVersionB.csv,"BACKWARD READ VERSION B",NEW,KEYS,JOKE,ON2,U,165,107,JOL,User,-,"How likely are you to correctly recall the second item in the pair?|Type your response on a scale from 0-100 and then press Enter.",Study/JOL,"Study Phase",2366,,,2135,2136,,,,5,1
5d51d781dc299300183ce5e2,qwrqko1pna,Emily_Honors_Thesis_Part_2,1,34,2020-07-20T13:24:40-07:00,19.975339889526,14,versionA_stim_BACKWARD.csv,BACKWARD_READ_JOLVersionB.csv,"BACKWARD READ VERSION B",NEW,TEMPERATURE,MORNING,ON2,U,173,142,JOL,User,-,"How likely are you to correctly recall the second item in the pair?|Type your response on a scale from 0-100 and then press Enter.",Study/JOL,"Study Phase",19331,,,18050,19164,,,,0,0.34
5d51d781dc299300183ce5e2,qwrqko1pna,Emily_Honors_Thesis_Part_2,1,35,2020-07-20T13:24:43-07:00,2.9270761013031,14,versionA_stim_BACKWARD.csv,BACKWARD_READ_JOLVersionB.csv,"BACKWARD READ VERSION B",NEW,FISH,SARDINE,ON2,B,130,117,JOL,User,-,"How likely are you to correctly recall the second item in the pair?|Type your response on a scale from 0-100 and then press Enter.",Study/JOL,"Study Phase",2249,,,1852,2023,,,,70,1
5d51d781dc299300183ce5e2,qwrqko1pna,Emily_Honors_Thesis_Part_2,1,36,2020-07-20T13:24:46-07:00,2.8816959857941,14,versionA_stim_BACKWARD.csv,BACKWARD_READ_JOLVersionB.csv,"BACKWARD READ VERSION B",NEW,DRIVER,CAR,ON2,F,106,133,JOL,User,-,"How likely are you to correctly recall the second item in the pair?|Type your response on a scale from 0-100 and then press Enter.",Study/JOL,"Study Phase",2212,,,1397,1990,,,,90,1
5d51d781dc299300183ce5e2,qwrqko1pna,Emily_Honors_Thesis_Part_2,1,37,2020-07-20T13:24:48-07:00,1.9735429286957,14,versionA_stim_BACKWARD.csv,BACKWARD_READ_JOLVersionB.csv,"BACKWARD READ VERSION B",NEW,FRUIT,STRAWBERRY,ON2,B,124,137,JOL,User,-,"How likely are you to correctly recall the second item in the pair?|Type your response on a scale from 0-100 and then press Enter.",Study/JOL,"Study Phase",1508,,,1046,1341,,,,100,1
5d51d781dc299300183ce5e2,qwrqko1pna,Emily_Honors_Thesis_Part_2,1,38,2020-07-20T13:24:51-07:00,3.0115079879761,14,versionA_stim_BACKWARD.csv,BACKWARD_READ_JOLVersionB.csv,"BACKWARD READ VERSION B",NEW,SHOELACE,TIE,ON2,F,99,149,JOL,User,-,"How likely are you to correctly recall the second item in the pair?|Type your response on a scale from 0-100 and then press Enter.",Study/JOL,"Study Phase",2337,,,2075,2162,,,,10,1
5d51d781dc299300183ce5e2,qwrqko1pna,Emily_Honors_Thesis_Part_2,1,39,2020-07-20T13:24:54-07:00,2.6146450042725,14,versionA_stim_BACKWARD.csv,BACKWARD_READ_JOLVersionB.csv,"BACKWARD READ VERSION B",NEW,MAZE,ELECTION,ON2,U,159,152,JOL,User,-,"How likely are you to correctly recall the second item in the pair?|Type your response on a scale from 0-100 and then press Enter.",Study/JOL,"Study Phase",1804,,,1610,1610,,,,0,1
5d51d781dc299300183ce5e2,qwrqko1pna,Emily_Honors_Thesis_Part_2,1,40,2020-07-20T13:24:57-07:00,2.8590881824493,14,versionA_stim_BACKWARD.csv,BACKWARD_READ_JOLVersionB.csv,"BACKWARD READ VERSION B",NEW,SUN,TAN,ON2,S,155,116,JOL,User,-,"How likely are you to correctly recall the second item in the pair?|Type your response on a scale from 0-100 and then press Enter.",Study/JOL,"Study Phase",2187,,,1725,2059,,,,100,1
5d51d781dc299300183ce5e2,qwrqko1pna,Emily_Honors_Thesis_Part_2,1,41,2020-07-20T13:24:59-07:00,2.6152989864349,14,versionA_stim_BACKWARD.csv,BACKWARD_READ_JOLVersionB.csv,"BACKWARD READ VERSION B",NEW,BAD,VILLAIN,ON2,B,118,111,JOL,User,-,"How likely are you to correctly recall the second item in the pair?|Type your response on a scale from 0-100 and then press Enter.",Study/JOL,"Study Phase",1911,,,1494,1609,,,,40,1
5d51d781dc299300183ce5e2,qwrqko1pna,Emily_Honors_Thesis_Part_2,1,42,2020-07-20T13:25:02-07:00,2.6399638652802,14,versionA_stim_BACKWARD.csv,BACKWARD_READ_JOLVersionB.csv,"BACKWARD READ VERSION B",NEW,DEAD,COFFIN,ON2,B,128,130,JOL,User,-,"How likely are you to correctly recall the second item in the pair?|Type your response on a scale from 0-100 and then press Enter.",Study/JOL,"Study Phase",1989,,,1672,1765,,,,80,1
5d51d781dc299300183ce5e2,qwrqko1pna,Emily_Honors_Thesis_Part_2,1,43,2020-07-20T13:25:06-07:00,3.6095790863037,14,versionA_stim_BACKWARD.csv,BACKWARD_READ_JOLVersionB.csv,"BACKWARD READ VERSION B",NEW,DRY,WET,ON2,S,146,113,JOL,User,-,"How likely are you to correctly recall the second item in the pair?|Type your response on a scale from 0-100 and then press Enter.",Study/JOL,"Study Phase",2933,,,2435,2808,,,,100,1
5d51d781dc299300183ce5e2,qwrqko1pna,Emily_Honors_Thesis_Part_2,1,44,2020-07-20T13:25:27-07:00,21.010421037674,14,versionA_stim_BACKWARD.csv,BACKWARD_READ_JOLVersionB.csv,"BACKWARD READ VERSION B",NEW,STAR,ACTRESS,ON2,B,120,172,JOL,User,-,"How likely are you to correctly recall the second item in the pair?|Type your response on a scale from 0-100 and then press Enter.",Study/JOL,"Study Phase",20348,,,20181,20181,,,,0,0.706
5d51d781dc299300183ce5e2,qwrqko1pna,Emily_Honors_Thesis_Part_2,1,45,2020-07-20T13:25:28-07:00,1.8539679050446,14,versionA_stim_BACKWARD.csv,BACKWARD_READ_JOLVersionB.csv,"BACKWARD READ VERSION B",NEW,MOAT,CLEAR,ON2,U,169,160,JOL,User,-,"How likely are you to correctly recall the second item in the pair?|Type your response on a scale from 0-100 and then press Enter.",Study/JOL,"Study Phase",1366,,,1213,1213,,,,0,1
5d51d781dc299300183ce5e2,qwrqko1pna,Emily_Honors_Thesis_Part_2,1,46,2020-07-20T13:25:32-07:00,3.8686010837555,14,versionA_stim_BACKWARD.csv,BACKWARD_READ_JOLVersionB.csv,"BACKWARD READ VERSION B",NEW,EXTENSION,LONG,ON2,F,96,114,JOL,User,-,"How likely are you to correctly recall the second item in the pair?|Type your response on a scale from 0-100 and then press Enter.",Study/JOL,"Study Phase",3215,,,2889,2959,,,,10,1
5d51d781dc299300183ce5e2,qwrqko1pna,Emily_Honors_Thesis_Part_2,1,47,2020-07-20T13:25:36-07:00,3.25852394104,14,versionA_stim_BACKWARD.csv,BACKWARD_READ_JOLVersionB.csv,"BACKWARD READ VERSION B",NEW,MULE,DONKEY,ON2,F,108,123,JOL,User,-,"How likely are you to correctly recall the second item in the pair?|Type your response on a scale from 0-100 and then press Enter.",Study/JOL,"Study Phase",2575,,,2125,2261,,,,70,1
5d51d781dc299300183ce5e2,qwrqko1pna,Emily_Honors_Thesis_Part_2,1,48,2020-07-20T13:25:39-07:00,3.0836210250854,14,versionA_stim_BACKWARD.csv,BACKWARD_READ_JOLVersionB.csv,"BACKWARD READ VERSION B",NEW,TURN,FLIP,ON2,B,116,157,JOL,User,-,"How likely are you to correctly recall the second item in the pair?|Type your response on a scale from 0-100 and then press Enter.",Study/JOL,"Study Phase",2404,,,2192,2265,,,,20,1
5d51d781dc299300183ce5e2,qwrqko1pna,Emily_Honors_Thesis_Part_2,1,49,2020-07-20T13:25:42-07:00,3.4689888954163,14,versionA_stim_BACKWARD.csv,BACKWARD_READ_JOLVersionB.csv,"BACKWARD READ VERSION B",NEW,POP,BALLOON,ON2,B,123,140,JOL,User,-,"How likely are you to correctly recall the second item in the pair?|Type your response on a scale from 0-100 and then press Enter.",Study/JOL,"Study Phase",2799,,,2449,2550,,,,60,1
5d51d781dc299300183ce5e2,qwrqko1pna,Emily_Honors_Thesis_Part_2,1,50,2020-07-20T13:25:58-07:00,15.411092996597,14,versionA_stim_BACKWARD.csv,BACKWARD_READ_JOLVersionB.csv,"BACKWARD READ VERSION B",NEW,CHILL,COLD,ON2,F,114,106,JOL,User,-,"How likely are you to correctly recall the second item in the pair?|Type your response on a scale from 0-100 and then press Enter.",Study/JOL,"Study Phase",14747,,,14386,14506,,,,90,0.203
5d51d781dc299300183ce5e2,qwrqko1pna,Emily_Honors_Thesis_Part_2,1,51,2020-07-20T13:26:00-07:00,2.8867421150208,14,versionA_stim_BACKWARD.csv,BACKWARD_READ_JOLVersionB.csv,"BACKWARD READ VERSION B",NEW,ALONE,LONELY,ON2,S,145,120,JOL,User,-,"How likely are you to correctly recall the second item in the pair?|Type your response on a scale from 0-100 and then press Enter.",Study/JOL,"Study Phase",2230,,,1901,1948,,,,80,1
5d51d781dc299300183ce5e2,qwrqko1pna,Emily_Honors_Thesis_Part_2,1,52,2020-07-20T13:26:05-07:00,4.2336258888245,14,versionA_stim_BACKWARD.csv,BACKWARD_READ_JOLVersionB.csv,"BACKWARD READ VERSION B",NEW,EARTH,GROUND,ON2,S,144,108,JOL,User,-,"How likely are you to correctly recall the second item in the pair?|Type your response on a scale from 0-100 and then press Enter.",Study/JOL,"Study Phase",3576,,,3240,3408,,,,60,1
5d51d781dc299300183ce5e2,qwrqko1pna,Emily_Honors_Thesis_Part_2,1,53,2020-07-20T13:26:08-07:00,2.8868510723114,14,versionA_stim_BACKWARD.csv,BACKWARD_READ_JOLVersionB.csv,"BACKWARD READ VERSION B",NEW,DINE,EAT,ON2,F,111,167,JOL,User,-,"How likely are you to correctly recall the second item in the pair?|Type your response on a scale from 0-100 and then press Enter.",Study/JOL,"Study Phase",2206,,,1786,2087,,,,100,1
5d51d781dc299300183ce5e2,qwrqko1pna,Emily_Honors_Thesis_Part_2,1,54,2020-07-20T13:26:11-07:00,3.0010979175568,14,versionA_stim_BACKWARD.csv,BACKWARD_READ_JOLVersionB.csv,"BACKWARD READ VERSION B",NEW,CAT,PANTHER,ON2,B,126,135,JOL,User,-,"How likely are you to correctly recall the second item in the pair?|Type your response on a scale from 0-100 and then press Enter.",Study/JOL,"Study Phase",2331,,,2018,2089,,,,70,1
5d51d781dc299300183ce5e2,qwrqko1pna,Emily_Honors_Thesis_Part_2,1,55,2020-07-20T13:26:13-07:00,2.8356740474701,14,versionA_stim_BACKWARD.csv,BACKWARD_READ_JOLVersionB.csv,"BACKWARD READ VERSION B",NEW,FIGHT,BRAWL,ON2,B,135,132,JOL,User,-,"How likely are you to correctly recall the second item in the pair?|Type your response on a scale from 0-100 and then press Enter.",Study/JOL,"Study Phase",2182,,,1925,1997,,,,80,1
5d51d781dc299300183ce5e2,qwrqko1pna,Emily_Honors_Thesis_Part_2,1,56,2020-07-20T13:26:16-07:00,2.6465940475464,14,versionA_stim_BACKWARD.csv,BACKWARD_READ_JOLVersionB.csv,"BACKWARD READ VERSION B",NEW,FURRY,DOG,ON2,F,102,164,JOL,User,-,"How likely are you to correctly recall the second item in the pair?|Type your response on a scale from 0-100 and then press Enter.",Study/JOL,"Study Phase",1966,,,1527,1784,,,,100,1
5d51d781dc299300183ce5e2,qwrqko1pna,Emily_Honors_Thesis_Part_2,1,57,2020-07-20T13:26:20-07:00,4.4073970317841,14,versionA_stim_BACKWARD.csv,BACKWARD_READ_JOLVersionB.csv,"BACKWARD READ VERSION B",NEW,CAKE,CLOTHES,ON2,U,166,154,JOL,User,-,"How likely are you to correctly recall the second item in the pair?|Type your response on a scale from 0-100 and then press Enter.",Study/JOL,"Study Phase",2731,,,2581,2581,,,,0,1
5d51d781dc299300183ce5e2,qwrqko1pna,Emily_Honors_Thesis_Part_2,1,58,2020-07-20T13:26:22-07:00,1.9885039329529,14,versionA_stim_BACKWARD.csv,BACKWARD_READ_JOLVersionB.csv,"BACKWARD READ VERSION B",NEW,RIGHTS,EQUAL,ON2,S,137,163,JOL,User,-,"How likely are you to correctly recall the second item in the pair?|Type your response on a scale from 0-100 and then press Enter.",Study/JOL,"Study Phase",1533,,,1301,1382,,,,10,1
5d51d781dc299300183ce5e2,qwrqko1pna,Emily_Honors_Thesis_Part_2,1,59,2020-07-20T13:26:36-07:00,13.489629983902,14,versionA_stim_BACKWARD.csv,BACKWARD_READ_JOLVersionB.csv,"BACKWARD READ VERSION B",NEW,TANTRUM,TEMPER,ON2,S,154,159,JOL,User,-,"How likely are you to correctly recall the second item in the pair?|Type your response on a scale from 0-100 and then press Enter.",Study/JOL,"Study Phase",12839,,,12471,12495,,,,40,0.215
5d51d781dc299300183ce5e2,qwrqko1pna,Emily_Honors_Thesis_Part_2,1,60,2020-07-20T13:26:39-07:00,2.6088581085205,14,versionA_stim_BACKWARD.csv,BACKWARD_READ_JOLVersionB.csv,"BACKWARD READ VERSION B",NEW,CHERRY,RED,ON2,F,104,109,JOL,User,-,"How likely are you to correctly recall the second item in the pair?|Type your response on a scale from 0-100 and then press Enter.",Study/JOL,"Study Phase",1814,,,1469,1606,,,,90,1
5d51d781dc299300183ce5e2,qwrqko1pna,Emily_Honors_Thesis_Part_2,1,61,2020-07-20T13:26:54-07:00,15.862272024155,14,versionA_stim_BACKWARD.csv,BACKWARD_READ_JOLVersionB.csv,"BACKWARD READ VERSION B",NEW,AFFECTION,LOVE,ON2,F,115,124,JOL,User,-,"How likely are you to correctly recall the second item in the pair?|Type your response on a scale from 0-100 and then press Enter.",Study/JOL,"Study Phase",15202,,,14899,14961,,,,70,0.145
5d51d781dc299300183ce5e2,qwrqko1pna,Emily_Honors_Thesis_Part_2,1,62,2020-07-20T13:26:57-07:00,2.0763008594513,14,versionA_stim_BACKWARD.csv,BACKWARD_READ_JOLVersionB.csv,"BACKWARD READ VERSION B",NEW,LITTER,TRASH,ON2,F,103,148,JOL,User,-,"How likely are you to correctly recall the second item in the pair?|Type your response on a scale from 0-100 and then press Enter.",Study/JOL,"Study Phase",1589,,,1321,1396,,,,80,1
5d51d781dc299300183ce5e2,qwrqko1pna,Emily_Honors_Thesis_Part_2,1,63,2020-07-20T13:26:59-07:00,2.6862030029297,14,versionA_stim_BACKWARD.csv,BACKWARD_READ_JOLVersionB.csv,"BACKWARD READ VERSION B",NEW,PLANE,AIRCRAFT,ON2,B,129,151,JOL,User,-,"How likely are you to correctly recall the second item in the pair?|Type your response on a scale from 0-100 and then press Enter.",Study/JOL,"Study Phase",2040,,,1744,1841,,,,70,1
5d51d781dc299300183ce5e2,qwrqko1pna,Emily_Honors_Thesis_Part_2,1,64,2020-07-20T13:27:02-07:00,2.6165599822998,14,versionA_stim_BACKWARD.csv,BACKWARD_READ_JOLVersionB.csv,"BACKWARD READ VERSION B",NEW,FEUD,FIGHT,ON2,F,113,145,JOL,User,-,"How likely are you to correctly recall the second item in the pair?|Type your response on a scale from 0-100 and then press Enter.",Study/JOL,"Study Phase",1866,,,1548,1625,,,,90,1
5d51d781dc299300183ce5e2,qwrqko1pna,Emily_Honors_Thesis_Part_2,1,65,2020-07-20T13:27:04-07:00,2.1767749786377,14,versionA_stim_BACKWARD.csv,BACKWARD_READ_JOLVersionB.csv,"BACKWARD READ VERSION B",NEW,SAFETY,SEATBELT,ON2,S,147,147,JOL,User,-,"How likely are you to correctly recall the second item in the pair?|Type your response on a scale from 0-100 and then press Enter.",Study/JOL,"Study Phase",1693,,,1384,1468,,,,40,1
5d51d781dc299300183ce5e2,qwrqko1pna,Emily_Honors_Thesis_Part_2,1,66,2020-07-20T13:27:06-07:00,2.1964750289917,14,versionA_stim_BACKWARD.csv,BACKWARD_READ_JOLVersionB.csv,"BACKWARD READ VERSION B",NEW,SHELL,SHAKE,ON2,U,163,170,JOL,User,-,"How likely are you to correctly recall the second item in the pair?|Type your response on a scale from 0-100 and then press Enter.",Study/JOL,"Study Phase",1705,,,1481,1481,,,,0,1
5d51d781dc299300183ce5e2,qwrqko1pna,Emily_Honors_Thesis_Part_2,1,67,2020-07-20T13:27:09-07:00,2.6157250404358,14,versionA_stim_BACKWARD.csv,BACKWARD_READ_JOLVersionB.csv,"BACKWARD READ VERSION B",NEW,RAZOR,SHAVE,ON2,S,136,102,JOL,User,-,"How likely are you to correctly recall the second item in the pair?|Type your response on a scale from 0-100 and then press Enter.",Study/JOL,"Study Phase",1774,,,1520,1626,,,,50,1
5d51d781dc299300183ce5e2,qwrqko1pna,Emily_Honors_Thesis_Part_2,1,68,2020-07-20T13:27:12-07:00,2.7752420902252,14,versionA_stim_BACKWARD.csv,BACKWARD_READ_JOLVersionB.csv,"BACKWARD READ VERSION B",NEW,TRUTH,LIE,ON2,S,148,153,JOL,User,-,"How likely are you to correctly recall the second item in the pair?|Type your response on a scale from 0-100 and then press Enter.",Study/JOL,"Study Phase",2102,,,1797,1892,,,,60,1
5d51d781dc299300183ce5e2,qwrqko1pna,Emily_Honors_Thesis_Part_2,1,69,2020-07-20T13:27:14-07:00,2.8336977958679,14,versionA_stim_BACKWARD.csv,BACKWARD_READ_JOLVersionB.csv,"BACKWARD READ VERSION B",NEW,HONEST,TRUTHFUL,ON2,B,133,136,JOL,User,-,"How likely are you to correctly recall the second item in the pair?|Type your response on a scale from 0-100 and then press Enter.",Study/JOL,"Study Phase",2163,,,1581,1796,,,,100,1
5d51d781dc299300183ce5e2,qwrqko1pna,Emily_Honors_Thesis_Part_2,1,70,2020-07-20T13:27:17-07:00,2.6003730297089,14,versionA_stim_BACKWARD.csv,BACKWARD_READ_JOLVersionB.csv,"BACKWARD READ VERSION B",NEW,BEST,FAVORITE,ON2,B,125,155,JOL,User,-,"How likely are you to correctly recall the second item in the pair?|Type your response on a scale from 0-100 and then press Enter.",Study/JOL,"Study Phase",1875,,,1371,1628,,,,100,1
5d51d781dc299300183ce5e2,qwrqko1pna,Emily_Honors_Thesis_Part_2,1,71,2020-07-20T13:27:20-07:00,2.6200740337372,14,versionA_stim_BACKWARD.csv,BACKWARD_READ_JOLVersionB.csv,"BACKWARD READ VERSION B",NEW,STRETCH,CLOTH,ON2,U,157,103,JOL,User,-,"How likely are you to correctly recall the second item in the pair?|Type your response on a scale from 0-100 and then press Enter.",Study/JOL,"Study Phase",1975,,,1705,1705,,,,0,1
5d51d781dc299300183ce5e2,qwrqko1pna,Emily_Honors_Thesis_Part_2,1,72,2020-07-20T13:27:22-07:00,2.609090089798,14,versionA_stim_BACKWARD.csv,BACKWARD_READ_JOLVersionB.csv,"BACKWARD READ VERSION B",NEW,THREAD,THIMBLE,ON2,B,121,97,JOL,User,-,"How likely are you to correctly recall the second item in the pair?|Type your response on a scale from 0-100 and then press Enter.",Study/JOL,"Study Phase",1867,,,1732,1733,,,,0,1
5d51d781dc299300183ce5e2,qwrqko1pna,Emily_Honors_Thesis_Part_2,1,73,2020-07-20T13:27:24-07:00,1.7392790317535,14,versionA_stim_BACKWARD.csv,BACKWARD_READ_JOLVersionB.csv,"BACKWARD READ VERSION B",NEW,MIRROR,CHILDREN,ON2,U,174,118,JOL,User,-,"How likely are you to correctly recall the second item in the pair?|Type your response on a scale from 0-100 and then press Enter.",Study/JOL,"Study Phase",1262,,,1103,1104,,,,0,1
5d51d781dc299300183ce5e2,qwrqko1pna,Emily_Honors_Thesis_Part_2,1,74,2020-07-20T13:27:27-07:00,2.6030068397522,14,versionA_stim_BACKWARD.csv,BACKWARD_READ_JOLVersionB.csv,"BACKWARD READ VERSION B",NEW,GLASS,BREAKABLE,ON2,B,127,128,JOL,User,-,"How likely are you to correctly recall the second item in the pair?|Type your response on a scale from 0-100 and then press Enter.",Study/JOL,"Study Phase",1789,,,1476,1590,,,,90,1
5d51d781dc299300183ce5e2,qwrqko1pna,Emily_Honors_Thesis_Part_2,1,75,2020-07-20T13:27:51-07:00,24.884194135666,14,versionA_stim_BACKWARD.csv,BACKWARD_READ_JOLVersionB.csv,"BACKWARD READ VERSION B",NEW,CACTUS,PLANT,ON2,F,98,144,JOL,User,-,"How likely are you to correctly recall the second item in the pair?|Type your response on a scale from 0-100 and then press Enter.",Study/JOL,"Study Phase",24225,,,23935,24034,,,,70,0.066
5d51d781dc299300183ce5e2,qwrqko1pna,Emily_Honors_Thesis_Part_2,1,76,2020-07-20T13:27:55-07:00,4.0223350524902,14,versionA_stim_BACKWARD.csv,BACKWARD_READ_JOLVersionB.csv,"BACKWARD READ VERSION B",NEW,SLEEP,NAP,ON2,B,134,162,JOL,User,-,"How likely are you to correctly recall the second item in the pair?|Type your response on a scale from 0-100 and then press Enter.",Study/JOL,"Study Phase",3374,,,2817,3245,,,,100,0.647
5d51d781dc299300183ce5e2,qwrqko1pna,Emily_Honors_Thesis_Part_2,1,77,2020-07-20T13:28:22-07:00,26.298685789108,14,versionA_stim_BACKWARD.csv,BACKWARD_READ_JOLVersionB.csv,"BACKWARD READ VERSION B",NEW,LEASE,TOIL,ON2,U,170,150,JOL,User,-,"How likely are you to correctly recall the second item in the pair?|Type your response on a scale from 0-100 and then press Enter.",Study/JOL,"Study Phase",25258,,,25089,25089,,,,0,0.142
5d51d781dc299300183ce5e2,qwrqko1pna,Emily_Honors_Thesis_Part_2,1,78,2020-07-20T13:28:27-07:00,4.7598731517792,14,versionA_stim_BACKWARD.csv,BACKWARD_READ_JOLVersionB.csv,"BACKWARD READ VERSION B",NEW,JUSTICE,MAROON,ON2,U,156,112,JOL,User,-,"How likely are you to correctly recall the second item in the pair?|Type your response on a scale from 0-100 and then press Enter.",Study/JOL,"Study Phase",4076,,,3856,3857,,,,0,1
5d51d781dc299300183ce5e2,qwrqko1pna,Emily_Honors_Thesis_Part_2,1,79,2020-07-20T13:28:28-07:00,1.7806918621063,14,versionA_stim_BACKWARD.csv,BACKWARD_READ_JOLVersionB.csv,"BACKWARD READ VERSION B",NEW,BASEBALL,LEAGUE,ON2,B,131,176,JOL,User,-,"How likely are you to correctly recall the second item in the pair?|Type your response on a scale from 0-100 and then press Enter.",Study/JOL,"Study Phase",1308,,,1056,1147,,,,10,1
5d51d781dc299300183ce5e2,qwrqko1pna,Emily_Honors_Thesis_Part_2,1,80,2020-07-20T13:28:33-07:00,4.2667481899261,14,versionA_stim_BACKWARD.csv,BACKWARD_READ_JOLVersionB.csv,"BACKWARD READ VERSION B",NEW,CRACKLE,ABLE,ON2,U,162,131,JOL,User,-,"How likely are you to correctly recall the second item in the pair?|Type your response on a scale from 0-100 and then press Enter.",Study/JOL,"Study Phase",3612,,,3287,3365,,,,10,1
5d51d781dc299300183ce5e2,qwrqko1pna,Emily_Honors_Thesis_Part_2,1,81,2020-07-20T13:28:36-07:00,3.1038818359375,14,versionA_stim_BACKWARD.csv,BACKWARD_READ_JOLVersionB.csv,"BACKWARD READ VERSION B",NEW,PHONE,COMMUNICATION,ON2,S,149,110,JOL,User,-,"How likely are you to correctly recall the second item in the pair?|Type your response on a scale from 0-100 and then press Enter.",Study/JOL,"Study Phase",2436,,,2107,2218,,,,60,1
5d51d781dc299300183ce5e2,qwrqko1pna,Emily_Honors_Thesis_Part_2,1,82,2020-07-20T13:28:46-07:00,10.046533107758,14,versionA_stim_BACKWARD.csv,BACKWARD_READ_JOLVersionB.csv,"BACKWARD READ VERSION B",NEW,NAME,HATE,ON2,U,167,115,JOL,User,-,"How likely are you to correctly recall the second item in the pair?|Type your response on a scale from 0-100 and then press Enter.",Study/JOL,"Study Phase",9371,,,9067,9171,,,,10,0.234
5d51d781dc299300183ce5e2,qwrqko1pna,Emily_Honors_Thesis_Part_2,1,83,2020-07-20T13:28:48-07:00,2.0364789962769,14,versionA_stim_BACKWARD.csv,BACKWARD_READ_JOLVersionB.csv,"BACKWARD READ VERSION B",NEW,CAR,WINDSHIELD,ON2,B,117,98,JOL,User,-,"How likely are you to correctly recall the second item in the pair?|Type your response on a scale from 0-100 and then press Enter.",Study/JOL,"Study Phase",1529,,,1236,1336,,,,60,1
5d51d781dc299300183ce5e2,qwrqko1pna,Emily_Honors_Thesis_Part_2,1,84,2020-07-20T13:28:56-07:00,7.9237620830536,14,versionA_stim_BACKWARD.csv,BACKWARD_READ_JOLVersionB.csv,"BACKWARD READ VERSION B",NEW,MAIN,SCAR,ON2,U,175,173,JOL,User,-,"How likely are you to correctly recall the second item in the pair?|Type your response on a scale from 0-100 and then press Enter.",Study/JOL,"Study Phase",7276,,,6970,7093,,,,10,0.811
5d51d781dc299300183ce5e2,qwrqko1pna,Emily_Honors_Thesis_Part_2,1,85,2020-07-20T13:28:59-07:00,3.4674518108368,14,versionA_stim_BACKWARD.csv,BACKWARD_READ_JOLVersionB.csv,"BACKWARD READ VERSION B",NEW,BIRD,PENGUIN,ON2,B,119,99,JOL,User,-,"How likely are you to correctly recall the second item in the pair?|Type your response on a scale from 0-100 and then press Enter.",Study/JOL,"Study Phase",2818,,,2610,2610,,,,5,1
5d51d781dc299300183ce5e2,qwrqko1pna,Emily_Honors_Thesis_Part_2,1,86,2020-07-20T13:29:03-07:00,3.8328771591187,14,versionA_stim_BACKWARD.csv,BACKWARD_READ_JOLVersionB.csv,"BACKWARD READ VERSION B",NEW,DETECTIVE,MYSTERY,ON2,F,100,141,JOL,User,-,"How likely are you to correctly recall the second item in the pair?|Type your response on a scale from 0-100 and then press Enter.",Study/JOL,"Study Phase",3192,,,2864,2987,,,,40,1
5d51d781dc299300183ce5e2,qwrqko1pna,Emily_Honors_Thesis_Part_2,1,87,2020-07-20T13:29:06-07:00,2.9155478477478,14,versionA_stim_BACKWARD.csv,BACKWARD_READ_JOLVersionB.csv,"BACKWARD READ VERSION B",NEW,LOAN,SIGN,ON2,U,171,165,JOL,User,-,"How likely are you to correctly recall the second item in the pair?|Type your response on a scale from 0-100 and then press Enter.",Study/JOL,"Study Phase",2271,,,1959,2032,,,,10,1
5d51d781dc299300183ce5e2,qwrqko1pna,Emily_Honors_Thesis_Part_2,1,88,2020-07-20T13:29:09-07:00,2.700982093811,14,versionA_stim_BACKWARD.csv,BACKWARD_READ_JOLVersionB.csv,"BACKWARD READ VERSION B",NEW,INCENSE,SMELL,ON2,F,110,158,JOL,User,-,"How likely are you to correctly recall the second item in the pair?|Type your response on a scale from 0-100 and then press Enter.",Study/JOL,"Study Phase",2018,,,1696,1834,,,,30,1
5d51d781dc299300183ce5e2,qwrqko1pna,Emily_Honors_Thesis_Part_2,1,89,2020-07-20T13:29:18-07:00,9.040195941925,14,versionA_stim_BACKWARD.csv,BACKWARD_READ_JOLVersionB.csv,"BACKWARD READ VERSION B",NEW,MEAT,OBTAIN,ON2,U,161,119,JOL,User,-,"How likely are you to correctly recall the second item in the pair?|Type your response on a scale from 0-100 and then press Enter.",Study/JOL,"Study Phase",8396,,,7470,7850,,,,00,0.429
5d51d781dc299300183ce5e2,qwrqko1pna,Emily_Honors_Thesis_Part_2,1,90,2020-07-20T13:29:20-07:00,2.724977016449,14,versionA_stim_BACKWARD.csv,BACKWARD_READ_JOLVersionB.csv,"BACKWARD READ VERSION B",NEW,FLEA,TICK,ON2,S,151,161,JOL,User,-,"How likely are you to correctly recall the second item in the pair?|Type your response on a scale from 0-100 and then press Enter.",Study/JOL,"Study Phase",2006,,,1773,1877,,,,40,1
5d51d781dc299300183ce5e2,qwrqko1pna,Emily_Honors_Thesis_Part_2,1,91,2020-07-20T13:29:37-07:00,16.590421915054,14,versionA_stim_BACKWARD.csv,BACKWARD_READ_JOLVersionB.csv,"BACKWARD READ VERSION B",NEW,MONEY,BANKER,ON2,B,132,174,JOL,User,-,"How likely are you to correctly recall the second item in the pair?|Type your response on a scale from 0-100 and then press Enter.",Study/JOL,"Study Phase",15943,,,15670,15744,,,,80,0.188
5d51d781dc299300183ce5e2,qwrqko1pna,Emily_Honors_Thesis_Part_2,1,92,2020-07-20T13:29:40-07:00,2.6171970367432,14,versionA_stim_BACKWARD.csv,BACKWARD_READ_JOLVersionB.csv,"BACKWARD READ VERSION B",NEW,MASON,JAR,ON2,S,138,127,JOL,User,-,"How likely are you to correctly recall the second item in the pair?|Type your response on a scale from 0-100 and then press Enter.",Study/JOL,"Study Phase",1789,,,1503,1503,,,,0,1
5d51d781dc299300183ce5e2,qwrqko1pna,Emily_Honors_Thesis_Part_2,1,93,2020-07-20T13:29:49-07:00,9.0758450031281,14,versionA_stim_BACKWARD.csv,BACKWARD_READ_JOLVersionB.csv,"BACKWARD READ VERSION B",NEW,OWN,HAVE,ON2,S,153,134,JOL,User,-,"How likely are you to correctly recall the second item in the pair?|Type your response on a scale from 0-100 and then press Enter.",Study/JOL,"Study Phase",8417,,,8139,8139,,,,5,1
5d51d781dc299300183ce5e2,qwrqko1pna,Emily_Honors_Thesis_Part_2,1,94,2020-07-20T13:29:51-07:00,2.2042560577393,14,versionA_stim_BACKWARD.csv,BACKWARD_READ_JOLVersionB.csv,"BACKWARD READ VERSION B",NEW,CHOP,CUT,ON2,F,107,125,JOL,User,-,"How likely are you to correctly recall the second item in the pair?|Type your response on a scale from 0-100 and then press Enter.",Study/JOL,"Study Phase",1732,,,1285,1421,,,,40,1
5d51d781dc299300183ce5e2,qwrqko1pna,Emily_Honors_Thesis_Part_2,1,95,2020-07-20T13:29:54-07:00,2.8576130867004,14,versionA_stim_BACKWARD.csv,BACKWARD_READ_JOLVersionB.csv,"BACKWARD READ VERSION B",NEW,EVEN,REVENGE,ON2,B,122,156,JOL,User,-,"How likely are you to correctly recall the second item in the pair?|Type your response on a scale from 0-100 and then press Enter.",Study/JOL,"Study Phase",2189,,,1636,1813,,,,60,1
5d51d781dc299300183ce5e2,qwrqko1pna,Emily_Honors_Thesis_Part_2,1,96,2020-07-20T13:29:57-07:00,3.1418960094452,14,versionA_stim_BACKWARD.csv,BACKWARD_READ_JOLVersionB.csv,"BACKWARD READ VERSION B",NEW,SCALP,HEAD,ON2,F,105,139,JOL,User,-,"How likely are you to correctly recall the second item in the pair?|Type your response on a scale from 0-100 and then press Enter.",Study/JOL,"Study Phase",2464,,,2095,2199,,,,40,1
5d51d781dc299300183ce5e2,qwrqko1pna,Emily_Honors_Thesis_Part_2,1,97,2020-07-20T13:30:00-07:00,3.3469200134277,14,versionA_stim_BACKWARD.csv,BACKWARD_READ_JOLVersionB.csv,"BACKWARD READ VERSION B",NEW,DOCUMENT,PAPER,ON2,F,109,121,JOL,User,-,"How likely are you to correctly recall the second item in the pair?|Type your response on a scale from 0-100 and then press Enter.",Study/JOL,"Study Phase",2671,,,2309,2414,,,,50,1
5d51d781dc299300183ce5e2,qwrqko1pna,Emily_Honors_Thesis_Part_2,1,98,2020-07-20T13:30:24-07:00,23.686059951782,14,versionA_stim_BACKWARD.csv,BACKWARD_READ_JOLVersionB.csv,"BACKWARD READ VERSION B",NEW,GONE,AWAY,ON2,S,142,146,JOL,User,-,"How likely are you to correctly recall the second item in the pair?|Type your response on a scale from 0-100 and then press Enter.",Study/JOL,"Study Phase",23019,,,22748,22851,,,,50,0.069
5d51d781dc299300183ce5e2,qwrqko1pna,Emily_Honors_Thesis_Part_2,1,99,2020-07-20T13:30:27-07:00,2.61039686203,14,versionA_stim_BACKWARD.csv,BACKWARD_READ_JOLVersionB.csv,"BACKWARD READ VERSION B",NEW,LISTEN,FICTION,ON2,U,164,171,JOL,User,-,"How likely are you to correctly recall the second item in the pair?|Type your response on a scale from 0-100 and then press Enter.",Study/JOL,"Study Phase",1791,,,1630,1630,,,,0,1
5d51d781dc299300183ce5e2,qwrqko1pna,Emily_Honors_Thesis_Part_2,1,100,2020-07-20T13:30:29-07:00,2.6332371234894,14,versionA_stim_BACKWARD.csv,BACKWARD_READ_JOLVersionB.csv,"BACKWARD READ VERSION B",NEW,SHEARS,SCISSORS,ON2,F,112,122,JOL,User,-,"How likely are you to correctly recall the second item in the pair?|Type your response on a scale from 0-100 and then press Enter.",Study/JOL,"Study Phase",1801,,,1504,1593,,,,70,1
5d51d781dc299300183ce5e2,qwrqko1pna,Emily_Honors_Thesis_Part_2,1,101,2020-07-20T13:30:54-07:00,25.158244848251,14,versionA_stim_BACKWARD.csv,BACKWARD_READ_JOLVersionB.csv,"BACKWARD READ VERSION B",NEW,WATER,DRINK,ON2,S,143,138,JOL,User,-,"How likely are you to correctly recall the second item in the pair?|Type your response on a scale from 0-100 and then press Enter.",Study/JOL,"Study Phase",24507,,,24105,24411,,,,100,0.154
5d51d781dc299300183ce5e2,qwrqko1pna,Emily_Honors_Thesis_Part_2,1,102,2020-07-20T13:30:58-07:00,3.9612300395966,14,versionA_stim_BACKWARD.csv,BACKWARD_READ_JOLVersionB.csv,"BACKWARD READ VERSION B",NEW,OCTOBER,SPOOKY,Buffer3,Buffer,180,181,JOL,User,-,"How likely are you to correctly recall the second item in the pair?|Type your response on a scale from 0-100 and then press Enter.",Study/JOL,BUFFER2,3311,,,3089,3183,,,,60,1
5d51d781dc299300183ce5e2,qwrqko1pna,Emily_Honors_Thesis_Part_2,1,103,2020-07-20T13:31:19-07:00,20.240239143372,14,versionA_stim_BACKWARD.csv,BACKWARD_READ_JOLVersionB.csv,"BACKWARD READ VERSION B",NEW,CAMP,ADVENTURE,Buffer3,Buffer,95,177,JOL,User,-,"How likely are you to correctly recall the second item in the pair?|Type your response on a scale from 0-100 and then press Enter.",Study/JOL,BUFFER2,19568,,,19368,19432,,,,40,0.418
5d51d781dc299300183ce5e2,qwrqko1pna,Emily_Honors_Thesis_Part_2,1,104,2020-07-20T13:31:27-07:00,8.2800869941711,14,versionA_stim_BACKWARD.csv,BACKWARD_READ_JOLVersionB.csv,"BACKWARD READ VERSION B",NEW,DAYS,WEAKS,Buffer3,Buffer,176,178,JOL,User,-,"How likely are you to correctly recall the second item in the pair?|Type your response on a scale from 0-100 and then press Enter.",Study/JOL,BUFFER2,7574,,,4005,4198,,,,70,1
5d51d781dc299300183ce5e2,qwrqko1pna,Emily_Honors_Thesis_Part_2,1,105,2020-07-20T13:31:30-07:00,3.3763608932495,14,versionA_stim_BACKWARD.csv,BACKWARD_READ_JOLVersionB.csv,"BACKWARD READ VERSION B",NEW,SHRIMP,FISH,Buffer3,Buffer,93,179,JOL,User,-,"How likely are you to correctly recall the second item in the pair?|Type your response on a scale from 0-100 and then press Enter.",Study/JOL,BUFFER2,2694,,,2492,2556,,,,40,1
5d51d781dc299300183ce5e2,qwrqko1pna,Emily_Honors_Thesis_Part_2,1,106,2020-07-20T13:31:34-07:00,4.065288066864,14,versionA_stim_BACKWARD.csv,BACKWARD_READ_JOLVersionB.csv,"BACKWARD READ VERSION B",NEW,SPRING,MARCH,Buffer3,Buffer,179,180,JOL,User,-,"How likely are you to correctly recall the second item in the pair?|Type your response on a scale from 0-100 and then press Enter.",Study/JOL,BUFFER2,2390,,,2171,2229,,,,10,1
5d51d781dc299300183ce5e2,qwrqko1pna,Emily_Honors_Thesis_Part_2,1,107,2020-07-20T13:31:37-07:00,2.756315946579,14,versionA_stim_BACKWARD.csv,BACKWARD_READ_JOLVersionB.csv,"BACKWARD READ VERSION B",NEW,,,,,,0,Instruct,User,-,"You have completed this section. Please press Enter.",Filler_Instruction,Instruct2,2078,,,-1,-1,,,,,1
5d51d781dc299300183ce5e2,qwrqko1pna,Emily_Honors_Thesis_Part_2,1,108,2020-07-20T13:33:38-07:00,120.69668412209,14,versionA_stim_BACKWARD.csv,BACKWARD_READ_JOLVersionB.csv,"BACKWARD READ VERSION B",NEW,,,,,,0,FreeRecall,120,120,"Please list the 50 US states in alphabetical order. The task will automatically advance to the next screen after two minutes.",,Filler1,120002,"Alabama Alaska Arizona California Florida North Dakota South Dakota Nevada New York ",0,42456,114609,0,0,,,1
5d51d781dc299300183ce5e2,qwrqko1pna,Emily_Honors_Thesis_Part_2,1,109,2020-07-20T13:34:50-07:00,72.152149915695,14,versionA_stim_BACKWARD.csv,BACKWARD_READ_JOLVersionB.csv,"BACKWARD READ VERSION B",NEW,,,,,,0,Instruct,-,10,"You will now be presented with the first word from each of the previously studied item pairs. Please type the missing word. If you do not know the word, you may guess or press Enter to skip forward to the next pair.",,Instruct3,71441,,,-1,-1,,,,,0.255
5d51d781dc299300183ce5e2,qwrqko1pna,Emily_Honors_Thesis_Part_2,1,110,2020-07-20T13:35:09-07:00,19.032120943069,14,versionA_stim_BACKWARD.csv,BACKWARD_READ_JOLVersionB.csv,"BACKWARD READ VERSION B",NEW,POP,BALLOON,ON2,B,123,140,Test,User,-,,Recall,Recall1,17347,POP,20,16596,16890,0,0,,,1
5d51d781dc299300183ce5e2,qwrqko1pna,Emily_Honors_Thesis_Part_2,1,111,2020-07-20T13:35:14-07:00,4.8209581375122,14,versionA_stim_BACKWARD.csv,BACKWARD_READ_JOLVersionB.csv,"BACKWARD READ VERSION B",NEW,BIRD,PENGUIN,ON2,B,119,99,Test,User,-,,Recall,Recall1,4144,HOUSE,16.666666666667,3278,3817,0,0,,,1
5d51d781dc299300183ce5e2,qwrqko1pna,Emily_Honors_Thesis_Part_2,1,112,2020-07-20T13:35:29-07:00,15.336213827133,14,versionA_stim_BACKWARD.csv,BACKWARD_READ_JOLVersionB.csv,"BACKWARD READ VERSION B",NEW,STRETCH,CLOTH,ON2,U,157,103,Test,User,-,,Recall,Recall1,14682,CLOTH,100,13819,14376,1,1,,,1
5d51d781dc299300183ce5e2,qwrqko1pna,Emily_Honors_Thesis_Part_2,1,113,2020-07-20T13:35:39-07:00,10.122136116028,14,versionA_stim_BACKWARD.csv,BACKWARD_READ_JOLVersionB.csv,"BACKWARD READ VERSION B",NEW,GLASS,BREAKABLE,ON2,B,127,128,Test,User,-,,Recall,Recall1,9455,BROKEN,53.333333333333,8152,9079,0,0,,,1
5d51d781dc299300183ce5e2,qwrqko1pna,Emily_Honors_Thesis_Part_2,1,114,2020-07-20T13:36:00-07:00,20.620984077454,14,versionA_stim_BACKWARD.csv,BACKWARD_READ_JOLVersionB.csv,"BACKWARD READ VERSION B",NEW,WATER,DRINK,ON2,S,143,138,Test,User,-,,Recall,Recall1,19966,LAKE,22.222222222222,19350,19767,0,0,,,1
5d51d781dc299300183ce5e2,qwrqko1pna,Emily_Honors_Thesis_Part_2,1,115,2020-07-20T13:36:02-07:00,2.6434559822083,14,versionA_stim_BACKWARD.csv,BACKWARD_READ_JOLVersionB.csv,"BACKWARD READ VERSION B",NEW,LOUD,NOISE,ON2,S,152,105,Test,User,-,,Recall,Recall1,1988,MUSIC,20,1261,1804,0,0,,,1
5d51d781dc299300183ce5e2,qwrqko1pna,Emily_Honors_Thesis_Part_2,1,116,2020-07-20T13:36:07-07:00,4.1936419010162,14,versionA_stim_BACKWARD.csv,BACKWARD_READ_JOLVersionB.csv,"BACKWARD READ VERSION B",NEW,FRUIT,STRAWBERRY,ON2,B,124,137,Test,User,-,,Recall,Recall1,3529,LOOM,0,2730,3274,0,0,,,1
5d51d781dc299300183ce5e2,qwrqko1pna,Emily_Honors_Thesis_Part_2,1,117,2020-07-20T13:36:09-07:00,2.8515560626984,14,versionA_stim_BACKWARD.csv,BACKWARD_READ_JOLVersionB.csv,"BACKWARD READ VERSION B",NEW,AFFECTION,LOVE,ON2,F,115,124,Test,User,-,,Recall,Recall1,2171,LOVE,100,1427,1905,1,1,,,1
5d51d781dc299300183ce5e2,qwrqko1pna,Emily_Honors_Thesis_Part_2,1,118,2020-07-20T13:36:15-07:00,5.3672339916229,14,versionA_stim_BACKWARD.csv,BACKWARD_READ_JOLVersionB.csv,"BACKWARD READ VERSION B",NEW,ROD,REEL,ON2,S,150,169,Test,User,-,,Recall,Recall1,4489,STICK,0,2547,3425,0,0,,,1
5d51d781dc299300183ce5e2,qwrqko1pna,Emily_Honors_Thesis_Part_2,1,119,2020-07-20T13:36:20-07:00,5.1227998733521,14,versionA_stim_BACKWARD.csv,BACKWARD_READ_JOLVersionB.csv,"BACKWARD READ VERSION B",NEW,NAME,HATE,ON2,U,167,115,Test,User,-,,Recall,Recall1,4446,personal,16.666666666667,2978,4056,0,0,,,1
5d51d781dc299300183ce5e2,qwrqko1pna,Emily_Honors_Thesis_Part_2,1,120,2020-07-20T13:36:24-07:00,4.1671750545502,14,versionA_stim_BACKWARD.csv,BACKWARD_READ_JOLVersionB.csv,"BACKWARD READ VERSION B",NEW,CAKE,CLOTHES,ON2,U,166,154,Test,User,-,,Recall,Recall1,3499,FLOUR,33.333333333333,2693,3301,0,0,,,1
5d51d781dc299300183ce5e2,qwrqko1pna,Emily_Honors_Thesis_Part_2,1,121,2020-07-20T13:36:30-07:00,5.9252469539642,14,versionA_stim_BACKWARD.csv,BACKWARD_READ_JOLVersionB.csv,"BACKWARD READ VERSION B",NEW,MAZE,ELECTION,ON2,U,159,152,Test,User,-,,Recall,Recall1,5253,WAY,0,4437,4829,0,0,,,1
5d51d781dc299300183ce5e2,qwrqko1pna,Emily_Honors_Thesis_Part_2,1,122,2020-07-20T13:36:33-07:00,2.7653021812439,14,versionA_stim_BACKWARD.csv,BACKWARD_READ_JOLVersionB.csv,"BACKWARD READ VERSION B",NEW,TRUTH,LIE,ON2,S,148,153,Test,User,-,,Recall,Recall1,2071,DARE,28.571428571429,1471,1920,0,0,,,1
5d51d781dc299300183ce5e2,qwrqko1pna,Emily_Honors_Thesis_Part_2,1,123,2020-07-20T13:36:37-07:00,4.4381458759308,14,versionA_stim_BACKWARD.csv,BACKWARD_READ_JOLVersionB.csv,"BACKWARD READ VERSION B",NEW,CHOP,CUT,ON2,F,107,125,Test,User,-,,Recall,Recall1,3756,KNIFE,0,2990,3630,0,0,,,1
5d51d781dc299300183ce5e2,qwrqko1pna,Emily_Honors_Thesis_Part_2,1,124,2020-07-20T13:36:40-07:00,3.1572070121765,14,versionA_stim_BACKWARD.csv,BACKWARD_READ_JOLVersionB.csv,"BACKWARD READ VERSION B",NEW,ADJOURN,END,ON2,F,101,166,Test,User,-,,Recall,Recall1,2477,COURT,0,1729,2363,0,0,,,1
5d51d781dc299300183ce5e2,qwrqko1pna,Emily_Honors_Thesis_Part_2,1,125,2020-07-20T13:36:48-07:00,8.0225489139557,14,versionA_stim_BACKWARD.csv,BACKWARD_READ_JOLVersionB.csv,"BACKWARD READ VERSION B",NEW,INCENSE,SMELL,ON2,F,110,158,Test,User,-,,Recall,Recall1,7344,SMELL,100,6119,7118,1,1,,,0.324
5d51d781dc299300183ce5e2,qwrqko1pna,Emily_Honors_Thesis_Part_2,1,126,2020-07-20T13:36:59-07:00,10.649877071381,14,versionA_stim_BACKWARD.csv,BACKWARD_READ_JOLVersionB.csv,"BACKWARD READ VERSION B",NEW,STAR,ACTRESS,ON2,B,120,172,Test,User,-,,Recall,Recall1,9974,FAMOUS,30.769230769231,8976,9735,0,0,,,1
5d51d781dc299300183ce5e2,qwrqko1pna,Emily_Honors_Thesis_Part_2,1,127,2020-07-20T13:37:04-07:00,4.7569000720978,14,versionA_stim_BACKWARD.csv,BACKWARD_READ_JOLVersionB.csv,"BACKWARD READ VERSION B",NEW,TURN,FLIP,ON2,B,116,157,Test,User,-,,Recall,Recall1,4088,WHEEL,22.222222222222,2070,3944,0,0,,,1
5d51d781dc299300183ce5e2,qwrqko1pna,Emily_Honors_Thesis_Part_2,1,128,2020-07-20T13:37:07-07:00,2.9805388450623,14,versionA_stim_BACKWARD.csv,BACKWARD_READ_JOLVersionB.csv,"BACKWARD READ VERSION B",NEW,MULE,DONKEY,ON2,F,108,123,Test,User,-,,Recall,Recall1,2307,DONKEY,100,1300,2052,1,1,,,1
5d51d781dc299300183ce5e2,qwrqko1pna,Emily_Honors_Thesis_Part_2,1,129,2020-07-20T13:37:10-07:00,2.8926751613617,14,versionA_stim_BACKWARD.csv,BACKWARD_READ_JOLVersionB.csv,"BACKWARD READ VERSION B",NEW,EXTENSION,LONG,ON2,F,96,114,Test,User,-,,Recall,Recall1,2220,LEAD,25,1725,2085,0,0,,,1
5d51d781dc299300183ce5e2,qwrqko1pna,Emily_Honors_Thesis_Part_2,1,130,2020-07-20T13:37:13-07:00,3.1090848445892,14,versionA_stim_BACKWARD.csv,BACKWARD_READ_JOLVersionB.csv,"BACKWARD READ VERSION B",NEW,RAZOR,SHAVE,ON2,S,136,102,Test,User,-,,Recall,Recall1,2452,SHARP,60,1284,2156,0,0,,,1
5d51d781dc299300183ce5e2,qwrqko1pna,Emily_Honors_Thesis_Part_2,1,131,2020-07-20T13:37:16-07:00,2.9146871566772,14,versionA_stim_BACKWARD.csv,BACKWARD_READ_JOLVersionB.csv,"BACKWARD READ VERSION B",NEW,ALONE,LONELY,ON2,S,145,120,Test,User,-,,Recall,Recall1,2259,SELF,40,1605,2155,0,0,,,1
5d51d781dc299300183ce5e2,qwrqko1pna,Emily_Honors_Thesis_Part_2,1,132,2020-07-20T13:37:24-07:00,8.566880941391,14,versionA_stim_BACKWARD.csv,BACKWARD_READ_JOLVersionB.csv,"BACKWARD READ VERSION B",NEW,RIGHTS,EQUAL,ON2,S,137,163,Test,User,-,,Recall,Recall1,7893,ALLOW,40,3815,7675,0,0,,,1
5d51d781dc299300183ce5e2,qwrqko1pna,Emily_Honors_Thesis_Part_2,1,133,2020-07-20T13:37:30-07:00,5.7241909503937,14,versionA_stim_BACKWARD.csv,BACKWARD_READ_JOLVersionB.csv,"BACKWARD READ VERSION B",NEW,PHONE,COMMUNICATION,ON2,S,149,110,Test,User,-,,Recall,Recall1,5030,COMMUNICATE,83.333333333333,1376,4782,0,1,,,1
5d51d781dc299300183ce5e2,qwrqko1pna,Emily_Honors_Thesis_Part_2,1,134,2020-07-20T13:37:33-07:00,3.369087934494,14,versionA_stim_BACKWARD.csv,BACKWARD_READ_JOLVersionB.csv,"BACKWARD READ VERSION B",NEW,FISH,SARDINE,ON2,B,130,117,Test,User,-,,Recall,Recall1,2687,OCEAN,16.666666666667,1938,2479,0,0,,,1
5d51d781dc299300183ce5e2,qwrqko1pna,Emily_Honors_Thesis_Part_2,1,135,2020-07-20T13:37:36-07:00,2.6102700233459,14,versionA_stim_BACKWARD.csv,BACKWARD_READ_JOLVersionB.csv,"BACKWARD READ VERSION B",NEW,VEHICLE,CHARM,ON2,U,160,100,Test,User,-,,Recall,Recall1,1833,CAR,75,1267,1552,0,1,,,1
5d51d781dc299300183ce5e2,qwrqko1pna,Emily_Honors_Thesis_Part_2,1,136,2020-07-20T13:37:39-07:00,3.4619331359863,14,versionA_stim_BACKWARD.csv,BACKWARD_READ_JOLVersionB.csv,"BACKWARD READ VERSION B",NEW,KEYS,JOKE,ON2,U,165,107,Test,User,-,,Recall,Recall1,2785,OPEN,50,2241,2632,0,0,,,1
5d51d781dc299300183ce5e2,qwrqko1pna,Emily_Honors_Thesis_Part_2,1,137,2020-07-20T13:37:45-07:00,5.3694899082184,14,versionA_stim_BACKWARD.csv,BACKWARD_READ_JOLVersionB.csv,"BACKWARD READ VERSION B",NEW,CAT,PANTHER,ON2,B,126,135,Test,User,-,,Recall,Recall1,4698,PAW,40,4332,4563,0,0,,,1
5d51d781dc299300183ce5e2,qwrqko1pna,Emily_Honors_Thesis_Part_2,1,138,2020-07-20T13:37:49-07:00,4.0056140422821,14,versionA_stim_BACKWARD.csv,BACKWARD_READ_JOLVersionB.csv,"BACKWARD READ VERSION B",NEW,WRIST,BRACELET,ON2,S,140,104,Test,User,-,,Recall,Recall1,2305,WATCH,30.769230769231,1562,2113,0,0,,,1
5d51d781dc299300183ce5e2,qwrqko1pna,Emily_Honors_Thesis_Part_2,1,139,2020-07-20T13:37:54-07:00,5.3411738872528,14,versionA_stim_BACKWARD.csv,BACKWARD_READ_JOLVersionB.csv,"BACKWARD READ VERSION B",NEW,MEAT,OBTAIN,ON2,U,161,119,Test,User,-,,Recall,Recall1,4681,EAT,22.222222222222,4280,4600,0,0,,,1
5d51d781dc299300183ce5e2,qwrqko1pna,Emily_Honors_Thesis_Part_2,1,140,2020-07-20T13:37:58-07:00,3.8904840946198,14,versionA_stim_BACKWARD.csv,BACKWARD_READ_JOLVersionB.csv,"BACKWARD READ VERSION B",NEW,DOCUMENT,PAPER,ON2,F,109,121,Test,User,-,,Recall,Recall1,3214,PAPER,100,2535,3117,1,1,,,1
5d51d781dc299300183ce5e2,qwrqko1pna,Emily_Honors_Thesis_Part_2,1,141,2020-07-20T13:38:01-07:00,3.32426404953,14,versionA_stim_BACKWARD.csv,BACKWARD_READ_JOLVersionB.csv,"BACKWARD READ VERSION B",NEW,THREAD,THIMBLE,ON2,B,121,97,Test,User,-,,Recall,Recall1,2636,NEEDLE,30.769230769231,1733,2533,0,0,,,1
5d51d781dc299300183ce5e2,qwrqko1pna,Emily_Honors_Thesis_Part_2,1,142,2020-07-20T13:38:07-07:00,5.1676669120789,14,versionA_stim_BACKWARD.csv,BACKWARD_READ_JOLVersionB.csv,"BACKWARD READ VERSION B",NEW,BEST,FAVORITE,ON2,B,125,155,Test,User,-,,Recall,Recall1,3455,FAVOURITE,94.117647058824,2095,3295,0,1,,,1
5d51d781dc299300183ce5e2,qwrqko1pna,Emily_Honors_Thesis_Part_2,1,143,2020-07-20T13:38:09-07:00,2.6184461116791,14,versionA_stim_BACKWARD.csv,BACKWARD_READ_JOLVersionB.csv,"BACKWARD READ VERSION B",NEW,CHILL,COLD,ON2,F,114,106,Test,User,-,,Recall,Recall1,1904,ICE,28.571428571429,1577,1800,0,0,,,1
5d51d781dc299300183ce5e2,qwrqko1pna,Emily_Honors_Thesis_Part_2,1,144,2020-07-20T13:38:12-07:00,2.9927408695221,14,versionA_stim_BACKWARD.csv,BACKWARD_READ_JOLVersionB.csv,"BACKWARD READ VERSION B",NEW,BASEBALL,LEAGUE,ON2,B,131,176,Test,User,-,,Recall,Recall1,2327,CAP,22.222222222222,1862,2094,0,0,,,1
5d51d781dc299300183ce5e2,qwrqko1pna,Emily_Honors_Thesis_Part_2,1,145,2020-07-20T13:38:16-07:00,3.4715111255646,14,versionA_stim_BACKWARD.csv,BACKWARD_READ_JOLVersionB.csv,"BACKWARD READ VERSION B",NEW,CANDLE,WAX,ON2,S,139,143,Test,User,-,,Recall,Recall1,2775,LIGHT,0,2169,2665,0,0,,,1
5d51d781dc299300183ce5e2,qwrqko1pna,Emily_Honors_Thesis_Part_2,1,146,2020-07-20T13:38:19-07:00,3.466344833374,14,versionA_stim_BACKWARD.csv,BACKWARD_READ_JOLVersionB.csv,"BACKWARD READ VERSION B",NEW,JUSTICE,MAROON,ON2,U,156,112,Test,User,-,,Recall,Recall1,2779,COURT,18.181818181818,1989,2675,0,0,,,1
5d51d781dc299300183ce5e2,qwrqko1pna,Emily_Honors_Thesis_Part_2,1,147,2020-07-20T13:38:22-07:00,3.3474740982056,14,versionA_stim_BACKWARD.csv,BACKWARD_READ_JOLVersionB.csv,"BACKWARD READ VERSION B",NEW,FIGHT,BRAWL,ON2,B,135,132,Test,User,-,,Recall,Recall1,2676,ARGUE,20,1812,2466,0,0,,,1
5d51d781dc299300183ce5e2,qwrqko1pna,Emily_Honors_Thesis_Part_2,1,148,2020-07-20T13:38:27-07:00,4.3460879325867,14,versionA_stim_BACKWARD.csv,BACKWARD_READ_JOLVersionB.csv,"BACKWARD READ VERSION B",NEW,TANTRUM,TEMPER,ON2,S,154,159,Test,User,-,,Recall,Recall1,2663,THROW,36.363636363636,1944,2494,0,0,,,1
5d51d781dc299300183ce5e2,qwrqko1pna,Emily_Honors_Thesis_Part_2,1,149,2020-07-20T13:38:30-07:00,3.1311881542206,14,versionA_stim_BACKWARD.csv,BACKWARD_READ_JOLVersionB.csv,"BACKWARD READ VERSION B",NEW,SCALP,HEAD,ON2,F,105,139,Test,User,-,,Recall,Recall1,2467,HEAD,100,1679,2095,1,1,,,1
5d51d781dc299300183ce5e2,qwrqko1pna,Emily_Honors_Thesis_Part_2,1,150,2020-07-20T13:38:43-07:00,12.72656083107,14,versionA_stim_BACKWARD.csv,BACKWARD_READ_JOLVersionB.csv,"BACKWARD READ VERSION B",NEW,TEMPERATURE,MORNING,ON2,U,173,142,Test,User,-,,Recall,Recall1,12067,COLD,18.181818181818,11655,11995,0,0,,,0.148
5d51d781dc299300183ce5e2,qwrqko1pna,Emily_Honors_Thesis_Part_2,1,151,2020-07-20T13:38:46-07:00,3.3178780078888,14,versionA_stim_BACKWARD.csv,BACKWARD_READ_JOLVersionB.csv,"BACKWARD READ VERSION B",NEW,CHERRY,RED,ON2,F,104,109,Test,User,-,,Recall,Recall1,2659,FRUIT,25,1891,2483,0,0,,,1
5d51d781dc299300183ce5e2,qwrqko1pna,Emily_Honors_Thesis_Part_2,1,152,2020-07-20T13:38:50-07:00,4.3745541572571,14,versionA_stim_BACKWARD.csv,BACKWARD_READ_JOLVersionB.csv,"BACKWARD READ VERSION B",NEW,SHELL,SHAKE,ON2,U,163,170,Test,User,-,,Recall,Recall1,3700,SHOCK,60,2773,3324,0,0,,,1
5d51d781dc299300183ce5e2,qwrqko1pna,Emily_Honors_Thesis_Part_2,1,153,2020-07-20T13:38:54-07:00,3.7322900295258,14,versionA_stim_BACKWARD.csv,BACKWARD_READ_JOLVersionB.csv,"BACKWARD READ VERSION B",NEW,LITTER,TRASH,ON2,F,103,148,Test,User,-,,Recall,Recall1,3079,THROW,40,2096,2818,0,0,,,1
5d51d781dc299300183ce5e2,qwrqko1pna,Emily_Honors_Thesis_Part_2,1,154,2020-07-20T13:38:57-07:00,2.7082688808441,14,versionA_stim_BACKWARD.csv,BACKWARD_READ_JOLVersionB.csv,"BACKWARD READ VERSION B",NEW,LISTEN,FICTION,ON2,U,164,171,Test,User,-,,Recall,Recall1,2041,EAR,0,1682,1937,0,0,,,1
5d51d781dc299300183ce5e2,qwrqko1pna,Emily_Honors_Thesis_Part_2,1,155,2020-07-20T13:39:00-07:00,3.3244180679321,14,versionA_stim_BACKWARD.csv,BACKWARD_READ_JOLVersionB.csv,"BACKWARD READ VERSION B",NEW,BOTH,OUNCE,ON2,U,172,175,Test,User,-,,Recall,Recall1,2654,TOGETHER,30.769230769231,1839,2548,0,0,,,1
5d51d781dc299300183ce5e2,qwrqko1pna,Emily_Honors_Thesis_Part_2,1,156,2020-07-20T13:39:04-07:00,3.6183040142059,14,versionA_stim_BACKWARD.csv,BACKWARD_READ_JOLVersionB.csv,"BACKWARD READ VERSION B",NEW,ELEMENT,CARBON,ON2,S,141,126,Test,User,-,,Recall,Recall1,2911,COOK,40,2296,2696,0,0,,,1
5d51d781dc299300183ce5e2,qwrqko1pna,Emily_Honors_Thesis_Part_2,1,157,2020-07-20T13:39:07-07:00,3.0674579143524,14,versionA_stim_BACKWARD.csv,BACKWARD_READ_JOLVersionB.csv,"BACKWARD READ VERSION B",NEW,FURRY,DOG,ON2,F,102,164,Test,User,-,,Recall,Recall1,2376,DOG,100,1958,2272,1,1,,,1
5d51d781dc299300183ce5e2,qwrqko1pna,Emily_Honors_Thesis_Part_2,1,158,2020-07-20T13:39:12-07:00,5.3597600460052,14,versionA_stim_BACKWARD.csv,BACKWARD_READ_JOLVersionB.csv,"BACKWARD READ VERSION B",NEW,DETECTIVE,MYSTERY,ON2,F,100,141,Test,User,-,,Recall,Recall1,4699,COP,0,4253,4482,0,0,,,1
5d51d781dc299300183ce5e2,qwrqko1pna,Emily_Honors_Thesis_Part_2,1,159,2020-07-20T13:39:16-07:00,4.2460570335388,14,versionA_stim_BACKWARD.csv,BACKWARD_READ_JOLVersionB.csv,"BACKWARD READ VERSION B",NEW,LEASE,TOIL,ON2,U,170,150,Test,User,-,,Recall,Recall1,3561,LEND,25,2795,3392,0,0,,,1
5d51d781dc299300183ce5e2,qwrqko1pna,Emily_Honors_Thesis_Part_2,1,160,2020-07-20T13:39:21-07:00,4.3506789207458,14,versionA_stim_BACKWARD.csv,BACKWARD_READ_JOLVersionB.csv,"BACKWARD READ VERSION B",NEW,CAR,WINDSHIELD,ON2,B,117,98,Test,User,-,,Recall,Recall1,3684,MOVE,14.285714285714,3107,3452,0,0,,,1
5d51d781dc299300183ce5e2,qwrqko1pna,Emily_Honors_Thesis_Part_2,1,161,2020-07-20T13:39:24-07:00,3.1471009254456,14,versionA_stim_BACKWARD.csv,BACKWARD_READ_JOLVersionB.csv,"BACKWARD READ VERSION B",NEW,FEUD,FIGHT,ON2,F,113,145,Test,User,-,,Recall,Recall1,2470,FIGHT,100,1974,2326,1,1,,,1
5d51d781dc299300183ce5e2,qwrqko1pna,Emily_Honors_Thesis_Part_2,1,162,2020-07-20T13:39:28-07:00,3.7716040611267,14,versionA_stim_BACKWARD.csv,BACKWARD_READ_JOLVersionB.csv,"BACKWARD READ VERSION B",NEW,SHOELACE,TIE,ON2,F,99,149,Test,User,-,,Recall,Recall1,3103,SHOE,28.571428571429,1798,2936,0,0,,,1
5d51d781dc299300183ce5e2,qwrqko1pna,Emily_Honors_Thesis_Part_2,1,163,2020-07-20T13:39:32-07:00,3.8649361133575,14,versionA_stim_BACKWARD.csv,BACKWARD_READ_JOLVersionB.csv,"BACKWARD READ VERSION B",NEW,MASON,JAR,ON2,S,138,127,Test,User,-,,Recall,Recall1,3192,BRICK,25,1742,2309,0,0,,,1
5d51d781dc299300183ce5e2,qwrqko1pna,Emily_Honors_Thesis_Part_2,1,164,2020-07-20T13:39:36-07:00,4.3033218383789,14,versionA_stim_BACKWARD.csv,BACKWARD_READ_JOLVersionB.csv,"BACKWARD READ VERSION B",NEW,SLEEP,NAP,ON2,B,134,162,Test,User,-,,Recall,Recall1,3627,REST,0,2825,3341,0,0,,,1
5d51d781dc299300183ce5e2,qwrqko1pna,Emily_Honors_Thesis_Part_2,1,165,2020-07-20T13:39:40-07:00,3.9182710647583,14,versionA_stim_BACKWARD.csv,BACKWARD_READ_JOLVersionB.csv,"BACKWARD READ VERSION B",NEW,LOAN,SIGN,ON2,U,171,165,Test,User,-,,Recall,Recall1,2262,MONEY,22.222222222222,1469,1975,0,0,,,1
5d51d781dc299300183ce5e2,qwrqko1pna,Emily_Honors_Thesis_Part_2,1,166,2020-07-20T13:39:45-07:00,4.9481120109558,14,versionA_stim_BACKWARD.csv,BACKWARD_READ_JOLVersionB.csv,"BACKWARD READ VERSION B",NEW,SUN,TAN,ON2,S,155,116,Test,User,-,,Recall,Recall1,4270,BRIGHT,22.222222222222,3646,4143,0,0,,,1
5d51d781dc299300183ce5e2,qwrqko1pna,Emily_Honors_Thesis_Part_2,1,167,2020-07-20T13:39:50-07:00,4.8488309383392,14,versionA_stim_BACKWARD.csv,BACKWARD_READ_JOLVersionB.csv,"BACKWARD READ VERSION B",NEW,HONEST,TRUTHFUL,ON2,B,133,136,Test,User,-,,Recall,Recall1,3182,LIE,18.181818181818,2645,3055,0,0,,,1
5d51d781dc299300183ce5e2,qwrqko1pna,Emily_Honors_Thesis_Part_2,1,168,2020-07-20T13:39:53-07:00,3.0492429733276,14,versionA_stim_BACKWARD.csv,BACKWARD_READ_JOLVersionB.csv,"BACKWARD READ VERSION B",NEW,MOAT,CLEAR,ON2,U,169,160,Test,User,-,,Recall,Recall1,2386,CASTLE,54.545454545455,1502,2290,0,0,,,1
5d51d781dc299300183ce5e2,qwrqko1pna,Emily_Honors_Thesis_Part_2,1,169,2020-07-20T13:39:58-07:00,5.8597371578217,14,versionA_stim_BACKWARD.csv,BACKWARD_READ_JOLVersionB.csv,"BACKWARD READ VERSION B",NEW,BAD,VILLAIN,ON2,B,118,111,Test,User,-,,Recall,Recall1,5167,WROST,0,3806,4783,0,0,,,1
5d51d781dc299300183ce5e2,qwrqko1pna,Emily_Honors_Thesis_Part_2,1,170,2020-07-20T13:40:01-07:00,2.9648928642273,14,versionA_stim_BACKWARD.csv,BACKWARD_READ_JOLVersionB.csv,"BACKWARD READ VERSION B",NEW,CACTUS,PLANT,ON2,F,98,144,Test,User,-,,Recall,Recall1,2278,PLANT,100,1607,2142,1,1,,,1
5d51d781dc299300183ce5e2,qwrqko1pna,Emily_Honors_Thesis_Part_2,1,171,2020-07-20T13:40:21-07:00,19.757595062256,14,versionA_stim_BACKWARD.csv,BACKWARD_READ_JOLVersionB.csv,"BACKWARD READ VERSION B",NEW,EVEN,REVENGE,ON2,B,122,156,Test,User,-,,Recall,Recall1,19099,CATCH,0,18440,18884,0,0,,,0.188
5d51d781dc299300183ce5e2,qwrqko1pna,Emily_Honors_Thesis_Part_2,1,172,2020-07-20T13:40:25-07:00,4.1125359535217,14,versionA_stim_BACKWARD.csv,BACKWARD_READ_JOLVersionB.csv,"BACKWARD READ VERSION B",NEW,CLUE,GAME,ON2,F,97,168,Test,User,-,,Recall,Recall1,3413,MYSTERY,36.363636363636,2320,3111,0,0,,,1
5d51d781dc299300183ce5e2,qwrqko1pna,Emily_Honors_Thesis_Part_2,1,173,2020-07-20T13:40:29-07:00,4.1703200340271,14,versionA_stim_BACKWARD.csv,BACKWARD_READ_JOLVersionB.csv,"BACKWARD READ VERSION B",NEW,GIVE,STEAK,ON2,U,158,101,Test,User,-,,Recall,Recall1,3492,GIFT,22.222222222222,2468,3165,0,0,,,1
5d51d781dc299300183ce5e2,qwrqko1pna,Emily_Honors_Thesis_Part_2,1,174,2020-07-20T13:40:32-07:00,3.0187051296234,14,versionA_stim_BACKWARD.csv,BACKWARD_READ_JOLVersionB.csv,"BACKWARD READ VERSION B",NEW,MONEY,BANKER,ON2,B,132,174,Test,User,-,,Recall,Recall1,2360,BANK,80,1857,2136,0,1,,,1
5d51d781dc299300183ce5e2,qwrqko1pna,Emily_Honors_Thesis_Part_2,1,175,2020-07-20T13:40:36-07:00,3.4096789360046,14,versionA_stim_BACKWARD.csv,BACKWARD_READ_JOLVersionB.csv,"BACKWARD READ VERSION B",NEW,DINE,EAT,ON2,F,111,167,Test,User,-,,Recall,Recall1,2720,EAT,100,2099,2570,1,1,,,1
5d51d781dc299300183ce5e2,qwrqko1pna,Emily_Honors_Thesis_Part_2,1,176,2020-07-20T13:40:39-07:00,2.8343329429626,14,versionA_stim_BACKWARD.csv,BACKWARD_READ_JOLVersionB.csv,"BACKWARD READ VERSION B",NEW,DEAD,COFFIN,ON2,B,128,130,Test,User,-,,Recall,Recall1,2145,GONE,40,1591,1959,0,0,,,1
5d51d781dc299300183ce5e2,qwrqko1pna,Emily_Honors_Thesis_Part_2,1,177,2020-07-20T13:40:41-07:00,2.6612870693207,14,versionA_stim_BACKWARD.csv,BACKWARD_READ_JOLVersionB.csv,"BACKWARD READ VERSION B",NEW,CRACKLE,ABLE,ON2,U,162,131,Test,User,-,,Recall,Recall1,1991,POP,0,1408,1696,0,0,,,1
5d51d781dc299300183ce5e2,qwrqko1pna,Emily_Honors_Thesis_Part_2,1,178,2020-07-20T13:40:49-07:00,7.8939068317413,14,versionA_stim_BACKWARD.csv,BACKWARD_READ_JOLVersionB.csv,"BACKWARD READ VERSION B",NEW,MAIN,SCAR,ON2,U,175,173,Test,User,-,,Recall,Recall1,7197,IMPORANT,16.666666666667,4767,6568,0,0,,,1
5d51d781dc299300183ce5e2,qwrqko1pna,Emily_Honors_Thesis_Part_2,1,179,2020-07-20T13:41:02-07:00,13.002697229385,14,versionA_stim_BACKWARD.csv,BACKWARD_READ_JOLVersionB.csv,"BACKWARD READ VERSION B",NEW,EARTH,GROUND,ON2,S,144,108,Test,User,-,,Recall,Recall1,12323,WIRE,20,11731,12123,0,0,,,0.387
5d51d781dc299300183ce5e2,qwrqko1pna,Emily_Honors_Thesis_Part_2,1,180,2020-07-20T13:41:05-07:00,2.7969579696655,14,versionA_stim_BACKWARD.csv,BACKWARD_READ_JOLVersionB.csv,"BACKWARD READ VERSION B",NEW,SHEARS,SCISSORS,ON2,F,112,122,Test,User,-,,Recall,Recall1,2112,CUT,18.181818181818,1721,2007,0,0,,,1
5d51d781dc299300183ce5e2,qwrqko1pna,Emily_Honors_Thesis_Part_2,1,181,2020-07-20T13:41:08-07:00,3.3374578952789,14,versionA_stim_BACKWARD.csv,BACKWARD_READ_JOLVersionB.csv,"BACKWARD READ VERSION B",NEW,FUZZY,BANG,ON2,U,168,129,Test,User,-,,Recall,Recall1,2635,LOGIC,22.222222222222,1690,2491,0,0,,,1
5d51d781dc299300183ce5e2,qwrqko1pna,Emily_Honors_Thesis_Part_2,1,182,2020-07-20T13:41:14-07:00,5.2516651153564,14,versionA_stim_BACKWARD.csv,BACKWARD_READ_JOLVersionB.csv,"BACKWARD READ VERSION B",NEW,MIRROR,CHILDREN,ON2,U,174,118,Test,User,-,,Recall,Recall1,3560,REFLECT,26.666666666667,1378,3249,0,0,,,1
5d51d781dc299300183ce5e2,qwrqko1pna,Emily_Honors_Thesis_Part_2,1,183,2020-07-20T13:41:16-07:00,1.9744899272919,14,versionA_stim_BACKWARD.csv,BACKWARD_READ_JOLVersionB.csv,"BACKWARD READ VERSION B",NEW,DRIVER,CAR,ON2,F,106,133,Test,User,-,,Recall,Recall1,1476,CAR,100,1071,1390,1,1,,,1
5d51d781dc299300183ce5e2,qwrqko1pna,Emily_Honors_Thesis_Part_2,1,184,2020-07-20T13:41:19-07:00,3.4121088981628,14,versionA_stim_BACKWARD.csv,BACKWARD_READ_JOLVersionB.csv,"BACKWARD READ VERSION B",NEW,OWN,HAVE,ON2,S,153,134,Test,User,-,,Recall,Recall1,2733,LEASE,22.222222222222,1935,2537,0,0,,,1
5d51d781dc299300183ce5e2,qwrqko1pna,Emily_Honors_Thesis_Part_2,1,185,2020-07-20T13:41:23-07:00,3.9510669708252,14,versionA_stim_BACKWARD.csv,BACKWARD_READ_JOLVersionB.csv,"BACKWARD READ VERSION B",NEW,GONE,AWAY,ON2,S,142,146,Test,User,-,,Recall,Recall1,3278,LEFT,0,2688,3183,0,0,,,1
5d51d781dc299300183ce5e2,qwrqko1pna,Emily_Honors_Thesis_Part_2,1,186,2020-07-20T13:41:27-07:00,3.863862991333,14,versionA_stim_BACKWARD.csv,BACKWARD_READ_JOLVersionB.csv,"BACKWARD READ VERSION B",NEW,DRY,WET,ON2,S,146,113,Test,User,-,,Recall,Recall1,3177,TOWEL,50,2296,2913,0,0,,,1
5d51d781dc299300183ce5e2,qwrqko1pna,Emily_Honors_Thesis_Part_2,1,187,2020-07-20T13:41:32-07:00,4.9698061943054,14,versionA_stim_BACKWARD.csv,BACKWARD_READ_JOLVersionB.csv,"BACKWARD READ VERSION B",NEW,PLANE,AIRCRAFT,ON2,B,129,151,Test,User,-,,Recall,Recall1,4285,AIR,54.545454545455,3694,4067,0,0,,,1
5d51d781dc299300183ce5e2,qwrqko1pna,Emily_Honors_Thesis_Part_2,1,188,2020-07-20T13:41:35-07:00,3.1736559867859,14,versionA_stim_BACKWARD.csv,BACKWARD_READ_JOLVersionB.csv,"BACKWARD READ VERSION B",NEW,SAFETY,SEATBELT,ON2,S,147,147,Test,User,-,,Recall,Recall1,2493,CAR,18.181818181818,1426,1759,0,0,,,1
5d51d781dc299300183ce5e2,qwrqko1pna,Emily_Honors_Thesis_Part_2,1,189,2020-07-20T13:41:38-07:00,3.4064028263092,14,versionA_stim_BACKWARD.csv,BACKWARD_READ_JOLVersionB.csv,"BACKWARD READ VERSION B",NEW,FLEA,TICK,ON2,S,151,161,Test,User,-,,Recall,Recall1,2748,TICK,100,2166,2550,1,1,,,1
5d51d781dc299300183ce5e2,qwrqko1pna,Emily_Honors_Thesis_Part_2,1,190,2020-07-20T13:41:40-07:00,1.6179351806641,14,versionA_stim_BACKWARD.csv,BACKWARD_READ_JOLVersionB.csv,"BACKWARD READ VERSION B",NEW,,,,,,0,Instruct,User,-,"You have completed this section. Please press Enter.",Filler_Instruction,Instruct21,1113,,,-1,-1,,,,,1
5d51d781dc299300183ce5e2,qwrqko1pna,Emily_Honors_Thesis_Part_2,1,191,2020-07-20T13:42:39-07:00,58.725816965103,14,versionA_stim_BACKWARD.csv,BACKWARD_READ_JOLVersionB.csv,"BACKWARD READ VERSION B",NEW,,,,,,0,Instruct,-,12,"The order that words are presented in can affect how well you remember them. For example, the pairs CREDIT-CARD and CARD-CREDIT both have the same words, but people are less likely to remember CARD-CREDIT because the order is uncommon. On the next screen you will be shown a graph illustrating this finding. Please study it for at least 20 seconds.",,BACKWARD_INSTRUCTIONS1,58015,,,-1,-1,,,,,0.324
5d51d781dc299300183ce5e2,qwrqko1pna,Emily_Honors_Thesis_Part_2,1,192,2020-07-20T13:43:06-07:00,26.886570930481,14,versionA_stim_BACKWARD.csv,BACKWARD_READ_JOLVersionB.csv,"BACKWARD READ VERSION B",NEW,images/Sample.jpg,"Forward pairs (CREDIT-CARD) are remembered better than Backward pairs (CARD-CREDIT) and Symmetrical pairs (KING-QUEEN), even though people rate their ability to remember them the same way. Please keep this in mind as you make your ratings!",,,,192,StudyPic,-,20,,,GRAPH1,26177,,,-1,-1,,,,,1
5d51d781dc299300183ce5e2,qwrqko1pna,Emily_Honors_Thesis_Part_2,1,193,2020-07-20T13:43:17-07:00,10.847295045853,14,versionA_stim_BACKWARD.csv,BACKWARD_READ_JOLVersionB.csv,"BACKWARD READ VERSION B",NEW,,,,,,0,FreeRecall,-,10,"Based on the graph you just studied, what pair type is best remembered (Forward, Backward, or Symmetrical)?",,BACKWARD_INSTRUCTIONS2,10125,FORWARD,0,5303,9110,0,0,,,1
5d51d781dc299300183ce5e2,qwrqko1pna,Emily_Honors_Thesis_Part_2,1,194,2020-07-20T13:44:09-07:00,52.000367879868,14,versionA_stim_BACKWARD.csv,BACKWARD_READ_JOLVersionB.csv,"BACKWARD READ VERSION B",NEW,,,,,,0,Instruct,-,10,"You will now be presented with a new set of word pairs. Please study each pair. Remember that your memory will be tested! When finished, press Enter to move to the next pair.",Initial_Instruct,Instruct4,51292,,,-1,-1,,,,,0.152
5d51d781dc299300183ce5e2,qwrqko1pna,Emily_Honors_Thesis_Part_2,1,195,2020-07-20T13:44:37-07:00,28.737832069397,14,versionA_stim_BACKWARD.csv,BACKWARD_READ_JOLVersionB.csv,"BACKWARD READ VERSION B",NEW,,,,,,0,Instruct,-,10,"You will again be asked to rate your ability to remember these items using a 0 to 100 scale. Remember to use the full range of the scale!",,Instruct10,28057,,,-1,-1,,,,,0.234
5d51d781dc299300183ce5e2,qwrqko1pna,Emily_Honors_Thesis_Part_2,1,196,2020-07-20T13:44:49-07:00,11.710469007492,14,versionA_stim_BACKWARD.csv,BACKWARD_READ_JOLVersionB.csv,"BACKWARD READ VERSION B",NEW,,,,,,0,Instruct,User,-,"Press Enter when you are readty to begin",,Instruct11,11016,,,-1,-1,,,,,0.446
5d51d781dc299300183ce5e2,qwrqko1pna,Emily_Honors_Thesis_Part_2,1,197,2020-07-20T13:44:55-07:00,5.6130471229553,14,versionA_stim_BACKWARD.csv,BACKWARD_READ_JOLVersionB.csv,"BACKWARD READ VERSION B",NEW,SCARE,HIDE,Buffer,Buffer,4,2,JOL,User,-,"How likely are you to correctly recall the second item in the pair?|Type your response on a scale from 0-100 and then press Enter.",Study/JOL,BUFFER3,4955,,,4653,4749,,,,10,1
5d51d781dc299300183ce5e2,qwrqko1pna,Emily_Honors_Thesis_Part_2,1,198,2020-07-20T13:44:58-07:00,3.8894248008728,14,versionA_stim_BACKWARD.csv,BACKWARD_READ_JOLVersionB.csv,"BACKWARD READ VERSION B",NEW,TREES,GREEN,Buffer,Buffer,1,4,JOL,User,-,"How likely are you to correctly recall the second item in the pair?|Type your response on a scale from 0-100 and then press Enter.",Study/JOL,BUFFER3,3196,,,2909,2998,,,,20,1
5d51d781dc299300183ce5e2,qwrqko1pna,Emily_Honors_Thesis_Part_2,1,199,2020-07-20T13:45:02-07:00,3.8032882213593,14,versionA_stim_BACKWARD.csv,BACKWARD_READ_JOLVersionB.csv,"BACKWARD READ VERSION B",NEW,BASEBALL,CATCHER,Buffer,Buffer,2,6,JOL,User,-,"How likely are you to correctly recall the second item in the pair?|Type your response on a scale from 0-100 and then press Enter.",Study/JOL,BUFFER3,3113,,,2849,2923,,,,50,1
5d51d781dc299300183ce5e2,qwrqko1pna,Emily_Honors_Thesis_Part_2,1,200,2020-07-20T13:45:05-07:00,2.6165587902069,14,versionA_stim_BACKWARD.csv,BACKWARD_READ_JOLVersionB.csv,"BACKWARD READ VERSION B",NEW,PEANUT,BUTTER,Buffer,Buffer,3,5,JOL,User,-,"How likely are you to correctly recall the second item in the pair?|Type your response on a scale from 0-100 and then press Enter.",Study/JOL,BUFFER3,1814,,,1477,1575,,,,80,1
5d51d781dc299300183ce5e2,qwrqko1pna,Emily_Honors_Thesis_Part_2,1,201,2020-07-20T13:45:08-07:00,3.2784860134125,14,versionA_stim_BACKWARD.csv,BACKWARD_READ_JOLVersionB.csv,"BACKWARD READ VERSION B",NEW,SPACE,JAM,Buffer,Buffer,5,3,JOL,User,-,"How likely are you to correctly recall the second item in the pair?|Type your response on a scale from 0-100 and then press Enter.",Study/JOL,BUFFER3,2624,,,1655,2409,,,,70,1
5d51d781dc299300183ce5e2,qwrqko1pna,Emily_Honors_Thesis_Part_2,1,202,2020-07-20T13:45:11-07:00,3.1783699989319,14,versionA_stim_BACKWARD.csv,BACKWARD_READ_JOLVersionB.csv,"BACKWARD READ VERSION B",NEW,WAGE,MONEY,ON,F,8,24,JOL,User,-,"How likely are you to correctly recall the second item in the pair?|Type your response on a scale from 0-100 and then press Enter.",Study/JOL,"Study Phase2",1699,,,1425,1525,,,,10,1
5d51d781dc299300183ce5e2,qwrqko1pna,Emily_Honors_Thesis_Part_2,1,203,2020-07-20T13:45:14-07:00,2.6569931507111,14,versionA_stim_BACKWARD.csv,BACKWARD_READ_JOLVersionB.csv,"BACKWARD READ VERSION B",NEW,KEY,LATCH,ON,B,36,46,JOL,User,-,"How likely are you to correctly recall the second item in the pair?|Type your response on a scale from 0-100 and then press Enter.",Study/JOL,"Study Phase2",2006,,,1830,1830,,,,0,1
5d51d781dc299300183ce5e2,qwrqko1pna,Emily_Honors_Thesis_Part_2,1,204,2020-07-20T13:45:18-07:00,4.1437458992004,14,versionA_stim_BACKWARD.csv,BACKWARD_READ_JOLVersionB.csv,"BACKWARD READ VERSION B",NEW,TAKE,SEIZE,ON,B,29,75,JOL,User,-,"How likely are you to correctly recall the second item in the pair?|Type your response on a scale from 0-100 and then press Enter.",Study/JOL,"Study Phase2",3478,,,3174,3245,,,,40,1
5d51d781dc299300183ce5e2,qwrqko1pna,Emily_Honors_Thesis_Part_2,1,205,2020-07-20T13:45:21-07:00,2.6232831478119,14,versionA_stim_BACKWARD.csv,BACKWARD_READ_JOLVersionB.csv,"BACKWARD READ VERSION B",NEW,WINE,CHEESE,ON,S,57,74,JOL,User,-,"How likely are you to correctly recall the second item in the pair?|Type your response on a scale from 0-100 and then press Enter.",Study/JOL,"Study Phase2",1848,,,1511,1584,,,,10,1
5d51d781dc299300183ce5e2,qwrqko1pna,Emily_Honors_Thesis_Part_2,1,206,2020-07-20T13:45:25-07:00,3.9986109733582,14,versionA_stim_BACKWARD.csv,BACKWARD_READ_JOLVersionB.csv,"BACKWARD READ VERSION B",NEW,BITTER,COLD,ON,F,12,61,JOL,User,-,"How likely are you to correctly recall the second item in the pair?|Type your response on a scale from 0-100 and then press Enter.",Study/JOL,"Study Phase2",3326,,,2992,3077,,,,80,1
5d51d781dc299300183ce5e2,qwrqko1pna,Emily_Honors_Thesis_Part_2,1,207,2020-07-20T13:45:27-07:00,1.966048002243,14,versionA_stim_BACKWARD.csv,BACKWARD_READ_JOLVersionB.csv,"BACKWARD READ VERSION B",NEW,DEATH,BUSINESS,ON,U,72,23,JOL,User,-,"How likely are you to correctly recall the second item in the pair?|Type your response on a scale from 0-100 and then press Enter.",Study/JOL,"Study Phase2",1492,,,1213,1213,,,,0,1
5d51d781dc299300183ce5e2,qwrqko1pna,Emily_Honors_Thesis_Part_2,1,208,2020-07-20T13:45:30-07:00,3.1544728279114,14,versionA_stim_BACKWARD.csv,BACKWARD_READ_JOLVersionB.csv,"BACKWARD READ VERSION B",NEW,PUSHER,CLUTTER,ON,U,66,7,JOL,User,-,"How likely are you to correctly recall the second item in the pair?|Type your response on a scale from 0-100 and then press Enter.",Study/JOL,"Study Phase2",2484,,,2222,2222,,,,0,1
5d51d781dc299300183ce5e2,qwrqko1pna,Emily_Honors_Thesis_Part_2,1,209,2020-07-20T13:45:33-07:00,2.6170501708984,14,versionA_stim_BACKWARD.csv,BACKWARD_READ_JOLVersionB.csv,"BACKWARD READ VERSION B",NEW,ARCHITECTURE,DESIGN,ON,S,51,41,JOL,User,-,"How likely are you to correctly recall the second item in the pair?|Type your response on a scale from 0-100 and then press Enter.",Study/JOL,"Study Phase2",1824,,,1471,1585,,,,70,1
5d51d781dc299300183ce5e2,qwrqko1pna,Emily_Honors_Thesis_Part_2,1,210,2020-07-20T13:45:37-07:00,4.8722100257874,14,versionA_stim_BACKWARD.csv,BACKWARD_READ_JOLVersionB.csv,"BACKWARD READ VERSION B",NEW,GEOLOGY,ROCK,ON,F,19,20,JOL,User,-,"How likely are you to correctly recall the second item in the pair?|Type your response on a scale from 0-100 and then press Enter.",Study/JOL,"Study Phase2",4205,,,3886,3976,,,,70,1
5d51d781dc299300183ce5e2,qwrqko1pna,Emily_Honors_Thesis_Part_2,1,211,2020-07-20T13:45:44-07:00,6.590204000473,14,versionA_stim_BACKWARD.csv,BACKWARD_READ_JOLVersionB.csv,"BACKWARD READ VERSION B",NEW,REVOLUTION,WAR,ON,F,20,13,JOL,User,-,"How likely are you to correctly recall the second item in the pair?|Type your response on a scale from 0-100 and then press Enter.",Study/JOL,"Study Phase2",5922,,,5570,5671,,,,10,1
5d51d781dc299300183ce5e2,qwrqko1pna,Emily_Honors_Thesis_Part_2,1,212,2020-07-20T13:46:03-07:00,19.15124797821,14,versionA_stim_BACKWARD.csv,BACKWARD_READ_JOLVersionB.csv,"BACKWARD READ VERSION B",NEW,BUG,WASP,ON,B,32,16,JOL,User,-,"How likely are you to correctly recall the second item in the pair?|Type your response on a scale from 0-100 and then press Enter.",Study/JOL,"Study Phase2",18456,,,18306,18306,,,,0,1
5d51d781dc299300183ce5e2,qwrqko1pna,Emily_Honors_Thesis_Part_2,1,213,2020-07-20T13:46:06-07:00,3.1359620094299,14,versionA_stim_BACKWARD.csv,BACKWARD_READ_JOLVersionB.csv,"BACKWARD READ VERSION B",NEW,DUE,ASSIGNMENT,ON,S,46,11,JOL,User,-,"How likely are you to correctly recall the second item in the pair?|Type your response on a scale from 0-100 and then press Enter.",Study/JOL,"Study Phase2",2462,,,2240,2321,,,,60,1
5d51d781dc299300183ce5e2,qwrqko1pna,Emily_Honors_Thesis_Part_2,1,214,2020-07-20T13:46:10-07:00,3.4602329730988,14,versionA_stim_BACKWARD.csv,BACKWARD_READ_JOLVersionB.csv,"BACKWARD READ VERSION B",NEW,KIDNEY,LIVER,ON,S,53,15,JOL,User,-,"How likely are you to correctly recall the second item in the pair?|Type your response on a scale from 0-100 and then press Enter.",Study/JOL,"Study Phase2",2753,,,2522,2591,,,,40,1
5d51d781dc299300183ce5e2,qwrqko1pna,Emily_Honors_Thesis_Part_2,1,215,2020-07-20T13:46:14-07:00,4.462219953537,14,versionA_stim_BACKWARD.csv,BACKWARD_READ_JOLVersionB.csv,"BACKWARD READ VERSION B",NEW,CIRCLE,ROUND,ON,S,65,26,JOL,User,-,"How likely are you to correctly recall the second item in the pair?|Type your response on a scale from 0-100 and then press Enter.",Study/JOL,"Study Phase2",2795,,,973,2716,,,,100,1
5d51d781dc299300183ce5e2,qwrqko1pna,Emily_Honors_Thesis_Part_2,1,216,2020-07-20T13:46:17-07:00,2.7198779582977,14,versionA_stim_BACKWARD.csv,BACKWARD_READ_JOLVersionB.csv,"BACKWARD READ VERSION B",NEW,HONEY,BEE,ON,S,63,63,JOL,User,-,"How likely are you to correctly recall the second item in the pair?|Type your response on a scale from 0-100 and then press Enter.",Study/JOL,"Study Phase2",2030,,,1713,1798,,,,70,1
5d51d781dc299300183ce5e2,qwrqko1pna,Emily_Honors_Thesis_Part_2,1,217,2020-07-20T13:46:19-07:00,2.109393119812,14,versionA_stim_BACKWARD.csv,BACKWARD_READ_JOLVersionB.csv,"BACKWARD READ VERSION B",NEW,HORNET,STING,ON,F,11,81,JOL,User,-,"How likely are you to correctly recall the second item in the pair?|Type your response on a scale from 0-100 and then press Enter.",Study/JOL,"Study Phase2",1640,,,1386,1458,,,,50,1
5d51d781dc299300183ce5e2,qwrqko1pna,Emily_Honors_Thesis_Part_2,1,218,2020-07-20T13:46:22-07:00,2.63440990448,14,versionA_stim_BACKWARD.csv,BACKWARD_READ_JOLVersionB.csv,"BACKWARD READ VERSION B",NEW,BLOW,WIND,ON,S,55,52,JOL,User,-,"How likely are you to correctly recall the second item in the pair?|Type your response on a scale from 0-100 and then press Enter.",Study/JOL,"Study Phase2",1892,,,1646,1725,,,,60,1
5d51d781dc299300183ce5e2,qwrqko1pna,Emily_Honors_Thesis_Part_2,1,219,2020-07-20T13:46:24-07:00,2.8483769893646,14,versionA_stim_BACKWARD.csv,BACKWARD_READ_JOLVersionB.csv,"BACKWARD READ VERSION B",NEW,WAY,OUT,ON,F,16,8,JOL,User,-,"How likely are you to correctly recall the second item in the pair?|Type your response on a scale from 0-100 and then press Enter.",Study/JOL,"Study Phase2",2153,,,1736,2023,,,,100,1
5d51d781dc299300183ce5e2,qwrqko1pna,Emily_Honors_Thesis_Part_2,1,220,2020-07-20T13:46:37-07:00,12.278764009476,14,versionA_stim_BACKWARD.csv,BACKWARD_READ_JOLVersionB.csv,"BACKWARD READ VERSION B",NEW,FULL,ENOUGH,ON,B,26,67,JOL,User,-,"How likely are you to correctly recall the second item in the pair?|Type your response on a scale from 0-100 and then press Enter.",Study/JOL,"Study Phase2",11582,,,11368,11428,,,,10,0.328
5d51d781dc299300183ce5e2,qwrqko1pna,Emily_Honors_Thesis_Part_2,1,221,2020-07-20T13:46:39-07:00,2.1426410675049,14,versionA_stim_BACKWARD.csv,BACKWARD_READ_JOLVersionB.csv,"BACKWARD READ VERSION B",NEW,GRILL,BAR,ON,S,52,19,JOL,User,-,"How likely are you to correctly recall the second item in the pair?|Type your response on a scale from 0-100 and then press Enter.",Study/JOL,"Study Phase2",1654,,,1425,1486,,,,40,1
5d51d781dc299300183ce5e2,qwrqko1pna,Emily_Honors_Thesis_Part_2,1,222,2020-07-20T13:46:41-07:00,2.2252678871155,14,versionA_stim_BACKWARD.csv,BACKWARD_READ_JOLVersionB.csv,"BACKWARD READ VERSION B",NEW,GREAT,FANTASTIC,ON,B,35,40,JOL,User,-,"How likely are you to correctly recall the second item in the pair?|Type your response on a scale from 0-100 and then press Enter.",Study/JOL,"Study Phase2",1717,,,1463,1559,,,,80,1
5d51d781dc299300183ce5e2,qwrqko1pna,Emily_Honors_Thesis_Part_2,1,223,2020-07-20T13:46:44-07:00,2.6385819911957,14,versionA_stim_BACKWARD.csv,BACKWARD_READ_JOLVersionB.csv,"BACKWARD READ VERSION B",NEW,POP,SODA,ON,S,56,72,JOL,User,-,"How likely are you to correctly recall the second item in the pair?|Type your response on a scale from 0-100 and then press Enter.",Study/JOL,"Study Phase2",1970,,,1476,1755,,,,700,1
5d51d781dc299300183ce5e2,qwrqko1pna,Emily_Honors_Thesis_Part_2,1,224,2020-07-20T13:46:52-07:00,7.7372601032257,14,versionA_stim_BACKWARD.csv,BACKWARD_READ_JOLVersionB.csv,"BACKWARD READ VERSION B",NEW,CHISEL,HAMMER,ON,F,9,37,JOL,User,-,"How likely are you to correctly recall the second item in the pair?|Type your response on a scale from 0-100 and then press Enter.",Study/JOL,"Study Phase2",6094,,,5773,5869,,,,40,1
5d51d781dc299300183ce5e2,qwrqko1pna,Emily_Honors_Thesis_Part_2,1,225,2020-07-20T13:46:55-07:00,3.661248922348,14,versionA_stim_BACKWARD.csv,BACKWARD_READ_JOLVersionB.csv,"BACKWARD READ VERSION B",NEW,WORK,CHORE,ON,B,39,38,JOL,User,-,"How likely are you to correctly recall the second item in the pair?|Type your response on a scale from 0-100 and then press Enter.",Study/JOL,"Study Phase2",1998,,,1638,1775,,,,60,1
5d51d781dc299300183ce5e2,qwrqko1pna,Emily_Honors_Thesis_Part_2,1,226,2020-07-20T13:46:59-07:00,3.4407939910889,14,versionA_stim_BACKWARD.csv,BACKWARD_READ_JOLVersionB.csv,"BACKWARD READ VERSION B",NEW,SMELL,STENCH,ON,B,42,30,JOL,User,-,"How likely are you to correctly recall the second item in the pair?|Type your response on a scale from 0-100 and then press Enter.",Study/JOL,"Study Phase2",2770,,,2371,2474,,,,80,1
5d51d781dc299300183ce5e2,qwrqko1pna,Emily_Honors_Thesis_Part_2,1,227,2020-07-20T13:47:01-07:00,2.2058119773865,14,versionA_stim_BACKWARD.csv,BACKWARD_READ_JOLVersionB.csv,"BACKWARD READ VERSION B",NEW,SOON,BELT,ON,U,70,51,JOL,User,-,"How likely are you to correctly recall the second item in the pair?|Type your response on a scale from 0-100 and then press Enter.",Study/JOL,"Study Phase2",1740,,,1562,1562,,,,0,1
5d51d781dc299300183ce5e2,qwrqko1pna,Emily_Honors_Thesis_Part_2,1,228,2020-07-20T13:47:03-07:00,1.7920451164246,14,versionA_stim_BACKWARD.csv,BACKWARD_READ_JOLVersionB.csv,"BACKWARD READ VERSION B",NEW,LIFT,WOMAN,ON,U,69,70,JOL,User,-,"How likely are you to correctly recall the second item in the pair?|Type your response on a scale from 0-100 and then press Enter.",Study/JOL,"Study Phase2",1322,,,1085,1086,,,,0,1
5d51d781dc299300183ce5e2,qwrqko1pna,Emily_Honors_Thesis_Part_2,1,229,2020-07-20T13:47:06-07:00,3.1377489566803,14,versionA_stim_BACKWARD.csv,BACKWARD_READ_JOLVersionB.csv,"BACKWARD READ VERSION B",NEW,FIRE,BLAZE,ON,B,45,65,JOL,User,-,"How likely are you to correctly recall the second item in the pair?|Type your response on a scale from 0-100 and then press Enter.",Study/JOL,"Study Phase2",2447,,,1994,2158,,,,70,1
5d51d781dc299300183ce5e2,qwrqko1pna,Emily_Honors_Thesis_Part_2,1,230,2020-07-20T13:47:08-07:00,2.6428349018097,14,versionA_stim_BACKWARD.csv,BACKWARD_READ_JOLVersionB.csv,"BACKWARD READ VERSION B",NEW,HYGIENE,CLEAN,ON,F,17,14,JOL,User,-,"How likely are you to correctly recall the second item in the pair?|Type your response on a scale from 0-100 and then press Enter.",Study/JOL,"Study Phase2",1895,,,1584,1669,,,,80,1
5d51d781dc299300183ce5e2,qwrqko1pna,Emily_Honors_Thesis_Part_2,1,231,2020-07-20T13:47:26-07:00,17.368911027908,14,versionA_stim_BACKWARD.csv,BACKWARD_READ_JOLVersionB.csv,"BACKWARD READ VERSION B",NEW,PAW,DOG,ON,F,15,56,JOL,User,-,"How likely are you to correctly recall the second item in the pair?|Type your response on a scale from 0-100 and then press Enter.",Study/JOL,"Study Phase2",16714,,,16015,16505,,,,100,0.179
5d51d781dc299300183ce5e2,qwrqko1pna,Emily_Honors_Thesis_Part_2,1,232,2020-07-20T13:47:28-07:00,2.7159759998322,14,versionA_stim_BACKWARD.csv,BACKWARD_READ_JOLVersionB.csv,"BACKWARD READ VERSION B",NEW,HUNGER,FAMINE,ON,B,40,68,JOL,User,-,"How likely are you to correctly recall the second item in the pair?|Type your response on a scale from 0-100 and then press Enter.",Study/JOL,"Study Phase2",2033,,,1653,1763,,,,70,1
5d51d781dc299300183ce5e2,qwrqko1pna,Emily_Honors_Thesis_Part_2,1,233,2020-07-20T13:47:30-07:00,1.7051911354065,14,versionA_stim_BACKWARD.csv,BACKWARD_READ_JOLVersionB.csv,"BACKWARD READ VERSION B",NEW,VALLEY,ADD,ON,U,82,21,JOL,User,-,"How likely are you to correctly recall the second item in the pair?|Type your response on a scale from 0-100 and then press Enter.",Study/JOL,"Study Phase2",1211,,,1043,1043,,,,0,1
5d51d781dc299300183ce5e2,qwrqko1pna,Emily_Honors_Thesis_Part_2,1,234,2020-07-20T13:47:32-07:00,1.8321669101715,14,versionA_stim_BACKWARD.csv,BACKWARD_READ_JOLVersionB.csv,"BACKWARD READ VERSION B",NEW,LETTUCE,SALAD,ON,S,59,34,JOL,User,-,"How likely are you to correctly recall the second item in the pair?|Type your response on a scale from 0-100 and then press Enter.",Study/JOL,"Study Phase2",1350,,,1056,1160,,,,50,1
5d51d781dc299300183ce5e2,qwrqko1pna,Emily_Honors_Thesis_Part_2,1,235,2020-07-20T13:47:34-07:00,1.6502931118011,14,versionA_stim_BACKWARD.csv,BACKWARD_READ_JOLVersionB.csv,"BACKWARD READ VERSION B",NEW,HIDE,SICK,ON,U,84,78,JOL,User,-,"How likely are you to correctly recall the second item in the pair?|Type your response on a scale from 0-100 and then press Enter.",Study/JOL,"Study Phase2",1152,,,969,969,,,,0,1
5d51d781dc299300183ce5e2,qwrqko1pna,Emily_Honors_Thesis_Part_2,1,236,2020-07-20T13:47:37-07:00,3.6213138103485,14,versionA_stim_BACKWARD.csv,BACKWARD_READ_JOLVersionB.csv,"BACKWARD READ VERSION B",NEW,HEIGHT,GROWTH,ON,B,30,62,JOL,User,-,"How likely are you to correctly recall the second item in the pair?|Type your response on a scale from 0-100 and then press Enter.",Study/JOL,"Study Phase2",1871,,,1379,1464,,,,80,1
5d51d781dc299300183ce5e2,qwrqko1pna,Emily_Honors_Thesis_Part_2,1,237,2020-07-20T13:47:40-07:00,2.9270861148834,14,versionA_stim_BACKWARD.csv,BACKWARD_READ_JOLVersionB.csv,"BACKWARD READ VERSION B",NEW,STRONG,ACCIDENT,ON,U,80,12,JOL,User,-,"How likely are you to correctly recall the second item in the pair?|Type your response on a scale from 0-100 and then press Enter.",Study/JOL,"Study Phase2",2257,,,1876,1955,,,,20,1
5d51d781dc299300183ce5e2,qwrqko1pna,Emily_Honors_Thesis_Part_2,1,238,2020-07-20T13:47:42-07:00,2.1371009349823,14,versionA_stim_BACKWARD.csv,BACKWARD_READ_JOLVersionB.csv,"BACKWARD READ VERSION B",NEW,PLANE,PILOT,ON,B,44,35,JOL,User,-,"How likely are you to correctly recall the second item in the pair?|Type your response on a scale from 0-100 and then press Enter.",Study/JOL,"Study Phase2",1678,,,1260,1381,,,,70,1
5d51d781dc299300183ce5e2,qwrqko1pna,Emily_Honors_Thesis_Part_2,1,239,2020-07-20T13:47:45-07:00,2.2041919231415,14,versionA_stim_BACKWARD.csv,BACKWARD_READ_JOLVersionB.csv,"BACKWARD READ VERSION B",NEW,BALL,RACKET,ON,B,38,9,JOL,User,-,"How likely are you to correctly recall the second item in the pair?|Type your response on a scale from 0-100 and then press Enter.",Study/JOL,"Study Phase2",1706,,,1342,1447,,,,40,1
5d51d781dc299300183ce5e2,qwrqko1pna,Emily_Honors_Thesis_Part_2,1,240,2020-07-20T13:47:47-07:00,2.8820850849152,14,versionA_stim_BACKWARD.csv,BACKWARD_READ_JOLVersionB.csv,"BACKWARD READ VERSION B",NEW,HAPPY,CAR,ON,U,77,64,JOL,User,-,"How likely are you to correctly recall the second item in the pair?|Type your response on a scale from 0-100 and then press Enter.",Study/JOL,"Study Phase2",1391,,,996,996,,,,0,1
5d51d781dc299300183ce5e2,qwrqko1pna,Emily_Honors_Thesis_Part_2,1,241,2020-07-20T13:47:49-07:00,1.6659560203552,14,versionA_stim_BACKWARD.csv,BACKWARD_READ_JOLVersionB.csv,"BACKWARD READ VERSION B",NEW,PARK,HUNGRY,ON,U,68,33,JOL,User,-,"How likely are you to correctly recall the second item in the pair?|Type your response on a scale from 0-100 and then press Enter.",Study/JOL,"Study Phase2",1189,,,983,983,,,,0,1
5d51d781dc299300183ce5e2,qwrqko1pna,Emily_Honors_Thesis_Part_2,1,242,2020-07-20T13:47:51-07:00,2.2130239009857,14,versionA_stim_BACKWARD.csv,BACKWARD_READ_JOLVersionB.csv,"BACKWARD READ VERSION B",NEW,BEGIN,END,ON,S,54,39,JOL,User,-,"How likely are you to correctly recall the second item in the pair?|Type your response on a scale from 0-100 and then press Enter.",Study/JOL,"Study Phase2",1749,,,1270,1400,,,,60,1
5d51d781dc299300183ce5e2,qwrqko1pna,Emily_Honors_Thesis_Part_2,1,243,2020-07-20T13:47:53-07:00,1.9926791191101,14,versionA_stim_BACKWARD.csv,BACKWARD_READ_JOLVersionB.csv,"BACKWARD READ VERSION B",NEW,ORCHID,FLOWER,ON,F,24,53,JOL,User,-,"How likely are you to correctly recall the second item in the pair?|Type your response on a scale from 0-100 and then press Enter.",Study/JOL,"Study Phase2",1513,,,1203,1307,,,,50,1
5d51d781dc299300183ce5e2,qwrqko1pna,Emily_Honors_Thesis_Part_2,1,244,2020-07-20T13:47:55-07:00,1.6675040721893,14,versionA_stim_BACKWARD.csv,BACKWARD_READ_JOLVersionB.csv,"BACKWARD READ VERSION B",NEW,SUGAR,RIDDLE,ON,U,81,10,JOL,User,-,"How likely are you to correctly recall the second item in the pair?|Type your response on a scale from 0-100 and then press Enter.",Study/JOL,"Study Phase2",1208,,,1029,1029,,,,0,1
5d51d781dc299300183ce5e2,qwrqko1pna,Emily_Honors_Thesis_Part_2,1,245,2020-07-20T13:47:58-07:00,2.8352530002594,14,versionA_stim_BACKWARD.csv,BACKWARD_READ_JOLVersionB.csv,"BACKWARD READ VERSION B",NEW,TRIAL,JURY,ON,S,50,59,JOL,User,-,"How likely are you to correctly recall the second item in the pair?|Type your response on a scale from 0-100 and then press Enter.",Study/JOL,"Study Phase2",1376,,,1064,1170,,,,40,1
5d51d781dc299300183ce5e2,qwrqko1pna,Emily_Honors_Thesis_Part_2,1,246,2020-07-20T13:48:00-07:00,2.6759188175201,14,versionA_stim_BACKWARD.csv,BACKWARD_READ_JOLVersionB.csv,"BACKWARD READ VERSION B",NEW,EDITOR,NEWS,ON,F,10,71,JOL,User,-,"How likely are you to correctly recall the second item in the pair?|Type your response on a scale from 0-100 and then press Enter.",Study/JOL,"Study Phase2",2019,,,1764,1844,,,,20,1
5d51d781dc299300183ce5e2,qwrqko1pna,Emily_Honors_Thesis_Part_2,1,247,2020-07-20T13:48:02-07:00,1.9673631191254,14,versionA_stim_BACKWARD.csv,BACKWARD_READ_JOLVersionB.csv,"BACKWARD READ VERSION B",NEW,SLEEP,DROWSY,ON,B,41,69,JOL,User,-,"How likely are you to correctly recall the second item in the pair?|Type your response on a scale from 0-100 and then press Enter.",Study/JOL,"Study Phase2",1495,,,1209,1296,,,,80,1
5d51d781dc299300183ce5e2,qwrqko1pna,Emily_Honors_Thesis_Part_2,1,248,2020-07-20T13:48:05-07:00,2.7186379432678,14,versionA_stim_BACKWARD.csv,BACKWARD_READ_JOLVersionB.csv,"BACKWARD READ VERSION B",NEW,DEBATE,SIGHT,ON,U,73,77,JOL,User,-,"How likely are you to correctly recall the second item in the pair?|Type your response on a scale from 0-100 and then press Enter.",Study/JOL,"Study Phase2",2067,,,1542,1579,,,,10,1
5d51d781dc299300183ce5e2,qwrqko1pna,Emily_Honors_Thesis_Part_2,1,249,2020-07-20T13:48:07-07:00,1.7805681228638,14,versionA_stim_BACKWARD.csv,BACKWARD_READ_JOLVersionB.csv,"BACKWARD READ VERSION B",NEW,FIX,HAND,ON,U,75,18,JOL,User,-,"How likely are you to correctly recall the second item in the pair?|Type your response on a scale from 0-100 and then press Enter.",Study/JOL,"Study Phase2",1285,,,1130,1130,,,,0,1
5d51d781dc299300183ce5e2,qwrqko1pna,Emily_Honors_Thesis_Part_2,1,250,2020-07-20T13:48:10-07:00,2.7204029560089,14,versionA_stim_BACKWARD.csv,BACKWARD_READ_JOLVersionB.csv,"BACKWARD READ VERSION B",NEW,MATH,DIVISION,ON,B,33,49,JOL,User,-,"How likely are you to correctly recall the second item in the pair?|Type your response on a scale from 0-100 and then press Enter.",Study/JOL,"Study Phase2",2034,,,1571,1691,,,,30,1
5d51d781dc299300183ce5e2,qwrqko1pna,Emily_Honors_Thesis_Part_2,1,251,2020-07-20T13:48:12-07:00,2.0385699272156,14,versionA_stim_BACKWARD.csv,BACKWARD_READ_JOLVersionB.csv,"BACKWARD READ VERSION B",NEW,SWAN,BIRD,ON,F,14,36,JOL,User,-,"How likely are you to correctly recall the second item in the pair?|Type your response on a scale from 0-100 and then press Enter.",Study/JOL,"Study Phase2",1558,,,1279,1340,,,,20,1
5d51d781dc299300183ce5e2,qwrqko1pna,Emily_Honors_Thesis_Part_2,1,252,2020-07-20T13:48:14-07:00,2.6217660903931,14,versionA_stim_BACKWARD.csv,BACKWARD_READ_JOLVersionB.csv,"BACKWARD READ VERSION B",NEW,HOT,CHILI,ON,B,37,66,JOL,User,-,"How likely are you to correctly recall the second item in the pair?|Type your response on a scale from 0-100 and then press Enter.",Study/JOL,"Study Phase2",1806,,,1229,1336,,,,80,1
5d51d781dc299300183ce5e2,qwrqko1pna,Emily_Honors_Thesis_Part_2,1,253,2020-07-20T13:48:19-07:00,4.648628950119,14,versionA_stim_BACKWARD.csv,BACKWARD_READ_JOLVersionB.csv,"BACKWARD READ VERSION B",NEW,TUNA,FISH,ON,F,25,82,JOL,User,-,"How likely are you to correctly recall the second item in the pair?|Type your response on a scale from 0-100 and then press Enter.",Study/JOL,"Study Phase2",3984,,,3737,3799,,,,70,0.5
5d51d781dc299300183ce5e2,qwrqko1pna,Emily_Honors_Thesis_Part_2,1,254,2020-07-20T13:48:21-07:00,1.833291053772,14,versionA_stim_BACKWARD.csv,BACKWARD_READ_JOLVersionB.csv,"BACKWARD READ VERSION B",NEW,DISCUSSION,TALK,ON,F,21,42,JOL,User,-,"How likely are you to correctly recall the second item in the pair?|Type your response on a scale from 0-100 and then press Enter.",Study/JOL,"Study Phase2",1337,,,1050,1145,,,,50,1
5d51d781dc299300183ce5e2,qwrqko1pna,Emily_Honors_Thesis_Part_2,1,255,2020-07-20T13:48:23-07:00,1.7402780056,14,versionA_stim_BACKWARD.csv,BACKWARD_READ_JOLVersionB.csv,"BACKWARD READ VERSION B",NEW,ROOT,PLANT,ON,F,13,86,JOL,User,-,"How likely are you to correctly recall the second item in the pair?|Type your response on a scale from 0-100 and then press Enter.",Study/JOL,"Study Phase2",1247,,,977,1053,,,,50,1
5d51d781dc299300183ce5e2,qwrqko1pna,Emily_Honors_Thesis_Part_2,1,256,2020-07-20T13:48:24-07:00,1.7924289703369,14,versionA_stim_BACKWARD.csv,BACKWARD_READ_JOLVersionB.csv,"BACKWARD READ VERSION B",NEW,LOCATION,SITE,ON,S,48,76,JOL,User,-,"How likely are you to correctly recall the second item in the pair?|Type your response on a scale from 0-100 and then press Enter.",Study/JOL,"Study Phase2",1318,,,1080,1166,,,,60,1
5d51d781dc299300183ce5e2,qwrqko1pna,Emily_Honors_Thesis_Part_2,1,257,2020-07-20T13:48:27-07:00,2.6707110404968,14,versionA_stim_BACKWARD.csv,BACKWARD_READ_JOLVersionB.csv,"BACKWARD READ VERSION B",NEW,KING,VASE,ON,U,85,25,JOL,User,-,"How likely are you to correctly recall the second item in the pair?|Type your response on a scale from 0-100 and then press Enter.",Study/JOL,"Study Phase2",1827,,,1565,1643,,,,40,1
5d51d781dc299300183ce5e2,qwrqko1pna,Emily_Honors_Thesis_Part_2,1,258,2020-07-20T13:48:29-07:00,2.0156388282776,14,versionA_stim_BACKWARD.csv,BACKWARD_READ_JOLVersionB.csv,"BACKWARD READ VERSION B",NEW,DIETARY,SACKING,ON,U,67,28,JOL,User,-,"How likely are you to correctly recall the second item in the pair?|Type your response on a scale from 0-100 and then press Enter.",Study/JOL,"Study Phase2",1519,,,1329,1329,,,,0,1
5d51d781dc299300183ce5e2,qwrqko1pna,Emily_Honors_Thesis_Part_2,1,259,2020-07-20T13:48:32-07:00,2.6967082023621,14,versionA_stim_BACKWARD.csv,BACKWARD_READ_JOLVersionB.csv,"BACKWARD READ VERSION B",NEW,BRIDGE,WATER,ON,F,18,58,JOL,User,-,"How likely are you to correctly recall the second item in the pair?|Type your response on a scale from 0-100 and then press Enter.",Study/JOL,"Study Phase2",2020,,,1634,1733,,,,80,1
5d51d781dc299300183ce5e2,qwrqko1pna,Emily_Honors_Thesis_Part_2,1,260,2020-07-20T13:48:33-07:00,1.7606089115143,14,versionA_stim_BACKWARD.csv,BACKWARD_READ_JOLVersionB.csv,"BACKWARD READ VERSION B",NEW,SENTENCE,WORD,ON,B,31,57,JOL,User,-,"How likely are you to correctly recall the second item in the pair?|Type your response on a scale from 0-100 and then press Enter.",Study/JOL,"Study Phase2",1289,,,987,1073,,,,10,1
