Username,ID,ExperimentName,Session,Trial,Date,TimeDif,"Condition Number","Stimuli File","Order File","Condition Description","Condition Notes",Stimuli*Cue,Stimuli*Answer,Stimuli*Shuffle,"Stimuli*Stimuli Notes",Stimuli*Value,Procedure*Item,"Procedure*Trial Type","Procedure*Max Time","Procedure*Min Time",Procedure*Text,"Procedure*Procedure Notes",Procedure*Shuffle,Response*RT,Response*Response,Response*Accuracy,Response*RTfirst,Response*RTlast,Response*strictAcc,Response*lenientAcc,Response*focus,Response*JOL,Response*Focus
5f02bbeb5ac5f8432d35fddd,yxwle2qyre,Emily_Honors_Thesis_Part_2,1,1,2020-07-17T14:04:07-07:00,49.835515975952,4,versionC_stim.csv,READ_JOLVersionD.csv,"READ Version D",OLD,,,,,,0,Instruct,-,10,"In this section, you will be presented with a series of word pairs. As you study, you will be asked to rate your ability to remember the second item in the pair if you were only shown the first at test. You will make these ratings using a 0 to 100 Scale.",,Instruct13,49290,,,-1,-1,,,,,0.877
5f02bbeb5ac5f8432d35fddd,yxwle2qyre,Emily_Honors_Thesis_Part_2,1,2,2020-07-17T14:04:40-07:00,33.316994905472,4,versionC_stim.csv,READ_JOLVersionD.csv,"READ Version D",OLD,,,,,,0,Instruct,-,10,"For example, if you are given the pair CAT - DOG, a rating of 0 indicates that you would not remember DOG at test, while a rating of 100 indicates full certainty that you would remember the word DOG at test.",,Instruct14,32663,,,-1,-1,,,,,1
5f02bbeb5ac5f8432d35fddd,yxwle2qyre,Emily_Honors_Thesis_Part_2,1,3,2020-07-17T14:05:00-07:00,19.894035100937,4,versionC_stim.csv,READ_JOLVersionD.csv,"READ Version D",OLD,,,,,,0,Instruct,-,10,"When making your ratings, it is criticial that you use the full range of the scale. You will be disqualified for only giving ratings of 0 or 100! After making your rating, press Enter to advance to the next pair.",,Instruct15,19259,,,-1,-1,,,,,1
5f02bbeb5ac5f8432d35fddd,yxwle2qyre,Emily_Honors_Thesis_Part_2,1,4,2020-07-17T14:05:08-07:00,8.0415580272675,4,versionC_stim.csv,READ_JOLVersionD.csv,"READ Version D",OLD,,,,,,0,Instruct,-,5,"You will now complete a practice session. Please study the following items and rate your ability to remember them.",,Instruct17,7425,,,-1,-1,,,,,1
5f02bbeb5ac5f8432d35fddd,yxwle2qyre,Emily_Honors_Thesis_Part_2,1,5,2020-07-17T14:05:44-07:00,35.58951997757,4,versionC_stim.csv,READ_JOLVersionD.csv,"READ Version D",OLD,FASHION,MODEL,PRACTICE,PRACTICE,190,188,JOL,User,-,"How likely are you to correctly recall the second item in the pair?|Type your response on a scale from 0-100 and then press Enter.",Study/JOL,PRACTICE,35014,,,34032,34310,,,,60,1
5f02bbeb5ac5f8432d35fddd,yxwle2qyre,Emily_Honors_Thesis_Part_2,1,6,2020-07-17T14:05:59-07:00,14.706441879272,4,versionC_stim.csv,READ_JOLVersionD.csv,"READ Version D",OLD,CHIME,MUSIC,PRACTICE,PRACTICE,188,191,JOL,User,-,"How likely are you to correctly recall the second item in the pair?|Type your response on a scale from 0-100 and then press Enter.",Study/JOL,PRACTICE,14102,,,10575,13485,,,,90,1
5f02bbeb5ac5f8432d35fddd,yxwle2qyre,Emily_Honors_Thesis_Part_2,1,7,2020-07-17T14:06:08-07:00,9.5663859844208,4,versionC_stim.csv,READ_JOLVersionD.csv,"READ Version D",OLD,AARDVARK,ZOO,PRACTICE,PRACTICE,181,184,JOL,User,-,"How likely are you to correctly recall the second item in the pair?|Type your response on a scale from 0-100 and then press Enter.",Study/JOL,PRACTICE,8940,,,8041,8407,,,,85,1
5f02bbeb5ac5f8432d35fddd,yxwle2qyre,Emily_Honors_Thesis_Part_2,1,8,2020-07-17T14:06:23-07:00,15.077375173569,4,versionC_stim.csv,READ_JOLVersionD.csv,"READ Version D",OLD,PADDLE,ROW,PRACTICE,PRACTICE,184,187,JOL,User,-,"How likely are you to correctly recall the second item in the pair?|Type your response on a scale from 0-100 and then press Enter.",Study/JOL,PRACTICE,14475,,,13479,13901,,,,10,1
5f02bbeb5ac5f8432d35fddd,yxwle2qyre,Emily_Honors_Thesis_Part_2,1,9,2020-07-17T14:06:30-07:00,7.1702690124512,4,versionC_stim.csv,READ_JOLVersionD.csv,"READ Version D",OLD,HINGE,SWING,PRACTICE,PRACTICE,185,182,JOL,User,-,"How likely are you to correctly recall the second item in the pair?|Type your response on a scale from 0-100 and then press Enter.",Study/JOL,PRACTICE,6564,,,6006,6147,,,,70,1
5f02bbeb5ac5f8432d35fddd,yxwle2qyre,Emily_Honors_Thesis_Part_2,1,10,2020-07-17T14:06:44-07:00,13.662439823151,4,versionC_stim.csv,READ_JOLVersionD.csv,"READ Version D",OLD,CHOCOLATE,BAR,PRACTICE,PRACTICE,187,190,JOL,User,-,"How likely are you to correctly recall the second item in the pair?|Type your response on a scale from 0-100 and then press Enter.",Study/JOL,PRACTICE,13138,,,5094,12670,,,,86,1
5f02bbeb5ac5f8432d35fddd,yxwle2qyre,Emily_Honors_Thesis_Part_2,1,11,2020-07-17T14:06:52-07:00,7.7737331390381,4,versionC_stim.csv,READ_JOLVersionD.csv,"READ Version D",OLD,BEHAVIOR,SOCIAL,PRACTICE,PRACTICE,189,185,JOL,User,-,"How likely are you to correctly recall the second item in the pair?|Type your response on a scale from 0-100 and then press Enter.",Study/JOL,PRACTICE,7156,,,5729,6768,,,,91,1
5f02bbeb5ac5f8432d35fddd,yxwle2qyre,Emily_Honors_Thesis_Part_2,1,12,2020-07-17T14:07:00-07:00,7.8345749378204,4,versionC_stim.csv,READ_JOLVersionD.csv,"READ Version D",OLD,DISBELIEVE,SKEPTIC,PRACTICE,PRACTICE,186,189,JOL,User,-,"How likely are you to correctly recall the second item in the pair?|Type your response on a scale from 0-100 and then press Enter.",Study/JOL,PRACTICE,7315,,,4762,6841,,,,75,1
5f02bbeb5ac5f8432d35fddd,yxwle2qyre,Emily_Honors_Thesis_Part_2,1,13,2020-07-17T14:07:05-07:00,5.7877550125122,4,versionC_stim.csv,READ_JOLVersionD.csv,"READ Version D",OLD,HAM,BONE,PRACTICE,PRACTICE,183,186,JOL,User,-,"How likely are you to correctly recall the second item in the pair?|Type your response on a scale from 0-100 and then press Enter.",Study/JOL,PRACTICE,5219,,,3151,4870,,,,82,1
5f02bbeb5ac5f8432d35fddd,yxwle2qyre,Emily_Honors_Thesis_Part_2,1,14,2020-07-17T14:07:13-07:00,7.7865080833435,4,versionC_stim.csv,READ_JOLVersionD.csv,"READ Version D",OLD,DEAF,MUTE,PRACTICE,PRACTICE,182,183,JOL,User,-,"How likely are you to correctly recall the second item in the pair?|Type your response on a scale from 0-100 and then press Enter.",Study/JOL,PRACTICE,7268,,,4876,6923,,,,99,1
5f02bbeb5ac5f8432d35fddd,yxwle2qyre,Emily_Honors_Thesis_Part_2,1,15,2020-07-17T14:07:17-07:00,3.3696849346161,4,versionC_stim.csv,READ_JOLVersionD.csv,"READ Version D",OLD,,,,,,0,Instruct,User,-,"You have completed this section. Please press Enter to continue.",,Instruct18,2842,,,-1,-1,,,,,1
5f02bbeb5ac5f8432d35fddd,yxwle2qyre,Emily_Honors_Thesis_Part_2,1,16,2020-07-17T14:07:23-07:00,6.1991839408875,4,versionC_stim.csv,READ_JOLVersionD.csv,"READ Version D",OLD,,,,,,0,Instruct,User,-,"You will now begin the study. Press Enter when you are ready to begin.",,Instruct16,5655,,,-1,-1,,,,,1
5f02bbeb5ac5f8432d35fddd,yxwle2qyre,Emily_Honors_Thesis_Part_2,1,17,2020-07-17T14:07:37-07:00,13.693660020828,4,versionC_stim.csv,READ_JOLVersionD.csv,"READ Version D",OLD,YEAR,MONTH,Buffer3,Buffer,177,93,JOL,User,-,"How likely are you to correctly recall the second item in the pair?|Type your response on a scale from 0-100 and then press Enter.",Study/JOL,BUFFER,12146,,,11462,11661,,,,90,1
5f02bbeb5ac5f8432d35fddd,yxwle2qyre,Emily_Honors_Thesis_Part_2,1,18,2020-07-17T14:08:02-07:00,25.3781208992,4,versionC_stim.csv,READ_JOLVersionD.csv,"READ Version D",OLD,FROZEN,ICE,Buffer3,Buffer,94,96,JOL,User,-,"How likely are you to correctly recall the second item in the pair?|Type your response on a scale from 0-100 and then press Enter.",Study/JOL,BUFFER,24771,,,24103,24295,,,,80,0.508
5f02bbeb5ac5f8432d35fddd,yxwle2qyre,Emily_Honors_Thesis_Part_2,1,19,2020-07-17T14:08:10-07:00,8.2664060592651,4,versionC_stim.csv,READ_JOLVersionD.csv,"READ Version D",OLD,SHED,TOOL,Buffer3,Buffer,178,95,JOL,User,-,"How likely are you to correctly recall the second item in the pair?|Type your response on a scale from 0-100 and then press Enter.",Study/JOL,BUFFER,7601,,,7003,7184,,,,10,1
5f02bbeb5ac5f8432d35fddd,yxwle2qyre,Emily_Honors_Thesis_Part_2,1,20,2020-07-17T14:08:19-07:00,8.761440038681,4,versionC_stim.csv,READ_JOLVersionD.csv,"READ Version D",OLD,POTATO,CARROT,Buffer3,Buffer,91,92,JOL,User,-,"How likely are you to correctly recall the second item in the pair?|Type your response on a scale from 0-100 and then press Enter.",Study/JOL,BUFFER,8227,,,6816,6818,,,,96,1
5f02bbeb5ac5f8432d35fddd,yxwle2qyre,Emily_Honors_Thesis_Part_2,1,21,2020-07-17T14:08:27-07:00,7.8003931045532,4,versionC_stim.csv,READ_JOLVersionD.csv,"READ Version D",OLD,MARCH,SPRING,Buffer3,Buffer,179,94,JOL,User,-,"How likely are you to correctly recall the second item in the pair?|Type your response on a scale from 0-100 and then press Enter.",Study/JOL,BUFFER,7236,,,3110,6509,,,,79,1
5f02bbeb5ac5f8432d35fddd,yxwle2qyre,Emily_Honors_Thesis_Part_2,1,22,2020-07-17T14:08:33-07:00,6.2580659389496,4,versionC_stim.csv,READ_JOLVersionD.csv,"READ Version D",OLD,MORNING,TEMPERATURE,ON2,U,173,135,JOL,User,-,"How likely are you to correctly recall the second item in the pair?|Type your response on a scale from 0-100 and then press Enter.",Study/JOL,"Study Phase",5723,,,5161,5369,,,,20,1
5f02bbeb5ac5f8432d35fddd,yxwle2qyre,Emily_Honors_Thesis_Part_2,1,23,2020-07-17T14:08:40-07:00,6.58061003685,4,versionC_stim.csv,READ_JOLVersionD.csv,"READ Version D",OLD,TICK,FLEA,ON2,S,151,123,JOL,User,-,"How likely are you to correctly recall the second item in the pair?|Type your response on a scale from 0-100 and then press Enter.",Study/JOL,"Study Phase",5032,,,4490,4729,,,,90,1
5f02bbeb5ac5f8432d35fddd,yxwle2qyre,Emily_Honors_Thesis_Part_2,1,24,2020-07-17T14:08:47-07:00,7.8707749843597,4,versionC_stim.csv,READ_JOLVersionD.csv,"READ Version D",OLD,HATE,NAME,ON2,U,167,117,JOL,User,-,"How likely are you to correctly recall the second item in the pair?|Type your response on a scale from 0-100 and then press Enter.",Study/JOL,"Study Phase",7316,,,5633,6913,,,,5,1
5f02bbeb5ac5f8432d35fddd,yxwle2qyre,Emily_Honors_Thesis_Part_2,1,25,2020-07-17T14:08:58-07:00,10.179883003235,4,versionC_stim.csv,READ_JOLVersionD.csv,"READ Version D",OLD,SHAVE,RAZOR,ON2,S,136,114,JOL,User,-,"How likely are you to correctly recall the second item in the pair?|Type your response on a scale from 0-100 and then press Enter.",Study/JOL,"Study Phase",9632,,,8169,9361,,,,80,1
5f02bbeb5ac5f8432d35fddd,yxwle2qyre,Emily_Honors_Thesis_Part_2,1,26,2020-07-17T14:09:05-07:00,7.4292149543762,4,versionC_stim.csv,READ_JOLVersionD.csv,"READ Version D",OLD,LONG,EXTENSION,ON2,B,96,115,JOL,User,-,"How likely are you to correctly recall the second item in the pair?|Type your response on a scale from 0-100 and then press Enter.",Study/JOL,"Study Phase",6852,,,6258,6552,,,,20,1
5f02bbeb5ac5f8432d35fddd,yxwle2qyre,Emily_Honors_Thesis_Part_2,1,27,2020-07-17T14:09:12-07:00,7.2988300323486,4,versionC_stim.csv,READ_JOLVersionD.csv,"READ Version D",OLD,DONKEY,MULE,ON2,B,108,146,JOL,User,-,"How likely are you to correctly recall the second item in the pair?|Type your response on a scale from 0-100 and then press Enter.",Study/JOL,"Study Phase",6745,,,5212,6292,,,,76,1
5f02bbeb5ac5f8432d35fddd,yxwle2qyre,Emily_Honors_Thesis_Part_2,1,28,2020-07-17T14:09:16-07:00,3.7497370243073,4,versionC_stim.csv,READ_JOLVersionD.csv,"READ Version D",OLD,REEL,ROD,ON2,S,150,133,JOL,User,-,"How likely are you to correctly recall the second item in the pair?|Type your response on a scale from 0-100 and then press Enter.",Study/JOL,"Study Phase",3213,,,2766,2766,,,,1,1
5f02bbeb5ac5f8432d35fddd,yxwle2qyre,Emily_Honors_Thesis_Part_2,1,29,2020-07-17T14:09:25-07:00,8.7506258487701,4,versionC_stim.csv,READ_JOLVersionD.csv,"READ Version D",OLD,SMELL,INCENSE,ON2,B,110,141,JOL,User,-,"How likely are you to correctly recall the second item in the pair?|Type your response on a scale from 0-100 and then press Enter.",Study/JOL,"Study Phase",8244,,,7766,7958,,,,20,1
5f02bbeb5ac5f8432d35fddd,yxwle2qyre,Emily_Honors_Thesis_Part_2,1,30,2020-07-17T14:09:31-07:00,5.6864190101624,4,versionC_stim.csv,READ_JOLVersionD.csv,"READ Version D",OLD,CLEAR,MOAT,ON2,U,169,97,JOL,User,-,"How likely are you to correctly recall the second item in the pair?|Type your response on a scale from 0-100 and then press Enter.",Study/JOL,"Study Phase",5126,,,3640,4760,,,,5,1
5f02bbeb5ac5f8432d35fddd,yxwle2qyre,Emily_Honors_Thesis_Part_2,1,31,2020-07-17T14:09:35-07:00,4.1040802001953,4,versionC_stim.csv,READ_JOLVersionD.csv,"READ Version D",OLD,SEATBELT,SAFETY,ON2,S,147,131,JOL,User,-,"How likely are you to correctly recall the second item in the pair?|Type your response on a scale from 0-100 and then press Enter.",Study/JOL,"Study Phase",3541,,,2925,3116,,,,90,1
5f02bbeb5ac5f8432d35fddd,yxwle2qyre,Emily_Honors_Thesis_Part_2,1,32,2020-07-17T14:09:39-07:00,4.5449798107147,4,versionC_stim.csv,READ_JOLVersionD.csv,"READ Version D",OLD,JAR,MASON,ON2,S,138,128,JOL,User,-,"How likely are you to correctly recall the second item in the pair?|Type your response on a scale from 0-100 and then press Enter.",Study/JOL,"Study Phase",4004,,,3678,3679,,,,1,1
5f02bbeb5ac5f8432d35fddd,yxwle2qyre,Emily_Honors_Thesis_Part_2,1,33,2020-07-17T14:09:43-07:00,4.0493490695953,4,versionC_stim.csv,READ_JOLVersionD.csv,"READ Version D",OLD,OBTAIN,MEAT,ON2,U,161,166,JOL,User,-,"How likely are you to correctly recall the second item in the pair?|Type your response on a scale from 0-100 and then press Enter.",Study/JOL,"Study Phase",3521,,,3054,3054,,,,1,1
5f02bbeb5ac5f8432d35fddd,yxwle2qyre,Emily_Honors_Thesis_Part_2,1,34,2020-07-17T14:09:47-07:00,4.2708299160004,4,versionC_stim.csv,READ_JOLVersionD.csv,"READ Version D",OLD,BANG,FUZZY,ON2,U,168,168,JOL,User,-,"How likely are you to correctly recall the second item in the pair?|Type your response on a scale from 0-100 and then press Enter.",Study/JOL,"Study Phase",3704,,,3367,3367,,,,5,1
5f02bbeb5ac5f8432d35fddd,yxwle2qyre,Emily_Honors_Thesis_Part_2,1,35,2020-07-17T14:09:53-07:00,5.135222196579,4,versionC_stim.csv,READ_JOLVersionD.csv,"READ Version D",OLD,DOG,FURRY,ON2,B,102,143,JOL,User,-,"How likely are you to correctly recall the second item in the pair?|Type your response on a scale from 0-100 and then press Enter.",Study/JOL,"Study Phase",4610,,,2770,4138,,,,95,1
5f02bbeb5ac5f8432d35fddd,yxwle2qyre,Emily_Honors_Thesis_Part_2,1,36,2020-07-17T14:09:59-07:00,6.4458429813385,4,versionC_stim.csv,READ_JOLVersionD.csv,"READ Version D",OLD,CHARM,VEHICLE,ON2,U,160,174,JOL,User,-,"How likely are you to correctly recall the second item in the pair?|Type your response on a scale from 0-100 and then press Enter.",Study/JOL,"Study Phase",5921,,,5619,5619,,,,2,1
5f02bbeb5ac5f8432d35fddd,yxwle2qyre,Emily_Honors_Thesis_Part_2,1,37,2020-07-17T14:10:02-07:00,3.2523047924042,4,versionC_stim.csv,READ_JOLVersionD.csv,"READ Version D",OLD,TAN,SUN,ON2,S,155,132,JOL,User,-,"How likely are you to correctly recall the second item in the pair?|Type your response on a scale from 0-100 and then press Enter.",Study/JOL,"Study Phase",2721,,,2209,2385,,,,80,1
5f02bbeb5ac5f8432d35fddd,yxwle2qyre,Emily_Honors_Thesis_Part_2,1,38,2020-07-17T14:10:08-07:00,5.2627911567688,4,versionC_stim.csv,READ_JOLVersionD.csv,"READ Version D",OLD,CARBON,ELEMENT,ON2,S,141,145,JOL,User,-,"How likely are you to correctly recall the second item in the pair?|Type your response on a scale from 0-100 and then press Enter.",Study/JOL,"Study Phase",4710,,,3988,4404,,,,55,1
5f02bbeb5ac5f8432d35fddd,yxwle2qyre,Emily_Honors_Thesis_Part_2,1,39,2020-07-17T14:10:19-07:00,11.676066875458,4,versionC_stim.csv,READ_JOLVersionD.csv,"READ Version D",OLD,COMMUNICATION,PHONE,ON2,S,149,156,JOL,User,-,"How likely are you to correctly recall the second item in the pair?|Type your response on a scale from 0-100 and then press Enter.",Study/JOL,"Study Phase",11116,,,9915,10747,,,,85,1
5f02bbeb5ac5f8432d35fddd,yxwle2qyre,Emily_Honors_Thesis_Part_2,1,40,2020-07-17T14:10:25-07:00,5.7775211334229,4,versionC_stim.csv,READ_JOLVersionD.csv,"READ Version D",OLD,TIE,SHOELACE,ON2,B,99,127,JOL,User,-,"How likely are you to correctly recall the second item in the pair?|Type your response on a scale from 0-100 and then press Enter.",Study/JOL,"Study Phase",5173,,,4634,4905,,,,50,1
5f02bbeb5ac5f8432d35fddd,yxwle2qyre,Emily_Honors_Thesis_Part_2,1,41,2020-07-17T14:10:31-07:00,6.1627669334412,4,versionC_stim.csv,READ_JOLVersionD.csv,"READ Version D",OLD,COFFIN,DEAD,ON2,F,128,142,JOL,User,-,"How likely are you to correctly recall the second item in the pair?|Type your response on a scale from 0-100 and then press Enter.",Study/JOL,"Study Phase",5632,,,2998,5278,,,,90,1
5f02bbeb5ac5f8432d35fddd,yxwle2qyre,Emily_Honors_Thesis_Part_2,1,42,2020-07-17T14:10:34-07:00,3.1039960384369,4,versionC_stim.csv,READ_JOLVersionD.csv,"READ Version D",OLD,BANKER,MONEY,ON2,F,132,126,JOL,User,-,"How likely are you to correctly recall the second item in the pair?|Type your response on a scale from 0-100 and then press Enter.",Study/JOL,"Study Phase",2559,,,2249,2249,,,,1,1
5f02bbeb5ac5f8432d35fddd,yxwle2qyre,Emily_Honors_Thesis_Part_2,1,43,2020-07-17T14:10:40-07:00,5.7449350357056,4,versionC_stim.csv,READ_JOLVersionD.csv,"READ Version D",OLD,NOISE,LOUD,ON2,S,152,167,JOL,User,-,"How likely are you to correctly recall the second item in the pair?|Type your response on a scale from 0-100 and then press Enter.",Study/JOL,"Study Phase",5163,,,4729,4881,,,,79,1
5f02bbeb5ac5f8432d35fddd,yxwle2qyre,Emily_Honors_Thesis_Part_2,1,44,2020-07-17T14:10:45-07:00,4.5026009082794,4,versionC_stim.csv,READ_JOLVersionD.csv,"READ Version D",OLD,GAME,CLUE,ON2,B,97,104,JOL,User,-,"How likely are you to correctly recall the second item in the pair?|Type your response on a scale from 0-100 and then press Enter.",Study/JOL,"Study Phase",3966,,,3744,3744,,,,1,1
5f02bbeb5ac5f8432d35fddd,yxwle2qyre,Emily_Honors_Thesis_Part_2,1,45,2020-07-17T14:10:50-07:00,5.3394300937653,4,versionC_stim.csv,READ_JOLVersionD.csv,"READ Version D",OLD,CLOTHES,CAKE,ON2,U,166,163,JOL,User,-,"How likely are you to correctly recall the second item in the pair?|Type your response on a scale from 0-100 and then press Enter.",Study/JOL,"Study Phase",4805,,,4515,4515,,,,1,1
5f02bbeb5ac5f8432d35fddd,yxwle2qyre,Emily_Honors_Thesis_Part_2,1,46,2020-07-17T14:10:57-07:00,7.5599780082703,4,versionC_stim.csv,READ_JOLVersionD.csv,"READ Version D",OLD,RED,CHERRY,ON2,B,104,144,JOL,User,-,"How likely are you to correctly recall the second item in the pair?|Type your response on a scale from 0-100 and then press Enter.",Study/JOL,"Study Phase",7012,,,6525,6733,,,,65,1
5f02bbeb5ac5f8432d35fddd,yxwle2qyre,Emily_Honors_Thesis_Part_2,1,47,2020-07-17T14:11:03-07:00,5.1002609729767,4,versionC_stim.csv,READ_JOLVersionD.csv,"READ Version D",OLD,MYSTERY,DETECTIVE,ON2,B,100,160,JOL,User,-,"How likely are you to correctly recall the second item in the pair?|Type your response on a scale from 0-100 and then press Enter.",Study/JOL,"Study Phase",4555,,,4065,4233,,,,90,1
5f02bbeb5ac5f8432d35fddd,yxwle2qyre,Emily_Honors_Thesis_Part_2,1,48,2020-07-17T14:11:09-07:00,6.223424911499,4,versionC_stim.csv,READ_JOLVersionD.csv,"READ Version D",OLD,SIGN,LOAN,ON2,U,171,130,JOL,User,-,"How likely are you to correctly recall the second item in the pair?|Type your response on a scale from 0-100 and then press Enter.",Study/JOL,"Study Phase",5458,,,5170,5170,,,,0,1
5f02bbeb5ac5f8432d35fddd,yxwle2qyre,Emily_Honors_Thesis_Part_2,1,49,2020-07-17T14:11:16-07:00,7.5797729492188,4,versionC_stim.csv,READ_JOLVersionD.csv,"READ Version D",OLD,PENGUIN,BIRD,ON2,F,119,107,JOL,User,-,"How likely are you to correctly recall the second item in the pair?|Type your response on a scale from 0-100 and then press Enter.",Study/JOL,"Study Phase",6988,,,5398,6646,,,,35,1
5f02bbeb5ac5f8432d35fddd,yxwle2qyre,Emily_Honors_Thesis_Part_2,1,50,2020-07-17T14:11:21-07:00,5.0589981079102,4,versionC_stim.csv,READ_JOLVersionD.csv,"READ Version D",OLD,HEAD,SCALP,ON2,B,105,172,JOL,User,-,"How likely are you to correctly recall the second item in the pair?|Type your response on a scale from 0-100 and then press Enter.",Study/JOL,"Study Phase",4495,,,3164,4276,,,,100,1
5f02bbeb5ac5f8432d35fddd,yxwle2qyre,Emily_Honors_Thesis_Part_2,1,51,2020-07-17T14:11:25-07:00,3.8209850788116,4,versionC_stim.csv,READ_JOLVersionD.csv,"READ Version D",OLD,DRINK,WATER,ON2,S,143,106,JOL,User,-,"How likely are you to correctly recall the second item in the pair?|Type your response on a scale from 0-100 and then press Enter.",Study/JOL,"Study Phase",3296,,,2687,3007,,,,95,1
5f02bbeb5ac5f8432d35fddd,yxwle2qyre,Emily_Honors_Thesis_Part_2,1,52,2020-07-17T14:11:32-07:00,6.3893868923187,4,versionC_stim.csv,READ_JOLVersionD.csv,"READ Version D",OLD,TOIL,LEASE,ON2,U,170,173,JOL,User,-,"How likely are you to correctly recall the second item in the pair?|Type your response on a scale from 0-100 and then press Enter.",Study/JOL,"Study Phase",5862,,,5591,5591,,,,0,1
5f02bbeb5ac5f8432d35fddd,yxwle2qyre,Emily_Honors_Thesis_Part_2,1,53,2020-07-17T14:11:39-07:00,7.2699229717255,4,versionC_stim.csv,READ_JOLVersionD.csv,"READ Version D",OLD,ACTRESS,STAR,ON2,F,120,105,JOL,User,-,"How likely are you to correctly recall the second item in the pair?|Type your response on a scale from 0-100 and then press Enter.",Study/JOL,"Study Phase",6743,,,4990,6469,,,,89,1
5f02bbeb5ac5f8432d35fddd,yxwle2qyre,Emily_Honors_Thesis_Part_2,1,54,2020-07-17T14:11:42-07:00,3.2474620342255,4,versionC_stim.csv,READ_JOLVersionD.csv,"READ Version D",OLD,SCISSORS,SHEARS,ON2,B,112,138,JOL,User,-,"How likely are you to correctly recall the second item in the pair?|Type your response on a scale from 0-100 and then press Enter.",Study/JOL,"Study Phase",2710,,,2458,2458,,,,5,1
5f02bbeb5ac5f8432d35fddd,yxwle2qyre,Emily_Honors_Thesis_Part_2,1,55,2020-07-17T14:11:46-07:00,3.8888940811157,4,versionC_stim.csv,READ_JOLVersionD.csv,"READ Version D",OLD,COLD,CHILL,ON2,B,114,171,JOL,User,-,"How likely are you to correctly recall the second item in the pair?|Type your response on a scale from 0-100 and then press Enter.",Study/JOL,"Study Phase",3356,,,2992,3031,,,,80,1
5f02bbeb5ac5f8432d35fddd,yxwle2qyre,Emily_Honors_Thesis_Part_2,1,56,2020-07-17T14:11:49-07:00,3.2016859054565,4,versionC_stim.csv,READ_JOLVersionD.csv,"READ Version D",OLD,AWAY,GONE,ON2,S,142,151,JOL,User,-,"How likely are you to correctly recall the second item in the pair?|Type your response on a scale from 0-100 and then press Enter.",Study/JOL,"Study Phase",2665,,,2274,2410,,,,75,1
5f02bbeb5ac5f8432d35fddd,yxwle2qyre,Emily_Honors_Thesis_Part_2,1,57,2020-07-17T14:11:55-07:00,6.2424719333649,4,versionC_stim.csv,READ_JOLVersionD.csv,"READ Version D",OLD,BRACELET,WRIST,ON2,S,140,101,JOL,User,-,"How likely are you to correctly recall the second item in the pair?|Type your response on a scale from 0-100 and then press Enter.",Study/JOL,"Study Phase",5727,,,3793,5489,,,,90,1
5f02bbeb5ac5f8432d35fddd,yxwle2qyre,Emily_Honors_Thesis_Part_2,1,58,2020-07-17T14:11:59-07:00,3.9344069957733,4,versionC_stim.csv,READ_JOLVersionD.csv,"READ Version D",OLD,LIE,TRUTH,ON2,S,148,120,JOL,User,-,"How likely are you to correctly recall the second item in the pair?|Type your response on a scale from 0-100 and then press Enter.",Study/JOL,"Study Phase",3392,,,2752,3112,,,,95,1
5f02bbeb5ac5f8432d35fddd,yxwle2qyre,Emily_Honors_Thesis_Part_2,1,59,2020-07-17T14:12:05-07:00,5.9296541213989,4,versionC_stim.csv,READ_JOLVersionD.csv,"READ Version D",OLD,REVENGE,EVEN,ON2,F,122,134,JOL,User,-,"How likely are you to correctly recall the second item in the pair?|Type your response on a scale from 0-100 and then press Enter.",Study/JOL,"Study Phase",5364,,,3798,5078,,,,5,1
5f02bbeb5ac5f8432d35fddd,yxwle2qyre,Emily_Honors_Thesis_Part_2,1,60,2020-07-17T14:12:13-07:00,7.6420879364014,4,versionC_stim.csv,READ_JOLVersionD.csv,"READ Version D",OLD,EAT,DINE,ON2,B,111,103,JOL,User,-,"How likely are you to correctly recall the second item in the pair?|Type your response on a scale from 0-100 and then press Enter.",Study/JOL,"Study Phase",7114,,,6402,6897,,,,60,1
5f02bbeb5ac5f8432d35fddd,yxwle2qyre,Emily_Honors_Thesis_Part_2,1,61,2020-07-17T14:12:16-07:00,3.384546995163,4,versionC_stim.csv,READ_JOLVersionD.csv,"READ Version D",OLD,SARDINE,FISH,ON2,F,130,136,JOL,User,-,"How likely are you to correctly recall the second item in the pair?|Type your response on a scale from 0-100 and then press Enter.",Study/JOL,"Study Phase",2810,,,2115,2532,,,,85,1
5f02bbeb5ac5f8432d35fddd,yxwle2qyre,Emily_Honors_Thesis_Part_2,1,62,2020-07-17T14:12:23-07:00,6.6747350692749,4,versionC_stim.csv,READ_JOLVersionD.csv,"READ Version D",OLD,WINDSHIELD,CAR,ON2,F,117,116,JOL,User,-,"How likely are you to correctly recall the second item in the pair?|Type your response on a scale from 0-100 and then press Enter.",Study/JOL,"Study Phase",6139,,,5686,5877,,,,55,1
5f02bbeb5ac5f8432d35fddd,yxwle2qyre,Emily_Honors_Thesis_Part_2,1,63,2020-07-17T14:12:28-07:00,4.9805080890656,4,versionC_stim.csv,READ_JOLVersionD.csv,"READ Version D",OLD,STRAWBERRY,FRUIT,ON2,F,124,155,JOL,User,-,"How likely are you to correctly recall the second item in the pair?|Type your response on a scale from 0-100 and then press Enter.",Study/JOL,"Study Phase",4430,,,3878,4197,,,,79,1
5f02bbeb5ac5f8432d35fddd,yxwle2qyre,Emily_Honors_Thesis_Part_2,1,64,2020-07-17T14:12:33-07:00,5.1367897987366,4,versionC_stim.csv,READ_JOLVersionD.csv,"READ Version D",OLD,TRASH,LITTER,ON2,B,103,149,JOL,User,-,"How likely are you to correctly recall the second item in the pair?|Type your response on a scale from 0-100 and then press Enter.",Study/JOL,"Study Phase",4603,,,2609,4106,,,,88,1
5f02bbeb5ac5f8432d35fddd,yxwle2qyre,Emily_Honors_Thesis_Part_2,1,65,2020-07-17T14:12:37-07:00,3.8035950660706,4,versionC_stim.csv,READ_JOLVersionD.csv,"READ Version D",OLD,THIMBLE,THREAD,ON2,F,121,112,JOL,User,-,"How likely are you to correctly recall the second item in the pair?|Type your response on a scale from 0-100 and then press Enter.",Study/JOL,"Study Phase",3274,,,2985,2986,,,,5,1
5f02bbeb5ac5f8432d35fddd,yxwle2qyre,Emily_Honors_Thesis_Part_2,1,66,2020-07-17T14:12:40-07:00,2.8557949066162,4,versionC_stim.csv,READ_JOLVersionD.csv,"READ Version D",OLD,LOVE,AFFECTION,ON2,B,115,111,JOL,User,-,"How likely are you to correctly recall the second item in the pair?|Type your response on a scale from 0-100 and then press Enter.",Study/JOL,"Study Phase",2333,,,1855,2062,,,,80,1
5f02bbeb5ac5f8432d35fddd,yxwle2qyre,Emily_Honors_Thesis_Part_2,1,67,2020-07-17T14:12:44-07:00,4.1208491325378,4,versionC_stim.csv,READ_JOLVersionD.csv,"READ Version D",OLD,HAVE,OWN,ON2,S,153,162,JOL,User,-,"How likely are you to correctly recall the second item in the pair?|Type your response on a scale from 0-100 and then press Enter.",Study/JOL,"Study Phase",3583,,,3064,3239,,,,75,1
5f02bbeb5ac5f8432d35fddd,yxwle2qyre,Emily_Honors_Thesis_Part_2,1,68,2020-07-17T14:12:49-07:00,5.0109250545502,4,versionC_stim.csv,READ_JOLVersionD.csv,"READ Version D",OLD,EQUAL,RIGHTS,ON2,S,137,153,JOL,User,-,"How likely are you to correctly recall the second item in the pair?|Type your response on a scale from 0-100 and then press Enter.",Study/JOL,"Study Phase",4499,,,4087,4262,,,,55,1
5f02bbeb5ac5f8432d35fddd,yxwle2qyre,Emily_Honors_Thesis_Part_2,1,69,2020-07-17T14:12:56-07:00,6.7205319404602,4,versionC_stim.csv,READ_JOLVersionD.csv,"READ Version D",OLD,FIGHT,FEUD,ON2,B,113,109,JOL,User,-,"How likely are you to correctly recall the second item in the pair?|Type your response on a scale from 0-100 and then press Enter.",Study/JOL,"Study Phase",6183,,,5724,5940,,,,60,1
5f02bbeb5ac5f8432d35fddd,yxwle2qyre,Emily_Honors_Thesis_Part_2,1,70,2020-07-17T14:13:02-07:00,6.3575029373169,4,versionC_stim.csv,READ_JOLVersionD.csv,"READ Version D",OLD,NAP,SLEEP,ON2,F,134,152,JOL,User,-,"How likely are you to correctly recall the second item in the pair?|Type your response on a scale from 0-100 and then press Enter.",Study/JOL,"Study Phase",5825,,,5262,5485,,,,70,1
5f02bbeb5ac5f8432d35fddd,yxwle2qyre,Emily_Honors_Thesis_Part_2,1,71,2020-07-17T14:13:11-07:00,8.9568860530853,4,versionC_stim.csv,READ_JOLVersionD.csv,"READ Version D",OLD,BALLOON,POP,ON2,F,123,148,JOL,User,-,"How likely are you to correctly recall the second item in the pair?|Type your response on a scale from 0-100 and then press Enter.",Study/JOL,"Study Phase",8401,,,4529,7928,,,,34,1
5f02bbeb5ac5f8432d35fddd,yxwle2qyre,Emily_Honors_Thesis_Part_2,1,72,2020-07-17T14:13:14-07:00,3.2032630443573,4,versionC_stim.csv,READ_JOLVersionD.csv,"READ Version D",OLD,JOKE,KEYS,ON2,U,165,121,JOL,User,-,"How likely are you to correctly recall the second item in the pair?|Type your response on a scale from 0-100 and then press Enter.",Study/JOL,"Study Phase",2683,,,2347,2347,,,,0,1
5f02bbeb5ac5f8432d35fddd,yxwle2qyre,Emily_Honors_Thesis_Part_2,1,73,2020-07-17T14:13:18-07:00,3.8616669178009,4,versionC_stim.csv,READ_JOLVersionD.csv,"READ Version D",OLD,TEMPER,TANTRUM,ON2,S,154,147,JOL,User,-,"How likely are you to correctly recall the second item in the pair?|Type your response on a scale from 0-100 and then press Enter.",Study/JOL,"Study Phase",3324,,,3108,3108,,,,1,1
5f02bbeb5ac5f8432d35fddd,yxwle2qyre,Emily_Honors_Thesis_Part_2,1,74,2020-07-17T14:13:21-07:00,3.2829880714417,4,versionC_stim.csv,READ_JOLVersionD.csv,"READ Version D",OLD,VILLAIN,BAD,ON2,F,118,169,JOL,User,-,"How likely are you to correctly recall the second item in the pair?|Type your response on a scale from 0-100 and then press Enter.",Study/JOL,"Study Phase",2738,,,2331,2466,,,,70,1
5f02bbeb5ac5f8432d35fddd,yxwle2qyre,Emily_Honors_Thesis_Part_2,1,75,2020-07-17T14:13:31-07:00,9.5436239242554,4,versionC_stim.csv,READ_JOLVersionD.csv,"READ Version D",OLD,FLIP,TURN,ON2,F,116,140,JOL,User,-,"How likely are you to correctly recall the second item in the pair?|Type your response on a scale from 0-100 and then press Enter.",Study/JOL,"Study Phase",8998,,,8577,8753,,,,10,1
5f02bbeb5ac5f8432d35fddd,yxwle2qyre,Emily_Honors_Thesis_Part_2,1,76,2020-07-17T14:13:33-07:00,2.560662984848,4,versionC_stim.csv,READ_JOLVersionD.csv,"READ Version D",OLD,CLOTH,STRETCH,ON2,U,157,113,JOL,User,-,"How likely are you to correctly recall the second item in the pair?|Type your response on a scale from 0-100 and then press Enter.",Study/JOL,"Study Phase",2010,,,1655,1774,,,,10,1
5f02bbeb5ac5f8432d35fddd,yxwle2qyre,Emily_Honors_Thesis_Part_2,1,77,2020-07-17T14:13:43-07:00,10.003288030624,4,versionC_stim.csv,READ_JOLVersionD.csv,"READ Version D",OLD,CAR,DRIVER,ON2,B,106,139,JOL,User,-,"How likely are you to correctly recall the second item in the pair?|Type your response on a scale from 0-100 and then press Enter.",Study/JOL,"Study Phase",9471,,,8533,9108,,,,86,1
5f02bbeb5ac5f8432d35fddd,yxwle2qyre,Emily_Honors_Thesis_Part_2,1,78,2020-07-17T14:13:47-07:00,3.4738099575043,4,versionC_stim.csv,READ_JOLVersionD.csv,"READ Version D",OLD,BRAWL,FIGHT,ON2,F,135,108,JOL,User,-,"How likely are you to correctly recall the second item in the pair?|Type your response on a scale from 0-100 and then press Enter.",Study/JOL,"Study Phase",2930,,,2157,2637,,,,95,1
5f02bbeb5ac5f8432d35fddd,yxwle2qyre,Emily_Honors_Thesis_Part_2,1,79,2020-07-17T14:13:52-07:00,5.521507024765,4,versionC_stim.csv,READ_JOLVersionD.csv,"READ Version D",OLD,OUNCE,BOTH,ON2,U,172,110,JOL,User,-,"How likely are you to correctly recall the second item in the pair?|Type your response on a scale from 0-100 and then press Enter.",Study/JOL,"Study Phase",3960,,,2910,3694,,,,15,1
5f02bbeb5ac5f8432d35fddd,yxwle2qyre,Emily_Honors_Thesis_Part_2,1,80,2020-07-17T14:13:57-07:00,4.7374820709229,4,versionC_stim.csv,READ_JOLVersionD.csv,"READ Version D",OLD,FICTION,LISTEN,ON2,U,164,100,JOL,User,-,"How likely are you to correctly recall the second item in the pair?|Type your response on a scale from 0-100 and then press Enter.",Study/JOL,"Study Phase",4198,,,3676,3676,,,,5,1
5f02bbeb5ac5f8432d35fddd,yxwle2qyre,Emily_Honors_Thesis_Part_2,1,81,2020-07-17T14:14:00-07:00,3.1367249488831,4,versionC_stim.csv,READ_JOLVersionD.csv,"READ Version D",OLD,PAPER,DOCUMENT,ON2,B,109,158,JOL,User,-,"How likely are you to correctly recall the second item in the pair?|Type your response on a scale from 0-100 and then press Enter.",Study/JOL,"Study Phase",2603,,,2016,2374,,,,90,1
5f02bbeb5ac5f8432d35fddd,yxwle2qyre,Emily_Honors_Thesis_Part_2,1,82,2020-07-17T14:14:04-07:00,3.4890871047974,4,versionC_stim.csv,READ_JOLVersionD.csv,"READ Version D",OLD,CUT,CHOP,ON2,B,107,150,JOL,User,-,"How likely are you to correctly recall the second item in the pair?|Type your response on a scale from 0-100 and then press Enter.",Study/JOL,"Study Phase",2962,,,2426,2698,,,,95,1
5f02bbeb5ac5f8432d35fddd,yxwle2qyre,Emily_Honors_Thesis_Part_2,1,83,2020-07-17T14:14:08-07:00,4.2931768894196,4,versionC_stim.csv,READ_JOLVersionD.csv,"READ Version D",OLD,END,ADJOURN,ON2,B,101,122,JOL,User,-,"How likely are you to correctly recall the second item in the pair?|Type your response on a scale from 0-100 and then press Enter.",Study/JOL,"Study Phase",3739,,,3331,3411,,,,12,1
5f02bbeb5ac5f8432d35fddd,yxwle2qyre,Emily_Honors_Thesis_Part_2,1,84,2020-07-17T14:14:11-07:00,3.3011181354523,4,versionC_stim.csv,READ_JOLVersionD.csv,"READ Version D",OLD,ELECTION,MAZE,ON2,U,159,164,JOL,User,-,"How likely are you to correctly recall the second item in the pair?|Type your response on a scale from 0-100 and then press Enter.",Study/JOL,"Study Phase",2774,,,2348,2348,,,,0,1
5f02bbeb5ac5f8432d35fddd,yxwle2qyre,Emily_Honors_Thesis_Part_2,1,85,2020-07-17T14:14:15-07:00,3.3501949310303,4,versionC_stim.csv,READ_JOLVersionD.csv,"READ Version D",OLD,STEAK,GIVE,ON2,U,158,98,JOL,User,-,"How likely are you to correctly recall the second item in the pair?|Type your response on a scale from 0-100 and then press Enter.",Study/JOL,"Study Phase",2810,,,2429,2429,,,,0,1
5f02bbeb5ac5f8432d35fddd,yxwle2qyre,Emily_Honors_Thesis_Part_2,1,86,2020-07-17T14:14:22-07:00,7.5764510631561,4,versionC_stim.csv,READ_JOLVersionD.csv,"READ Version D",OLD,BREAKABLE,GLASS,ON2,F,127,118,JOL,User,-,"How likely are you to correctly recall the second item in the pair?|Type your response on a scale from 0-100 and then press Enter.",Study/JOL,"Study Phase",7031,,,4514,6561,,,,71,1
5f02bbeb5ac5f8432d35fddd,yxwle2qyre,Emily_Honors_Thesis_Part_2,1,87,2020-07-17T14:14:28-07:00,5.8379638195038,4,versionC_stim.csv,READ_JOLVersionD.csv,"READ Version D",OLD,SHAKE,SHELL,ON2,U,163,175,JOL,User,-,"How likely are you to correctly recall the second item in the pair?|Type your response on a scale from 0-100 and then press Enter.",Study/JOL,"Study Phase",5288,,,5095,5095,,,,3,1
5f02bbeb5ac5f8432d35fddd,yxwle2qyre,Emily_Honors_Thesis_Part_2,1,88,2020-07-17T14:14:32-07:00,4.2302131652832,4,versionC_stim.csv,READ_JOLVersionD.csv,"READ Version D",OLD,ABLE,CRACKLE,ON2,U,162,159,JOL,User,-,"How likely are you to correctly recall the second item in the pair?|Type your response on a scale from 0-100 and then press Enter.",Study/JOL,"Study Phase",3706,,,3351,3351,,,,0,1
5f02bbeb5ac5f8432d35fddd,yxwle2qyre,Emily_Honors_Thesis_Part_2,1,89,2020-07-17T14:14:37-07:00,4.5072569847107,4,versionC_stim.csv,READ_JOLVersionD.csv,"READ Version D",OLD,LEAGUE,BASEBALL,ON2,F,131,102,JOL,User,-,"How likely are you to correctly recall the second item in the pair?|Type your response on a scale from 0-100 and then press Enter.",Study/JOL,"Study Phase",3968,,,3180,3555,,,,50,1
5f02bbeb5ac5f8432d35fddd,yxwle2qyre,Emily_Honors_Thesis_Part_2,1,90,2020-07-17T14:14:42-07:00,5.5167119503021,4,versionC_stim.csv,READ_JOLVersionD.csv,"READ Version D",OLD,WET,DRY,ON2,S,146,161,JOL,User,-,"How likely are you to correctly recall the second item in the pair?|Type your response on a scale from 0-100 and then press Enter.",Study/JOL,"Study Phase",3965,,,3520,3687,,,,70,1
5f02bbeb5ac5f8432d35fddd,yxwle2qyre,Emily_Honors_Thesis_Part_2,1,91,2020-07-17T14:14:48-07:00,5.7757298946381,4,versionC_stim.csv,READ_JOLVersionD.csv,"READ Version D",OLD,SCAR,MAIN,ON2,U,175,157,JOL,User,-,"How likely are you to correctly recall the second item in the pair?|Type your response on a scale from 0-100 and then press Enter.",Study/JOL,"Study Phase",5227,,,4937,4937,,,,6,1
5f02bbeb5ac5f8432d35fddd,yxwle2qyre,Emily_Honors_Thesis_Part_2,1,92,2020-07-17T14:14:54-07:00,5.7462210655212,4,versionC_stim.csv,READ_JOLVersionD.csv,"READ Version D",OLD,MAROON,JUSTICE,ON2,U,156,137,JOL,User,-,"How likely are you to correctly recall the second item in the pair?|Type your response on a scale from 0-100 and then press Enter.",Study/JOL,"Study Phase",5211,,,4873,4873,,,,0,1
5f02bbeb5ac5f8432d35fddd,yxwle2qyre,Emily_Honors_Thesis_Part_2,1,93,2020-07-17T14:14:58-07:00,3.9133429527283,4,versionC_stim.csv,READ_JOLVersionD.csv,"READ Version D",OLD,TRUTHFUL,HONEST,ON2,F,133,99,JOL,User,-,"How likely are you to correctly recall the second item in the pair?|Type your response on a scale from 0-100 and then press Enter.",Study/JOL,"Study Phase",3371,,,2733,2941,,,,80,1
5f02bbeb5ac5f8432d35fddd,yxwle2qyre,Emily_Honors_Thesis_Part_2,1,94,2020-07-17T14:15:01-07:00,3.3644759654999,4,versionC_stim.csv,READ_JOLVersionD.csv,"READ Version D",OLD,FAVORITE,BEST,ON2,F,125,165,JOL,User,-,"How likely are you to correctly recall the second item in the pair?|Type your response on a scale from 0-100 and then press Enter.",Study/JOL,"Study Phase",2815,,,2403,2546,,,,90,1
5f02bbeb5ac5f8432d35fddd,yxwle2qyre,Emily_Honors_Thesis_Part_2,1,95,2020-07-17T14:15:05-07:00,3.8361821174622,4,versionC_stim.csv,READ_JOLVersionD.csv,"READ Version D",OLD,GROUND,EARTH,ON2,S,144,129,JOL,User,-,"How likely are you to correctly recall the second item in the pair?|Type your response on a scale from 0-100 and then press Enter.",Study/JOL,"Study Phase",3314,,,2724,3044,,,,75,1
5f02bbeb5ac5f8432d35fddd,yxwle2qyre,Emily_Honors_Thesis_Part_2,1,96,2020-07-17T14:15:11-07:00,6.2024059295654,4,versionC_stim.csv,READ_JOLVersionD.csv,"READ Version D",OLD,WAX,CANDLE,ON2,S,139,119,JOL,User,-,"How likely are you to correctly recall the second item in the pair?|Type your response on a scale from 0-100 and then press Enter.",Study/JOL,"Study Phase",5640,,,1767,5366,,,,856,1
5f02bbeb5ac5f8432d35fddd,yxwle2qyre,Emily_Honors_Thesis_Part_2,1,97,2020-07-17T14:15:33-07:00,22.079076051712,4,versionC_stim.csv,READ_JOLVersionD.csv,"READ Version D",OLD,AIRCRAFT,PLANE,ON2,F,129,124,JOL,User,-,"How likely are you to correctly recall the second item in the pair?|Type your response on a scale from 0-100 and then press Enter.",Study/JOL,"Study Phase",21534,,,21031,21239,,,,90,1
5f02bbeb5ac5f8432d35fddd,yxwle2qyre,Emily_Honors_Thesis_Part_2,1,98,2020-07-17T14:15:44-07:00,10.170079946518,4,versionC_stim.csv,READ_JOLVersionD.csv,"READ Version D",OLD,PANTHER,CAT,ON2,F,126,176,JOL,User,-,"How likely are you to correctly recall the second item in the pair?|Type your response on a scale from 0-100 and then press Enter.",Study/JOL,"Study Phase",9549,,,7508,9260,,,,852,1
5f02bbeb5ac5f8432d35fddd,yxwle2qyre,Emily_Honors_Thesis_Part_2,1,99,2020-07-17T14:15:58-07:00,14.221774101257,4,versionC_stim.csv,READ_JOLVersionD.csv,"READ Version D",OLD,CHILDREN,MIRROR,ON2,U,174,125,JOL,User,-,"How likely are you to correctly recall the second item in the pair?|Type your response on a scale from 0-100 and then press Enter.",Study/JOL,"Study Phase",13677,,,13291,13291,,,,0,1
5f02bbeb5ac5f8432d35fddd,yxwle2qyre,Emily_Honors_Thesis_Part_2,1,100,2020-07-17T14:16:07-07:00,9.7126710414886,4,versionC_stim.csv,READ_JOLVersionD.csv,"READ Version D",OLD,PLANT,CACTUS,ON2,B,98,170,JOL,User,-,"How likely are you to correctly recall the second item in the pair?|Type your response on a scale from 0-100 and then press Enter.",Study/JOL,"Study Phase",9092,,,8458,8609,,,,80,1
5f02bbeb5ac5f8432d35fddd,yxwle2qyre,Emily_Honors_Thesis_Part_2,1,101,2020-07-17T14:16:11-07:00,3.1805658340454,4,versionC_stim.csv,READ_JOLVersionD.csv,"READ Version D",OLD,LONELY,ALONE,ON2,S,145,154,JOL,User,-,"How likely are you to correctly recall the second item in the pair?|Type your response on a scale from 0-100 and then press Enter.",Study/JOL,"Study Phase",2595,,,2031,2213,,,,90,1
5f02bbeb5ac5f8432d35fddd,yxwle2qyre,Emily_Honors_Thesis_Part_2,1,102,2020-07-17T14:16:14-07:00,3.6834571361542,4,versionC_stim.csv,READ_JOLVersionD.csv,"READ Version D",OLD,FISH,SHRIMP,Buffer3,Buffer,93,180,JOL,User,-,"How likely are you to correctly recall the second item in the pair?|Type your response on a scale from 0-100 and then press Enter.",Study/JOL,BUFFER2,3101,,,2049,2785,,,,95,1
5f02bbeb5ac5f8432d35fddd,yxwle2qyre,Emily_Honors_Thesis_Part_2,1,103,2020-07-17T14:16:19-07:00,4.4470930099487,4,versionC_stim.csv,READ_JOLVersionD.csv,"READ Version D",OLD,SPOOKY,OCTOBER,Buffer3,Buffer,180,178,JOL,User,-,"How likely are you to correctly recall the second item in the pair?|Type your response on a scale from 0-100 and then press Enter.",Study/JOL,BUFFER2,3911,,,2376,3512,,,,72,1
5f02bbeb5ac5f8432d35fddd,yxwle2qyre,Emily_Honors_Thesis_Part_2,1,104,2020-07-17T14:16:24-07:00,5.2549169063568,4,versionC_stim.csv,READ_JOLVersionD.csv,"READ Version D",OLD,STRING,NOODLE,Buffer3,Buffer,92,177,JOL,User,-,"How likely are you to correctly recall the second item in the pair?|Type your response on a scale from 0-100 and then press Enter.",Study/JOL,BUFFER2,4703,,,3240,4351,,,,50,1
5f02bbeb5ac5f8432d35fddd,yxwle2qyre,Emily_Honors_Thesis_Part_2,1,105,2020-07-17T14:16:28-07:00,4.2726979255676,4,versionC_stim.csv,READ_JOLVersionD.csv,"READ Version D",OLD,WEAKS,DAYS,Buffer3,Buffer,176,181,JOL,User,-,"How likely are you to correctly recall the second item in the pair?|Type your response on a scale from 0-100 and then press Enter.",Study/JOL,BUFFER2,3753,,,3135,3335,,,,10,1
5f02bbeb5ac5f8432d35fddd,yxwle2qyre,Emily_Honors_Thesis_Part_2,1,106,2020-07-17T14:16:37-07:00,8.5924069881439,4,versionC_stim.csv,READ_JOLVersionD.csv,"READ Version D",OLD,ADVENTURE,CAMP,Buffer3,Buffer,95,179,JOL,User,-,"How likely are you to correctly recall the second item in the pair?|Type your response on a scale from 0-100 and then press Enter.",Study/JOL,BUFFER2,8061,,,6900,7691,,,,55,1
5f02bbeb5ac5f8432d35fddd,yxwle2qyre,Emily_Honors_Thesis_Part_2,1,107,2020-07-17T14:16:40-07:00,3.1073341369629,4,versionC_stim.csv,READ_JOLVersionD.csv,"READ Version D",OLD,,,,,,0,Instruct,User,-,"You have completed this section. Please press Enter.",Filler_Instruction,Instruct2,2546,,,-1,-1,,,,,1
5f02bbeb5ac5f8432d35fddd,yxwle2qyre,Emily_Honors_Thesis_Part_2,1,108,2020-07-17T14:18:41-07:00,120.56796002388,4,versionC_stim.csv,READ_JOLVersionD.csv,"READ Version D",OLD,,,,,,0,FreeRecall,120,120,"Please list the 50 US states in alphabetical order. The task will automatically advance to the next screen after two minutes.",,Filler1,120002,"Alabama Alaska Arizona Arkansas California Colorado Connecticut Delaware Florida Georgia Hawaii Idaho Illinois Indiana Iowa Kansas Kentucky Louisiana Maine Maryland Massachusetts Michigan Minnesota Mississippi Missouri Montana Nebraska Nevada New Hampshire New Jersey New Mexico New York North Carolina North Dakota Ohio Oklahoma Oregon Pennsylvania Rhode Island South Carolina South Dakota Tennessee Texas Utah Vermont Virginia Washington West Virginia Wisconsin Wyoming",0,75563,91307,0,0,,,0.904
5f02bbeb5ac5f8432d35fddd,yxwle2qyre,Emily_Honors_Thesis_Part_2,1,109,2020-07-17T14:19:07-07:00,26.024498939514,4,versionC_stim.csv,READ_JOLVersionD.csv,"READ Version D",OLD,,,,,,0,Instruct,-,10,"You will now be presented with the first word from each of the previously studied item pairs. Please type the missing word. If you do not know the word, you may guess or press Enter to skip forward to the next pair.",,Instruct3,25386,,,-1,-1,,,,,1
5f02bbeb5ac5f8432d35fddd,yxwle2qyre,Emily_Honors_Thesis_Part_2,1,110,2020-07-17T14:19:55-07:00,48.86131310463,4,versionC_stim.csv,READ_JOLVersionD.csv,"READ Version D",OLD,COMMUNICATION,PHONE,ON2,S,149,156,Test,User,-,,Recall,Recall1,48179,phone,100,43082,46874,1,1,,,0.851
5f02bbeb5ac5f8432d35fddd,yxwle2qyre,Emily_Honors_Thesis_Part_2,1,111,2020-07-17T14:20:19-07:00,24.021081924438,4,versionC_stim.csv,READ_JOLVersionD.csv,"READ Version D",OLD,SIGN,LOAN,ON2,U,171,130,Test,User,-,,Recall,Recall1,23392,language,50,3420,6243,0,0,,,1
5f02bbeb5ac5f8432d35fddd,yxwle2qyre,Emily_Honors_Thesis_Part_2,1,112,2020-07-17T14:20:26-07:00,6.654088973999,4,versionC_stim.csv,READ_JOLVersionD.csv,"READ Version D",OLD,PAPER,DOCUMENT,ON2,B,109,158,Test,User,-,,Recall,Recall1,6022,plane,15.384615384615,4033,4672,0,0,,,1
5f02bbeb5ac5f8432d35fddd,yxwle2qyre,Emily_Honors_Thesis_Part_2,1,113,2020-07-17T14:20:34-07:00,7.5223100185394,4,versionC_stim.csv,READ_JOLVersionD.csv,"READ Version D",OLD,CUT,CHOP,ON2,B,107,150,Test,User,-,,Recall,Recall1,6965,glass,0,5310,6309,0,0,,,1
5f02bbeb5ac5f8432d35fddd,yxwle2qyre,Emily_Honors_Thesis_Part_2,1,114,2020-07-17T14:20:38-07:00,4.2626950740814,4,versionC_stim.csv,READ_JOLVersionD.csv,"READ Version D",OLD,ACTRESS,STAR,ON2,F,120,105,Test,User,-,,Recall,Recall1,3719,star,100,2179,2747,1,1,,,1
5f02bbeb5ac5f8432d35fddd,yxwle2qyre,Emily_Honors_Thesis_Part_2,1,115,2020-07-17T14:21:03-07:00,25.375289916992,4,versionC_stim.csv,READ_JOLVersionD.csv,"READ Version D",OLD,HATE,NAME,ON2,U,167,117,Test,User,-,,Recall,Recall1,24846,pain,25,23112,23632,0,0,,,0.916
5f02bbeb5ac5f8432d35fddd,yxwle2qyre,Emily_Honors_Thesis_Part_2,1,116,2020-07-17T14:21:18-07:00,14.368701934814,4,versionC_stim.csv,READ_JOLVersionD.csv,"READ Version D",OLD,LONELY,ALONE,ON2,S,145,154,Test,User,-,,Recall,Recall1,13702,empty,20,11671,12565,0,0,,,0.677
5f02bbeb5ac5f8432d35fddd,yxwle2qyre,Emily_Honors_Thesis_Part_2,1,117,2020-07-17T14:21:28-07:00,10.499979972839,4,versionC_stim.csv,READ_JOLVersionD.csv,"READ Version D",OLD,OUNCE,BOTH,ON2,U,172,110,Test,User,-,,Recall,Recall1,9958,one,28.571428571429,8631,9486,0,0,,,0.72
5f02bbeb5ac5f8432d35fddd,yxwle2qyre,Emily_Honors_Thesis_Part_2,1,118,2020-07-17T14:21:33-07:00,4.4752051830292,4,versionC_stim.csv,READ_JOLVersionD.csv,"READ Version D",OLD,PENGUIN,BIRD,ON2,F,119,107,Test,User,-,,Recall,Recall1,3862,bird,100,2288,2959,1,1,,,1
5f02bbeb5ac5f8432d35fddd,yxwle2qyre,Emily_Honors_Thesis_Part_2,1,119,2020-07-17T14:21:50-07:00,17.816711902618,4,versionC_stim.csv,READ_JOLVersionD.csv,"READ Version D",OLD,LOVE,AFFECTION,ON2,B,115,111,Test,User,-,,Recall,Recall1,17283,passion,50,15127,16190,0,0,,,0.787
5f02bbeb5ac5f8432d35fddd,yxwle2qyre,Emily_Honors_Thesis_Part_2,1,120,2020-07-17T14:21:56-07:00,5.1901969909668,4,versionC_stim.csv,READ_JOLVersionD.csv,"READ Version D",OLD,NAP,SLEEP,ON2,F,134,152,Test,User,-,,Recall,Recall1,4651,sleep,100,1621,3540,1,1,,,1
5f02bbeb5ac5f8432d35fddd,yxwle2qyre,Emily_Honors_Thesis_Part_2,1,121,2020-07-17T14:22:13-07:00,17.738729000092,4,versionC_stim.csv,READ_JOLVersionD.csv,"READ Version D",OLD,BREAKABLE,GLASS,ON2,F,127,118,Test,User,-,,Recall,Recall1,17213,fragile,16.666666666667,15164,16267,0,0,,,0.761
5f02bbeb5ac5f8432d35fddd,yxwle2qyre,Emily_Honors_Thesis_Part_2,1,122,2020-07-17T14:22:35-07:00,21.364177942276,4,versionC_stim.csv,READ_JOLVersionD.csv,"READ Version D",OLD,COLD,CHILL,ON2,B,114,171,Test,User,-,,Recall,Recall1,20806,ice,25,1664,19983,0,0,,,0.833
5f02bbeb5ac5f8432d35fddd,yxwle2qyre,Emily_Honors_Thesis_Part_2,1,123,2020-07-17T14:22:50-07:00,15.031383037567,4,versionC_stim.csv,READ_JOLVersionD.csv,"READ Version D",OLD,MAROON,JUSTICE,ON2,U,156,137,Test,User,-,,Recall,Recall1,14459,five,36.363636363636,3282,3825,0,0,,,0.882
5f02bbeb5ac5f8432d35fddd,yxwle2qyre,Emily_Honors_Thesis_Part_2,1,124,2020-07-17T14:22:54-07:00,4.16339802742,4,versionC_stim.csv,READ_JOLVersionD.csv,"READ Version D",OLD,SARDINE,FISH,ON2,F,130,136,Test,User,-,,Recall,Recall1,3606,fish,100,1810,2257,1,1,,,1
5f02bbeb5ac5f8432d35fddd,yxwle2qyre,Emily_Honors_Thesis_Part_2,1,125,2020-07-17T14:22:58-07:00,3.9018840789795,4,versionC_stim.csv,READ_JOLVersionD.csv,"READ Version D",OLD,WAX,CANDLE,ON2,S,139,119,Test,User,-,,Recall,Recall1,3354,candle,100,1630,2358,1,1,,,1
5f02bbeb5ac5f8432d35fddd,yxwle2qyre,Emily_Honors_Thesis_Part_2,1,126,2020-07-17T14:23:08-07:00,10.141964912415,4,versionC_stim.csv,READ_JOLVersionD.csv,"READ Version D",OLD,PANTHER,CAT,ON2,F,126,176,Test,User,-,,Recall,Recall1,9605,cat,100,8243,8701,1,1,,,0.828
5f02bbeb5ac5f8432d35fddd,yxwle2qyre,Emily_Honors_Thesis_Part_2,1,127,2020-07-17T14:23:23-07:00,15.396905899048,4,versionC_stim.csv,READ_JOLVersionD.csv,"READ Version D",OLD,FIGHT,FEUD,ON2,B,113,109,Test,User,-,,Recall,Recall1,14842,punch,22.222222222222,10082,13521,0,0,,,1
5f02bbeb5ac5f8432d35fddd,yxwle2qyre,Emily_Honors_Thesis_Part_2,1,128,2020-07-17T14:26:09-07:00,165.50907921791,4,versionC_stim.csv,READ_JOLVersionD.csv,"READ Version D",OLD,CAR,DRIVER,ON2,B,106,139,Test,User,-,,Recall,Recall1,164904,speed,18.181818181818,163048,163799,0,0,,,1
5f02bbeb5ac5f8432d35fddd,yxwle2qyre,Emily_Honors_Thesis_Part_2,1,129,2020-07-17T14:26:17-07:00,8.0484888553619,4,versionC_stim.csv,READ_JOLVersionD.csv,"READ Version D",OLD,PLANT,CACTUS,ON2,B,98,170,Test,User,-,,Recall,Recall1,7424,flower,0,5358,6133,0,0,,,1
5f02bbeb5ac5f8432d35fddd,yxwle2qyre,Emily_Honors_Thesis_Part_2,1,130,2020-07-17T14:26:22-07:00,5.1904799938202,4,versionC_stim.csv,READ_JOLVersionD.csv,"READ Version D",OLD,JAR,MASON,ON2,S,138,128,Test,User,-,,Recall,Recall1,4612,honey,40,2761,3441,0,0,,,1
5f02bbeb5ac5f8432d35fddd,yxwle2qyre,Emily_Honors_Thesis_Part_2,1,131,2020-07-17T14:26:33-07:00,10.826029062271,4,versionC_stim.csv,READ_JOLVersionD.csv,"READ Version D",OLD,BANG,FUZZY,ON2,U,168,168,Test,User,-,,Recall,Recall1,10293,fire,22.222222222222,8549,9045,0,0,,,1
5f02bbeb5ac5f8432d35fddd,yxwle2qyre,Emily_Honors_Thesis_Part_2,1,132,2020-07-17T14:26:44-07:00,11.354861974716,4,versionC_stim.csv,READ_JOLVersionD.csv,"READ Version D",OLD,THIMBLE,THREAD,ON2,F,121,112,Test,User,-,,Recall,Recall1,10823,rumble,33.333333333333,9759,10654,0,0,,,0.692
5f02bbeb5ac5f8432d35fddd,yxwle2qyre,Emily_Honors_Thesis_Part_2,1,133,2020-07-17T14:26:51-07:00,6.7458069324493,4,versionC_stim.csv,READ_JOLVersionD.csv,"READ Version D",OLD,SHAKE,SHELL,ON2,U,163,175,Test,User,-,,Recall,Recall1,6178,milk,22.222222222222,3110,3717,0,0,,,1
5f02bbeb5ac5f8432d35fddd,yxwle2qyre,Emily_Honors_Thesis_Part_2,1,134,2020-07-17T14:27:04-07:00,12.708970069885,4,versionC_stim.csv,READ_JOLVersionD.csv,"READ Version D",OLD,NOISE,LOUD,ON2,S,152,167,Test,User,-,,Recall,Recall1,12167,blast,22.222222222222,10470,11142,0,0,,,0.857
5f02bbeb5ac5f8432d35fddd,yxwle2qyre,Emily_Honors_Thesis_Part_2,1,135,2020-07-17T14:27:08-07:00,4.0773921012878,4,versionC_stim.csv,READ_JOLVersionD.csv,"READ Version D",OLD,TRASH,LITTER,ON2,B,103,149,Test,User,-,,Recall,Recall1,3529,can,0,2132,2436,0,0,,,1
5f02bbeb5ac5f8432d35fddd,yxwle2qyre,Emily_Honors_Thesis_Part_2,1,136,2020-07-17T14:27:13-07:00,4.8845620155334,4,versionC_stim.csv,READ_JOLVersionD.csv,"READ Version D",OLD,BALLOON,POP,ON2,F,123,148,Test,User,-,,Recall,Recall1,4327,air,0,2348,2708,0,0,,,1
5f02bbeb5ac5f8432d35fddd,yxwle2qyre,Emily_Honors_Thesis_Part_2,1,137,2020-07-17T14:27:21-07:00,8.7233598232269,4,versionC_stim.csv,READ_JOLVersionD.csv,"READ Version D",OLD,BANKER,MONEY,ON2,F,132,126,Test,User,-,,Recall,Recall1,7160,cat,0,5507,6187,0,0,,,1
5f02bbeb5ac5f8432d35fddd,yxwle2qyre,Emily_Honors_Thesis_Part_2,1,138,2020-07-17T14:27:38-07:00,16.956077098846,4,versionC_stim.csv,READ_JOLVersionD.csv,"READ Version D",OLD,CLOTHES,CAKE,ON2,U,166,163,Test,User,-,,Recall,Recall1,16393,wear,25,12894,15733,0,0,,,1
5f02bbeb5ac5f8432d35fddd,yxwle2qyre,Emily_Honors_Thesis_Part_2,1,139,2020-07-17T14:27:51-07:00,12.385854005814,4,versionC_stim.csv,READ_JOLVersionD.csv,"READ Version D",OLD,CHARM,VEHICLE,ON2,U,160,174,Test,User,-,,Recall,Recall1,11708,beauty,15.384615384615,9292,10563,0,0,,,0.872
5f02bbeb5ac5f8432d35fddd,yxwle2qyre,Emily_Honors_Thesis_Part_2,1,140,2020-07-17T14:27:56-07:00,5.584536075592,4,versionC_stim.csv,READ_JOLVersionD.csv,"READ Version D",OLD,TRUTHFUL,HONEST,ON2,F,133,99,Test,User,-,,Recall,Recall1,4998,honest,100,3030,4044,1,1,,,1
5f02bbeb5ac5f8432d35fddd,yxwle2qyre,Emily_Honors_Thesis_Part_2,1,141,2020-07-17T14:28:10-07:00,14.043623924255,4,versionC_stim.csv,READ_JOLVersionD.csv,"READ Version D",OLD,CLEAR,MOAT,ON2,U,169,97,Test,User,-,,Recall,Recall1,13512,sunny,0,9217,12217,0,0,,,0.878
5f02bbeb5ac5f8432d35fddd,yxwle2qyre,Emily_Honors_Thesis_Part_2,1,142,2020-07-17T14:28:22-07:00,11.770370960236,4,versionC_stim.csv,READ_JOLVersionD.csv,"READ Version D",OLD,AWAY,GONE,ON2,S,142,151,Test,User,-,,Recall,Recall1,11216,distant,18.181818181818,8529,9536,0,0,,,0.794
5f02bbeb5ac5f8432d35fddd,yxwle2qyre,Emily_Honors_Thesis_Part_2,1,143,2020-07-17T14:28:36-07:00,14.046812057495,4,versionC_stim.csv,READ_JOLVersionD.csv,"READ Version D",OLD,EAT,DINE,ON2,B,111,103,Test,User,-,,Recall,Recall1,13493,dine,100,10421,10892,1,1,,,0.795
5f02bbeb5ac5f8432d35fddd,yxwle2qyre,Emily_Honors_Thesis_Part_2,1,144,2020-07-17T14:28:49-07:00,12.409080982208,4,versionC_stim.csv,READ_JOLVersionD.csv,"READ Version D",OLD,GROUND,EARTH,ON2,S,144,129,Test,User,-,,Recall,Recall1,11833,bottom,18.181818181818,10409,11232,0,0,,,0.806
5f02bbeb5ac5f8432d35fddd,yxwle2qyre,Emily_Honors_Thesis_Part_2,1,145,2020-07-17T14:28:54-07:00,5.3958649635315,4,versionC_stim.csv,READ_JOLVersionD.csv,"READ Version D",OLD,SCISSORS,SHEARS,ON2,B,112,138,Test,User,-,,Recall,Recall1,4836,cut,0,4268,4651,0,0,,,0.895
5f02bbeb5ac5f8432d35fddd,yxwle2qyre,Emily_Honors_Thesis_Part_2,1,146,2020-07-17T14:29:08-07:00,13.856138944626,4,versionC_stim.csv,READ_JOLVersionD.csv,"READ Version D",OLD,LONG,EXTENSION,ON2,B,96,115,Test,User,-,,Recall,Recall1,13329,distant,25,9491,10515,0,0,,,1
5f02bbeb5ac5f8432d35fddd,yxwle2qyre,Emily_Honors_Thesis_Part_2,1,147,2020-07-17T14:30:49-07:00,100.66460800171,4,versionC_stim.csv,READ_JOLVersionD.csv,"READ Version D",OLD,TIE,SHOELACE,ON2,B,99,127,Test,User,-,,Recall,Recall1,99987,rope,33.333333333333,98780,99354,0,0,,,1
5f02bbeb5ac5f8432d35fddd,yxwle2qyre,Emily_Honors_Thesis_Part_2,1,148,2020-07-17T14:30:53-07:00,4.2673790454865,4,versionC_stim.csv,READ_JOLVersionD.csv,"READ Version D",OLD,SEATBELT,SAFETY,ON2,S,147,131,Test,User,-,,Recall,Recall1,3643,safe,80,2523,3034,0,1,,,1
5f02bbeb5ac5f8432d35fddd,yxwle2qyre,Emily_Honors_Thesis_Part_2,1,149,2020-07-17T14:31:17-07:00,24.205080986023,4,versionC_stim.csv,READ_JOLVersionD.csv,"READ Version D",OLD,TAN,SUN,ON2,S,155,132,Test,User,-,,Recall,Recall1,23672,sun,100,13384,23327,1,1,,,0.842
5f02bbeb5ac5f8432d35fddd,yxwle2qyre,Emily_Honors_Thesis_Part_2,1,150,2020-07-17T14:31:32-07:00,15.422409057617,4,versionC_stim.csv,READ_JOLVersionD.csv,"READ Version D",OLD,DOG,FURRY,ON2,B,102,143,Test,User,-,,Recall,Recall1,14826,leash,0,13770,14361,0,0,,,0.81
5f02bbeb5ac5f8432d35fddd,yxwle2qyre,Emily_Honors_Thesis_Part_2,1,151,2020-07-17T14:31:39-07:00,6.2561600208282,4,versionC_stim.csv,READ_JOLVersionD.csv,"READ Version D",OLD,HEAD,SCALP,ON2,B,105,172,Test,User,-,,Recall,Recall1,5613,scalp,100,4053,4940,1,1,,,1
5f02bbeb5ac5f8432d35fddd,yxwle2qyre,Emily_Honors_Thesis_Part_2,1,152,2020-07-17T14:31:59-07:00,20.537691831589,4,versionC_stim.csv,READ_JOLVersionD.csv,"READ Version D",OLD,VILLAIN,BAD,ON2,F,118,169,Test,User,-,,Recall,Recall1,20012,criminal,18.181818181818,16828,19307,0,0,,,0.797
5f02bbeb5ac5f8432d35fddd,yxwle2qyre,Emily_Honors_Thesis_Part_2,1,153,2020-07-17T14:32:03-07:00,3.4473202228546,4,versionC_stim.csv,READ_JOLVersionD.csv,"READ Version D",OLD,STRAWBERRY,FRUIT,ON2,F,124,155,Test,User,-,,Recall,Recall1,2855,fruit,100,1615,2614,1,1,,,1
5f02bbeb5ac5f8432d35fddd,yxwle2qyre,Emily_Honors_Thesis_Part_2,1,154,2020-07-17T14:32:20-07:00,17.501187801361,4,versionC_stim.csv,READ_JOLVersionD.csv,"READ Version D",OLD,HAVE,OWN,ON2,S,153,162,Test,User,-,,Recall,Recall1,16954,hold,28.571428571429,16282,16777,0,0,,,0.639
5f02bbeb5ac5f8432d35fddd,yxwle2qyre,Emily_Honors_Thesis_Part_2,1,155,2020-07-17T14:32:29-07:00,9.0047821998596,4,versionC_stim.csv,READ_JOLVersionD.csv,"READ Version D",OLD,OBTAIN,MEAT,ON2,U,161,166,Test,User,-,,Recall,Recall1,8452,get,57.142857142857,7860,8211,0,0,,,0.739
5f02bbeb5ac5f8432d35fddd,yxwle2qyre,Emily_Honors_Thesis_Part_2,1,156,2020-07-17T14:32:42-07:00,12.809402942657,4,versionC_stim.csv,READ_JOLVersionD.csv,"READ Version D",OLD,GAME,CLUE,ON2,B,97,104,Test,User,-,,Recall,Recall1,12231,ready,22.222222222222,10271,11230,0,0,,,0.727
5f02bbeb5ac5f8432d35fddd,yxwle2qyre,Emily_Honors_Thesis_Part_2,1,157,2020-07-17T14:32:51-07:00,9.0255599021912,4,versionC_stim.csv,READ_JOLVersionD.csv,"READ Version D",OLD,REEL,ROD,ON2,S,150,133,Test,User,-,,Recall,Recall1,8471,shake,0,7460,8163,0,0,,,0.739
5f02bbeb5ac5f8432d35fddd,yxwle2qyre,Emily_Honors_Thesis_Part_2,1,158,2020-07-17T14:32:56-07:00,4.6661520004272,4,versionC_stim.csv,READ_JOLVersionD.csv,"READ Version D",OLD,MORNING,TEMPERATURE,ON2,U,173,135,Test,User,-,,Recall,Recall1,4124,day,14.285714285714,2452,3027,0,0,,,1
5f02bbeb5ac5f8432d35fddd,yxwle2qyre,Emily_Honors_Thesis_Part_2,1,159,2020-07-17T14:33:02-07:00,6.0018880367279,4,versionC_stim.csv,READ_JOLVersionD.csv,"READ Version D",OLD,TEMPER,TANTRUM,ON2,S,154,147,Test,User,-,,Recall,Recall1,5217,anger,50,4416,5081,0,0,,,1
5f02bbeb5ac5f8432d35fddd,yxwle2qyre,Emily_Honors_Thesis_Part_2,1,160,2020-07-17T14:33:21-07:00,19.75049996376,4,versionC_stim.csv,READ_JOLVersionD.csv,"READ Version D",OLD,REVENGE,EVEN,ON2,F,122,134,Test,User,-,,Recall,Recall1,19190,punish,20,17654,18693,0,0,,,0.814
5f02bbeb5ac5f8432d35fddd,yxwle2qyre,Emily_Honors_Thesis_Part_2,1,161,2020-07-17T14:33:26-07:00,4.5829970836639,4,versionC_stim.csv,READ_JOLVersionD.csv,"READ Version D",OLD,TICK,FLEA,ON2,S,151,123,Test,User,-,,Recall,Recall1,4032,flea,100,2248,3608,1,1,,,1
5f02bbeb5ac5f8432d35fddd,yxwle2qyre,Emily_Honors_Thesis_Part_2,1,162,2020-07-17T14:33:29-07:00,3.1702649593353,4,versionC_stim.csv,READ_JOLVersionD.csv,"READ Version D",OLD,SMELL,INCENSE,ON2,B,110,141,Test,User,-,,Recall,Recall1,2645,odour,0,1621,2429,0,0,,,1
5f02bbeb5ac5f8432d35fddd,yxwle2qyre,Emily_Honors_Thesis_Part_2,1,163,2020-07-17T14:33:32-07:00,2.6974880695343,4,versionC_stim.csv,READ_JOLVersionD.csv,"READ Version D",OLD,WINDSHIELD,CAR,ON2,F,117,116,Test,User,-,,Recall,Recall1,2150,car,100,1605,1964,1,1,,,1
5f02bbeb5ac5f8432d35fddd,yxwle2qyre,Emily_Honors_Thesis_Part_2,1,164,2020-07-17T14:33:35-07:00,3.5666558742523,4,versionC_stim.csv,READ_JOLVersionD.csv,"READ Version D",OLD,CHILDREN,MIRROR,ON2,U,174,125,Test,User,-,,Recall,Recall1,3031,kid,22.222222222222,2455,2742,0,0,,,1
5f02bbeb5ac5f8432d35fddd,yxwle2qyre,Emily_Honors_Thesis_Part_2,1,165,2020-07-17T14:33:39-07:00,3.5557420253754,4,versionC_stim.csv,READ_JOLVersionD.csv,"READ Version D",OLD,FICTION,LISTEN,ON2,U,164,100,Test,User,-,,Recall,Recall1,3024,movie,36.363636363636,2135,2776,0,0,,,1
5f02bbeb5ac5f8432d35fddd,yxwle2qyre,Emily_Honors_Thesis_Part_2,1,166,2020-07-17T14:33:45-07:00,6.4583599567413,4,versionC_stim.csv,READ_JOLVersionD.csv,"READ Version D",OLD,JOKE,KEYS,ON2,U,165,121,Test,User,-,,Recall,Recall1,5925,fun,0,4725,5141,0,0,,,1
5f02bbeb5ac5f8432d35fddd,yxwle2qyre,Emily_Honors_Thesis_Part_2,1,167,2020-07-17T14:33:52-07:00,6.4128541946411,4,versionC_stim.csv,READ_JOLVersionD.csv,"READ Version D",OLD,EQUAL,RIGHTS,ON2,S,137,153,Test,User,-,,Recall,Recall1,5866,rights,100,2490,5722,1,1,,,1
5f02bbeb5ac5f8432d35fddd,yxwle2qyre,Emily_Honors_Thesis_Part_2,1,168,2020-07-17T14:34:02-07:00,10.18758893013,4,versionC_stim.csv,READ_JOLVersionD.csv,"READ Version D",OLD,CARBON,ELEMENT,ON2,S,141,145,Test,User,-,,Recall,Recall1,9660,chemical,26.666666666667,6988,8988,0,0,,,1
5f02bbeb5ac5f8432d35fddd,yxwle2qyre,Emily_Honors_Thesis_Part_2,1,169,2020-07-17T14:34:15-07:00,13.006402015686,4,versionC_stim.csv,READ_JOLVersionD.csv,"READ Version D",OLD,ABLE,CRACKLE,ON2,U,162,159,Test,User,-,,Recall,Recall1,12442,capable,57.142857142857,10739,12273,0,0,,,0.771
5f02bbeb5ac5f8432d35fddd,yxwle2qyre,Emily_Honors_Thesis_Part_2,1,170,2020-07-17T14:34:25-07:00,10.041355848312,4,versionC_stim.csv,READ_JOLVersionD.csv,"READ Version D",OLD,MYSTERY,DETECTIVE,ON2,B,100,160,Test,User,-,,Recall,Recall1,9434,detective,100,6207,8040,1,1,,,0.886
5f02bbeb5ac5f8432d35fddd,yxwle2qyre,Emily_Honors_Thesis_Part_2,1,171,2020-07-17T14:34:29-07:00,3.4567589759827,4,versionC_stim.csv,READ_JOLVersionD.csv,"READ Version D",OLD,WET,DRY,ON2,S,146,161,Test,User,-,,Recall,Recall1,2841,water,25,2073,2680,0,0,,,1
5f02bbeb5ac5f8432d35fddd,yxwle2qyre,Emily_Honors_Thesis_Part_2,1,172,2020-07-17T14:34:33-07:00,4.5026471614838,4,versionC_stim.csv,READ_JOLVersionD.csv,"READ Version D",OLD,ELECTION,MAZE,ON2,U,159,164,Test,User,-,,Recall,Recall1,3969,president,15.384615384615,1544,3623,0,0,,,1
5f02bbeb5ac5f8432d35fddd,yxwle2qyre,Emily_Honors_Thesis_Part_2,1,173,2020-07-17T14:34:36-07:00,2.7843718528748,4,versionC_stim.csv,READ_JOLVersionD.csv,"READ Version D",OLD,COFFIN,DEAD,ON2,F,128,142,Test,User,-,,Recall,Recall1,2222,dead,100,1478,1942,1,1,,,1
5f02bbeb5ac5f8432d35fddd,yxwle2qyre,Emily_Honors_Thesis_Part_2,1,174,2020-07-17T14:34:39-07:00,3.0992350578308,4,versionC_stim.csv,READ_JOLVersionD.csv,"READ Version D",OLD,AIRCRAFT,PLANE,ON2,F,129,124,Test,User,-,,Recall,Recall1,2576,plane,100,1713,2359,1,1,,,1
5f02bbeb5ac5f8432d35fddd,yxwle2qyre,Emily_Honors_Thesis_Part_2,1,175,2020-07-17T14:34:43-07:00,3.7724671363831,4,versionC_stim.csv,READ_JOLVersionD.csv,"READ Version D",OLD,CLOTH,STRETCH,ON2,U,157,113,Test,User,-,,Recall,Recall1,3233,shirt,33.333333333333,2385,3007,0,0,,,1
5f02bbeb5ac5f8432d35fddd,yxwle2qyre,Emily_Honors_Thesis_Part_2,1,176,2020-07-17T14:34:46-07:00,3.2521829605103,4,versionC_stim.csv,READ_JOLVersionD.csv,"READ Version D",OLD,SCAR,MAIN,ON2,U,175,157,Test,User,-,,Recall,Recall1,2673,wound,22.222222222222,1713,2416,0,0,,,1
5f02bbeb5ac5f8432d35fddd,yxwle2qyre,Emily_Honors_Thesis_Part_2,1,177,2020-07-17T14:34:50-07:00,3.690034866333,4,versionC_stim.csv,READ_JOLVersionD.csv,"READ Version D",OLD,LEAGUE,BASEBALL,ON2,F,131,102,Test,User,-,,Recall,Recall1,3133,sport,15.384615384615,1876,2948,0,0,,,1
5f02bbeb5ac5f8432d35fddd,yxwle2qyre,Emily_Honors_Thesis_Part_2,1,178,2020-07-17T14:34:53-07:00,2.9483501911163,4,versionC_stim.csv,READ_JOLVersionD.csv,"READ Version D",OLD,DRINK,WATER,ON2,S,143,106,Test,User,-,,Recall,Recall1,2414,water,100,1342,2069,1,1,,,1
5f02bbeb5ac5f8432d35fddd,yxwle2qyre,Emily_Honors_Thesis_Part_2,1,179,2020-07-17T14:35:01-07:00,8.1146907806396,4,versionC_stim.csv,READ_JOLVersionD.csv,"READ Version D",OLD,BRACELET,WRIST,ON2,S,140,101,Test,User,-,,Recall,Recall1,7571,wristband,71.428571428571,5387,7308,0,0,,,1
5f02bbeb5ac5f8432d35fddd,yxwle2qyre,Emily_Honors_Thesis_Part_2,1,180,2020-07-17T14:35:04-07:00,3.0045762062073,4,versionC_stim.csv,READ_JOLVersionD.csv,"READ Version D",OLD,FLIP,TURN,ON2,F,116,140,Test,User,-,,Recall,Recall1,2450,coin,25,1202,2129,0,0,,,1
5f02bbeb5ac5f8432d35fddd,yxwle2qyre,Emily_Honors_Thesis_Part_2,1,181,2020-07-17T14:35:10-07:00,6.5323038101196,4,versionC_stim.csv,READ_JOLVersionD.csv,"READ Version D",OLD,RED,CHERRY,ON2,B,104,144,Test,User,-,,Recall,Recall1,5994,blood,0,5169,5793,0,0,,,1
5f02bbeb5ac5f8432d35fddd,yxwle2qyre,Emily_Honors_Thesis_Part_2,1,182,2020-07-17T14:35:14-07:00,3.5171890258789,4,versionC_stim.csv,READ_JOLVersionD.csv,"READ Version D",OLD,STEAK,GIVE,ON2,U,158,98,Test,User,-,,Recall,Recall1,2987,cow,0,2474,2785,0,0,,,1
5f02bbeb5ac5f8432d35fddd,yxwle2qyre,Emily_Honors_Thesis_Part_2,1,183,2020-07-17T14:35:48-07:00,34.147433042526,4,versionC_stim.csv,READ_JOLVersionD.csv,"READ Version D",OLD,FAVORITE,BEST,ON2,F,125,165,Test,User,-,,Recall,Recall1,33600,main,0,32800,33287,0,0,,,0.638
5f02bbeb5ac5f8432d35fddd,yxwle2qyre,Emily_Honors_Thesis_Part_2,1,184,2020-07-17T14:35:56-07:00,8.0258591175079,4,versionC_stim.csv,READ_JOLVersionD.csv,"READ Version D",OLD,LIE,TRUTH,ON2,S,148,120,Test,User,-,,Recall,Recall1,7383,dishonest,14.285714285714,5646,7229,0,0,,,1
5f02bbeb5ac5f8432d35fddd,yxwle2qyre,Emily_Honors_Thesis_Part_2,1,185,2020-07-17T14:36:15-07:00,19.470611810684,4,versionC_stim.csv,READ_JOLVersionD.csv,"READ Version D",OLD,END,ADJOURN,ON2,B,101,122,Test,User,-,,Recall,Recall1,18928,final,16.666666666667,17192,18664,0,0,,,0.852
5f02bbeb5ac5f8432d35fddd,yxwle2qyre,Emily_Honors_Thesis_Part_2,1,186,2020-07-17T14:36:26-07:00,10.377583026886,4,versionC_stim.csv,READ_JOLVersionD.csv,"READ Version D",OLD,TOIL,LEASE,ON2,U,170,173,Test,User,-,,Recall,Recall1,9813,effort,18.181818181818,8725,9692,0,0,,,0.76
5f02bbeb5ac5f8432d35fddd,yxwle2qyre,Emily_Honors_Thesis_Part_2,1,187,2020-07-17T14:36:31-07:00,5.6591379642487,4,versionC_stim.csv,READ_JOLVersionD.csv,"READ Version D",OLD,SHAVE,RAZOR,ON2,S,136,114,Test,User,-,,Recall,Recall1,5088,beard,40,2664,4935,0,0,,,1
5f02bbeb5ac5f8432d35fddd,yxwle2qyre,Emily_Honors_Thesis_Part_2,1,188,2020-07-17T14:36:35-07:00,3.8801081180573,4,versionC_stim.csv,READ_JOLVersionD.csv,"READ Version D",OLD,BRAWL,FIGHT,ON2,F,135,108,Test,User,-,,Recall,Recall1,3326,punch,20,2013,2901,0,0,,,1
5f02bbeb5ac5f8432d35fddd,yxwle2qyre,Emily_Honors_Thesis_Part_2,1,189,2020-07-17T14:36:52-07:00,16.40212392807,4,versionC_stim.csv,READ_JOLVersionD.csv,"READ Version D",OLD,DONKEY,MULE,ON2,B,108,146,Test,User,-,,Recall,Recall1,15861,mule,100,13109,15700,1,1,,,0.846
5f02bbeb5ac5f8432d35fddd,yxwle2qyre,Emily_Honors_Thesis_Part_2,1,190,2020-07-17T14:37:03-07:00,11.370974063873,4,versionC_stim.csv,READ_JOLVersionD.csv,"READ Version D",OLD,,,,,,0,Instruct,-,10,"You will now be presented with a new set of word pairs. Please study each pair. Remember that your memory will be tested! When finished, press Enter to move to the next pair.",Initial_Instruct,Instruct4,10799,,,-1,-1,,,,,1
5f02bbeb5ac5f8432d35fddd,yxwle2qyre,Emily_Honors_Thesis_Part_2,1,191,2020-07-17T14:37:16-07:00,13.080513954163,4,versionC_stim.csv,READ_JOLVersionD.csv,"READ Version D",OLD,,,,,,0,Instruct,,10,"You will again be asked to rate your ability to remember these items using a 0 to 100 scale. Remember to use the full range of the scale!",,Instruct10,12400,,,-1,-1,,,,,1
5f02bbeb5ac5f8432d35fddd,yxwle2qyre,Emily_Honors_Thesis_Part_2,1,192,2020-07-17T14:37:21-07:00,4.691447019577,4,versionC_stim.csv,READ_JOLVersionD.csv,"READ Version D",OLD,,,,,,0,Instruct,User,-,"Press Enter when you are readty to begin",,Instruct11,4061,,,-1,-1,,,,,1
5f02bbeb5ac5f8432d35fddd,yxwle2qyre,Emily_Honors_Thesis_Part_2,1,193,2020-07-17T14:37:53-07:00,32.223392963409,4,versionC_stim.csv,READ_JOLVersionD.csv,"READ Version D",OLD,CATCHER,BASEBALL,Buffer,Buffer,2,4,JOL,User,-,"How likely are you to correctly recall the second item in the pair?|Type your response on a scale from 0-100 and then press Enter.",Study/JOL,BUFFER3,31681,,,30598,30709,,,,80,0.547
5f02bbeb5ac5f8432d35fddd,yxwle2qyre,Emily_Honors_Thesis_Part_2,1,194,2020-07-17T14:38:09-07:00,15.439942121506,4,versionC_stim.csv,READ_JOLVersionD.csv,"READ Version D",OLD,GREEN,TREES,Buffer,Buffer,1,5,JOL,User,-,"How likely are you to correctly recall the second item in the pair?|Type your response on a scale from 0-100 and then press Enter.",Study/JOL,BUFFER3,14819,,,14352,14559,,,,90,0.787
5f02bbeb5ac5f8432d35fddd,yxwle2qyre,Emily_Honors_Thesis_Part_2,1,195,2020-07-17T14:38:20-07:00,11.267128944397,4,versionC_stim.csv,READ_JOLVersionD.csv,"READ Version D",OLD,JAM,SPACE,Buffer,Buffer,5,3,JOL,User,-,"How likely are you to correctly recall the second item in the pair?|Type your response on a scale from 0-100 and then press Enter.",Study/JOL,BUFFER3,10597,,,10031,10334,,,,70,0.717
5f02bbeb5ac5f8432d35fddd,yxwle2qyre,Emily_Honors_Thesis_Part_2,1,196,2020-07-17T14:38:30-07:00,10.43835401535,4,versionC_stim.csv,READ_JOLVersionD.csv,"READ Version D",OLD,HIDE,SCARE,Buffer,Buffer,4,2,JOL,User,-,"How likely are you to correctly recall the second item in the pair?|Type your response on a scale from 0-100 and then press Enter.",Study/JOL,BUFFER3,9781,,,9234,9482,,,,60,0.755
5f02bbeb5ac5f8432d35fddd,yxwle2qyre,Emily_Honors_Thesis_Part_2,1,197,2020-07-17T14:38:42-07:00,11.607434988022,4,versionC_stim.csv,READ_JOLVersionD.csv,"READ Version D",OLD,BUTTER,PEANUT,Buffer,Buffer,3,6,JOL,User,-,"How likely are you to correctly recall the second item in the pair?|Type your response on a scale from 0-100 and then press Enter.",Study/JOL,BUFFER3,10998,,,10442,10665,,,,85,0.709
5f02bbeb5ac5f8432d35fddd,yxwle2qyre,Emily_Honors_Thesis_Part_2,1,198,2020-07-17T14:38:50-07:00,8.3830060958862,4,versionC_stim.csv,READ_JOLVersionD.csv,"READ Version D",OLD,WOMAN,LIFT,ON,U,69,7,JOL,User,-,"How likely are you to correctly recall the second item in the pair?|Type your response on a scale from 0-100 and then press Enter.",Study/JOL,"Study Phase2",7735,,,5131,5131,,,,0,1
5f02bbeb5ac5f8432d35fddd,yxwle2qyre,Emily_Honors_Thesis_Part_2,1,199,2020-07-17T14:39:04-07:00,13.740961790085,4,versionC_stim.csv,READ_JOLVersionD.csv,"READ Version D",OLD,ASSIGNMENT,DUE,ON,S,46,59,JOL,User,-,"How likely are you to correctly recall the second item in the pair?|Type your response on a scale from 0-100 and then press Enter.",Study/JOL,"Study Phase2",13162,,,10265,10449,,,,55,0.773
5f02bbeb5ac5f8432d35fddd,yxwle2qyre,Emily_Honors_Thesis_Part_2,1,200,2020-07-17T14:39:12-07:00,7.6159760951996,4,versionC_stim.csv,READ_JOLVersionD.csv,"READ Version D",OLD,CARD,CREDIT,ON,B,23,86,JOL,User,-,"How likely are you to correctly recall the second item in the pair?|Type your response on a scale from 0-100 and then press Enter.",Study/JOL,"Study Phase2",6972,,,4295,4558,,,,90,0.657
5f02bbeb5ac5f8432d35fddd,yxwle2qyre,Emily_Honors_Thesis_Part_2,1,201,2020-07-17T14:39:22-07:00,10.407211065292,4,versionC_stim.csv,READ_JOLVersionD.csv,"READ Version D",OLD,FUTURE,PAST,ON,S,61,19,JOL,User,-,"How likely are you to correctly recall the second item in the pair?|Type your response on a scale from 0-100 and then press Enter.",Study/JOL,"Study Phase2",9850,,,4446,4678,,,,95,0.5
5f02bbeb5ac5f8432d35fddd,yxwle2qyre,Emily_Honors_Thesis_Part_2,1,202,2020-07-17T14:39:32-07:00,10.425601959229,4,versionC_stim.csv,READ_JOLVersionD.csv,"READ Version D",OLD,BIRD,SWAN,ON,B,14,70,JOL,User,-,"How likely are you to correctly recall the second item in the pair?|Type your response on a scale from 0-100 and then press Enter.",Study/JOL,"Study Phase2",9813,,,5097,5536,,,,50,0.78
5f02bbeb5ac5f8432d35fddd,yxwle2qyre,Emily_Honors_Thesis_Part_2,1,203,2020-07-17T14:39:40-07:00,7.5362200737,4,versionC_stim.csv,READ_JOLVersionD.csv,"READ Version D",OLD,SEIZE,TAKE,ON,F,29,12,JOL,User,-,"How likely are you to correctly recall the second item in the pair?|Type your response on a scale from 0-100 and then press Enter.",Study/JOL,"Study Phase2",6928,,,4801,5016,,,,65,1
5f02bbeb5ac5f8432d35fddd,yxwle2qyre,Emily_Honors_Thesis_Part_2,1,204,2020-07-17T14:39:47-07:00,7.3087778091431,4,versionC_stim.csv,READ_JOLVersionD.csv,"READ Version D",OLD,PILOT,PLANE,ON,F,44,23,JOL,User,-,"How likely are you to correctly recall the second item in the pair?|Type your response on a scale from 0-100 and then press Enter.",Study/JOL,"Study Phase2",6726,,,4572,4748,,,,90,0.647
5f02bbeb5ac5f8432d35fddd,yxwle2qyre,Emily_Honors_Thesis_Part_2,1,205,2020-07-17T14:39:58-07:00,10.402836084366,4,versionC_stim.csv,READ_JOLVersionD.csv,"READ Version D",OLD,ATTIRE,CLOTHES,ON,F,43,16,JOL,User,-,"How likely are you to correctly recall the second item in the pair?|Type your response on a scale from 0-100 and then press Enter.",Study/JOL,"Study Phase2",9846,,,6776,7160,,,,55,0.76
5f02bbeb5ac5f8432d35fddd,yxwle2qyre,Emily_Honors_Thesis_Part_2,1,206,2020-07-17T14:40:10-07:00,12.256505012512,4,versionC_stim.csv,READ_JOLVersionD.csv,"READ Version D",OLD,TALK,DISCUSSION,ON,B,21,34,JOL,User,-,"How likely are you to correctly recall the second item in the pair?|Type your response on a scale from 0-100 and then press Enter.",Study/JOL,"Study Phase2",11680,,,7094,7277,,,,80,0.542
5f02bbeb5ac5f8432d35fddd,yxwle2qyre,Emily_Honors_Thesis_Part_2,1,207,2020-07-17T14:40:18-07:00,8.1532828807831,4,versionC_stim.csv,READ_JOLVersionD.csv,"READ Version D",OLD,ATTORNEY,LAW,ON,F,34,65,JOL,User,-,"How likely are you to correctly recall the second item in the pair?|Type your response on a scale from 0-100 and then press Enter.",Study/JOL,"Study Phase2",7460,,,3715,5290,,,,92,1
5f02bbeb5ac5f8432d35fddd,yxwle2qyre,Emily_Honors_Thesis_Part_2,1,208,2020-07-17T14:40:28-07:00,9.8277750015259,4,versionC_stim.csv,READ_JOLVersionD.csv,"READ Version D",OLD,STOMACH,DIGESTION,ON,B,7,76,JOL,User,-,"How likely are you to correctly recall the second item in the pair?|Type your response on a scale from 0-100 and then press Enter.",Study/JOL,"Study Phase2",9268,,,8038,8445,,,,85,0.766
5f02bbeb5ac5f8432d35fddd,yxwle2qyre,Emily_Honors_Thesis_Part_2,1,209,2020-07-17T14:40:36-07:00,8.568213224411,4,versionC_stim.csv,READ_JOLVersionD.csv,"READ Version D",OLD,STENCH,SMELL,ON,F,42,36,JOL,User,-,"How likely are you to correctly recall the second item in the pair?|Type your response on a scale from 0-100 and then press Enter.",Study/JOL,"Study Phase2",8011,,,5282,5682,,,,86,0.756
5f02bbeb5ac5f8432d35fddd,yxwle2qyre,Emily_Honors_Thesis_Part_2,1,210,2020-07-17T14:40:48-07:00,11.046680927277,4,versionC_stim.csv,READ_JOLVersionD.csv,"READ Version D",OLD,LIVER,KIDNEY,ON,S,53,71,JOL,User,-,"How likely are you to correctly recall the second item in the pair?|Type your response on a scale from 0-100 and then press Enter.",Study/JOL,"Study Phase2",10512,,,6836,8547,,,,91,0.698
5f02bbeb5ac5f8432d35fddd,yxwle2qyre,Emily_Honors_Thesis_Part_2,1,211,2020-07-17T14:40:55-07:00,7.2684638500214,4,versionC_stim.csv,READ_JOLVersionD.csv,"READ Version D",OLD,BELT,SOON,ON,U,70,44,JOL,User,-,"How likely are you to correctly recall the second item in the pair?|Type your response on a scale from 0-100 and then press Enter.",Study/JOL,"Study Phase2",6608,,,4077,4077,,,,0,0.697
5f02bbeb5ac5f8432d35fddd,yxwle2qyre,Emily_Honors_Thesis_Part_2,1,212,2020-07-17T14:41:05-07:00,10.461652040482,4,versionC_stim.csv,READ_JOLVersionD.csv,"READ Version D",OLD,CLEAN,HYGIENE,ON,B,17,31,JOL,User,-,"How likely are you to correctly recall the second item in the pair?|Type your response on a scale from 0-100 and then press Enter.",Study/JOL,"Study Phase2",9910,,,6637,7772,,,,72,0.76
5f02bbeb5ac5f8432d35fddd,yxwle2qyre,Emily_Honors_Thesis_Part_2,1,213,2020-07-17T14:41:13-07:00,7.5336880683899,4,versionC_stim.csv,READ_JOLVersionD.csv,"READ Version D",OLD,SODA,POP,ON,S,56,22,JOL,User,-,"How likely are you to correctly recall the second item in the pair?|Type your response on a scale from 0-100 and then press Enter.",Study/JOL,"Study Phase2",6974,,,4996,5195,,,,80,0.743
5f02bbeb5ac5f8432d35fddd,yxwle2qyre,Emily_Honors_Thesis_Part_2,1,214,2020-07-17T14:41:18-07:00,5.5811750888824,4,versionC_stim.csv,READ_JOLVersionD.csv,"READ Version D",OLD,BUSINESS,DEATH,ON,U,72,61,JOL,User,-,"How likely are you to correctly recall the second item in the pair?|Type your response on a scale from 0-100 and then press Enter.",Study/JOL,"Study Phase2",5035,,,4649,4649,,,,0,0.615
5f02bbeb5ac5f8432d35fddd,yxwle2qyre,Emily_Honors_Thesis_Part_2,1,215,2020-07-17T14:41:24-07:00,5.3919517993927,4,versionC_stim.csv,READ_JOLVersionD.csv,"READ Version D",OLD,RIDDLE,SUGAR,ON,U,81,30,JOL,User,-,"How likely are you to correctly recall the second item in the pair?|Type your response on a scale from 0-100 and then press Enter.",Study/JOL,"Study Phase2",4784,,,3542,3542,,,,0,0.667
5f02bbeb5ac5f8432d35fddd,yxwle2qyre,Emily_Honors_Thesis_Part_2,1,216,2020-07-17T14:41:39-07:00,15.654138088226,4,versionC_stim.csv,READ_JOLVersionD.csv,"READ Version D",OLD,ROUND,CIRCLE,ON,S,65,57,JOL,User,-,"How likely are you to correctly recall the second item in the pair?|Type your response on a scale from 0-100 and then press Enter.",Study/JOL,"Study Phase2",15105,,,12911,13607,,,,69,0.579
5f02bbeb5ac5f8432d35fddd,yxwle2qyre,Emily_Honors_Thesis_Part_2,1,217,2020-07-17T14:41:49-07:00,9.5603590011597,4,versionC_stim.csv,READ_JOLVersionD.csv,"READ Version D",OLD,WOULD,CASH,ON,U,83,43,JOL,User,-,"How likely are you to correctly recall the second item in the pair?|Type your response on a scale from 0-100 and then press Enter.",Study/JOL,"Study Phase2",7866,,,5933,5933,,,,0,0.725
5f02bbeb5ac5f8432d35fddd,yxwle2qyre,Emily_Honors_Thesis_Part_2,1,218,2020-07-17T14:41:59-07:00,9.5314569473267,4,versionC_stim.csv,READ_JOLVersionD.csv,"READ Version D",OLD,WIND,BLOW,ON,S,55,13,JOL,User,-,"How likely are you to correctly recall the second item in the pair?|Type your response on a scale from 0-100 and then press Enter.",Study/JOL,"Study Phase2",8956,,,4843,5138,,,,75,0.622
5f02bbeb5ac5f8432d35fddd,yxwle2qyre,Emily_Honors_Thesis_Part_2,1,219,2020-07-17T14:42:03-07:00,4.8752670288086,4,versionC_stim.csv,READ_JOLVersionD.csv,"READ Version D",OLD,BRONZE,ARTERY,ON,U,74,67,JOL,User,-,"How likely are you to correctly recall the second item in the pair?|Type your response on a scale from 0-100 and then press Enter.",Study/JOL,"Study Phase2",4294,,,1682,1682,,,,0,1
5f02bbeb5ac5f8432d35fddd,yxwle2qyre,Emily_Honors_Thesis_Part_2,1,220,2020-07-17T14:42:14-07:00,11.095550060272,4,versionC_stim.csv,READ_JOLVersionD.csv,"READ Version D",OLD,SIP,DRINK,ON,F,27,50,JOL,User,-,"How likely are you to correctly recall the second item in the pair?|Type your response on a scale from 0-100 and then press Enter.",Study/JOL,"Study Phase2",10555,,,7546,7714,,,,78,0.811
5f02bbeb5ac5f8432d35fddd,yxwle2qyre,Emily_Honors_Thesis_Part_2,1,221,2020-07-17T14:42:21-07:00,6.0892119407654,4,versionC_stim.csv,READ_JOLVersionD.csv,"READ Version D",OLD,SICK,HIDE,ON,U,84,83,JOL,User,-,"How likely are you to correctly recall the second item in the pair?|Type your response on a scale from 0-100 and then press Enter.",Study/JOL,"Study Phase2",5405,,,3755,3755,,,,0,0.679
5f02bbeb5ac5f8432d35fddd,yxwle2qyre,Emily_Honors_Thesis_Part_2,1,222,2020-07-17T14:42:31-07:00,10.17021894455,4,versionC_stim.csv,READ_JOLVersionD.csv,"READ Version D",OLD,COLD,BITTER,ON,B,12,15,JOL,User,-,"How likely are you to correctly recall the second item in the pair?|Type your response on a scale from 0-100 and then press Enter.",Study/JOL,"Study Phase2",9616,,,7195,7795,,,,30,0.776
5f02bbeb5ac5f8432d35fddd,yxwle2qyre,Emily_Honors_Thesis_Part_2,1,223,2020-07-17T14:42:41-07:00,10.345123052597,4,versionC_stim.csv,READ_JOLVersionD.csv,"READ Version D",OLD,HAND,FIX,ON,U,75,29,JOL,User,-,"How likely are you to correctly recall the second item in the pair?|Type your response on a scale from 0-100 and then press Enter.",Study/JOL,"Study Phase2",9740,,,7129,7280,,,,35,0.837
5f02bbeb5ac5f8432d35fddd,yxwle2qyre,Emily_Honors_Thesis_Part_2,1,224,2020-07-17T14:42:51-07:00,9.4845571517944,4,versionC_stim.csv,READ_JOLVersionD.csv,"READ Version D",OLD,NEWS,EDITOR,ON,B,10,60,JOL,User,-,"How likely are you to correctly recall the second item in the pair?|Type your response on a scale from 0-100 and then press Enter.",Study/JOL,"Study Phase2",8908,,,7852,8019,,,,55,0.8
5f02bbeb5ac5f8432d35fddd,yxwle2qyre,Emily_Honors_Thesis_Part_2,1,225,2020-07-17T14:43:13-07:00,22.803947925568,4,versionC_stim.csv,READ_JOLVersionD.csv,"READ Version D",OLD,ENOUGH,FULL,ON,F,26,85,JOL,User,-,"How likely are you to correctly recall the second item in the pair?|Type your response on a scale from 0-100 and then press Enter.",Study/JOL,"Study Phase2",22135,,,20768,20983,,,,50,0.919
5f02bbeb5ac5f8432d35fddd,yxwle2qyre,Emily_Honors_Thesis_Part_2,1,226,2020-07-17T14:43:20-07:00,7.0342168807983,4,versionC_stim.csv,READ_JOLVersionD.csv,"READ Version D",OLD,FOOT,SHOE,ON,S,60,68,JOL,User,-,"How likely are you to correctly recall the second item in the pair?|Type your response on a scale from 0-100 and then press Enter.",Study/JOL,"Study Phase2",6458,,,4519,4829,,,,68,0.727
5f02bbeb5ac5f8432d35fddd,yxwle2qyre,Emily_Honors_Thesis_Part_2,1,227,2020-07-17T14:43:28-07:00,7.5684931278229,4,versionC_stim.csv,READ_JOLVersionD.csv,"READ Version D",OLD,ACCIDENT,STRONG,ON,U,80,41,JOL,User,-,"How likely are you to correctly recall the second item in the pair?|Type your response on a scale from 0-100 and then press Enter.",Study/JOL,"Study Phase2",7003,,,6409,6409,,,,0,0.686
5f02bbeb5ac5f8432d35fddd,yxwle2qyre,Emily_Honors_Thesis_Part_2,1,228,2020-07-17T14:43:37-07:00,8.5243210792542,4,versionC_stim.csv,READ_JOLVersionD.csv,"READ Version D",OLD,LION,ART,ON,U,79,40,JOL,User,-,"How likely are you to correctly recall the second item in the pair?|Type your response on a scale from 0-100 and then press Enter.",Study/JOL,"Study Phase2",7989,,,5836,7124,,,,5,0.8
5f02bbeb5ac5f8432d35fddd,yxwle2qyre,Emily_Honors_Thesis_Part_2,1,229,2020-07-17T14:43:43-07:00,6.6891977787018,4,versionC_stim.csv,READ_JOLVersionD.csv,"READ Version D",OLD,FISH,TUNA,ON,B,25,72,JOL,User,-,"How likely are you to correctly recall the second item in the pair?|Type your response on a scale from 0-100 and then press Enter.",Study/JOL,"Study Phase2",6138,,,5608,5759,,,,90,0.71
5f02bbeb5ac5f8432d35fddd,yxwle2qyre,Emily_Honors_Thesis_Part_2,1,230,2020-07-17T14:43:50-07:00,6.3155400753021,4,versionC_stim.csv,READ_JOLVersionD.csv,"READ Version D",OLD,BEE,HONEY,ON,S,63,73,JOL,User,-,"How likely are you to correctly recall the second item in the pair?|Type your response on a scale from 0-100 and then press Enter.",Study/JOL,"Study Phase2",5756,,,5024,5375,,,,95,0.724
5f02bbeb5ac5f8432d35fddd,yxwle2qyre,Emily_Honors_Thesis_Part_2,1,231,2020-07-17T14:43:57-07:00,7.1526119709015,4,versionC_stim.csv,READ_JOLVersionD.csv,"READ Version D",OLD,POSITION,MACHINE,ON,U,76,66,JOL,User,-,"How likely are you to correctly recall the second item in the pair?|Type your response on a scale from 0-100 and then press Enter.",Study/JOL,"Study Phase2",6603,,,5875,6002,,,,10,0.848
5f02bbeb5ac5f8432d35fddd,yxwle2qyre,Emily_Honors_Thesis_Part_2,1,232,2020-07-17T14:46:15-07:00,138.45028805733,4,versionC_stim.csv,READ_JOLVersionD.csv,"READ Version D",OLD,PLANT,ROOT,ON,B,13,75,JOL,User,-,"How likely are you to correctly recall the second item in the pair?|Type your response on a scale from 0-100 and then press Enter.",Study/JOL,"Study Phase2",137846,,,129683,129890,,,,80,0.136
5f02bbeb5ac5f8432d35fddd,yxwle2qyre,Emily_Honors_Thesis_Part_2,1,233,2020-07-17T14:46:21-07:00,5.7450389862061,4,versionC_stim.csv,READ_JOLVersionD.csv,"READ Version D",OLD,SACKING,DIETARY,ON,U,67,78,JOL,User,-,"How likely are you to correctly recall the second item in the pair?|Type your response on a scale from 0-100 and then press Enter.",Study/JOL,"Study Phase2",5065,,,4155,4346,,,,10,1
5f02bbeb5ac5f8432d35fddd,yxwle2qyre,Emily_Honors_Thesis_Part_2,1,234,2020-07-17T14:46:27-07:00,6.3589959144592,4,versionC_stim.csv,READ_JOLVersionD.csv,"READ Version D",OLD,WASP,BUG,ON,F,32,51,JOL,User,-,"How likely are you to correctly recall the second item in the pair?|Type your response on a scale from 0-100 and then press Enter.",Study/JOL,"Study Phase2",5737,,,5202,5378,,,,50,0.621
5f02bbeb5ac5f8432d35fddd,yxwle2qyre,Emily_Honors_Thesis_Part_2,1,235,2020-07-17T14:46:36-07:00,8.6470530033112,4,versionC_stim.csv,READ_JOLVersionD.csv,"READ Version D",OLD,DROWSY,SLEEP,ON,F,41,42,JOL,User,-,"How likely are you to correctly recall the second item in the pair?|Type your response on a scale from 0-100 and then press Enter.",Study/JOL,"Study Phase2",8099,,,7522,7618,,,,80,0.683
5f02bbeb5ac5f8432d35fddd,yxwle2qyre,Emily_Honors_Thesis_Part_2,1,236,2020-07-17T14:46:42-07:00,6.2788491249084,4,versionC_stim.csv,READ_JOLVersionD.csv,"READ Version D",OLD,ADD,VALLEY,ON,U,82,14,JOL,User,-,"How likely are you to correctly recall the second item in the pair?|Type your response on a scale from 0-100 and then press Enter.",Study/JOL,"Study Phase2",5733,,,5295,5295,,,,5,0.655
5f02bbeb5ac5f8432d35fddd,yxwle2qyre,Emily_Honors_Thesis_Part_2,1,237,2020-07-17T14:46:52-07:00,9.460216999054,4,versionC_stim.csv,READ_JOLVersionD.csv,"READ Version D",OLD,COW,HERD,ON,B,22,10,JOL,User,-,"How likely are you to correctly recall the second item in the pair?|Type your response on a scale from 0-100 and then press Enter.",Study/JOL,"Study Phase2",8860,,,5812,8115,,,,65,0.667
5f02bbeb5ac5f8432d35fddd,yxwle2qyre,Emily_Honors_Thesis_Part_2,1,238,2020-07-17T14:46:58-07:00,6.1539340019226,4,versionC_stim.csv,READ_JOLVersionD.csv,"READ Version D",OLD,JURY,TRIAL,ON,S,50,27,JOL,User,-,"How likely are you to correctly recall the second item in the pair?|Type your response on a scale from 0-100 and then press Enter.",Study/JOL,"Study Phase2",5552,,,5004,5154,,,,80,0.643
5f02bbeb5ac5f8432d35fddd,yxwle2qyre,Emily_Honors_Thesis_Part_2,1,239,2020-07-17T14:47:06-07:00,8.5147058963776,4,versionC_stim.csv,READ_JOLVersionD.csv,"READ Version D",OLD,TUCK,ALLOW,ON,U,78,33,JOL,User,-,"How likely are you to correctly recall the second item in the pair?|Type your response on a scale from 0-100 and then press Enter.",Study/JOL,"Study Phase2",7973,,,7392,7560,,,,10,0.725
5f02bbeb5ac5f8432d35fddd,yxwle2qyre,Emily_Honors_Thesis_Part_2,1,240,2020-07-17T14:47:15-07:00,9.0721900463104,4,versionC_stim.csv,READ_JOLVersionD.csv,"READ Version D",OLD,DOG,PAW,ON,B,15,84,JOL,User,-,"How likely are you to correctly recall the second item in the pair?|Type your response on a scale from 0-100 and then press Enter.",Study/JOL,"Study Phase2",8500,,,7420,7708,,,,15,0.814
5f02bbeb5ac5f8432d35fddd,yxwle2qyre,Emily_Honors_Thesis_Part_2,1,241,2020-07-17T14:47:21-07:00,5.6737279891968,4,versionC_stim.csv,READ_JOLVersionD.csv,"READ Version D",OLD,LATCH,KEY,ON,F,36,20,JOL,User,-,"How likely are you to correctly recall the second item in the pair?|Type your response on a scale from 0-100 and then press Enter.",Study/JOL,"Study Phase2",5116,,,4701,4701,,,,5,0.692
5f02bbeb5ac5f8432d35fddd,yxwle2qyre,Emily_Honors_Thesis_Part_2,1,242,2020-07-17T14:47:29-07:00,8.369441986084,4,versionC_stim.csv,READ_JOLVersionD.csv,"READ Version D",OLD,FLOWER,ORCHID,ON,B,24,35,JOL,User,-,"How likely are you to correctly recall the second item in the pair?|Type your response on a scale from 0-100 and then press Enter.",Study/JOL,"Study Phase2",7782,,,6968,7136,,,,50,0.769
5f02bbeb5ac5f8432d35fddd,yxwle2qyre,Emily_Honors_Thesis_Part_2,1,243,2020-07-17T14:47:36-07:00,6.408303976059,4,versionC_stim.csv,READ_JOLVersionD.csv,"READ Version D",OLD,MONEY,WAGE,ON,B,8,77,JOL,User,-,"How likely are you to correctly recall the second item in the pair?|Type your response on a scale from 0-100 and then press Enter.",Study/JOL,"Study Phase2",5825,,,5350,5350,,,,0,0.7
5f02bbeb5ac5f8432d35fddd,yxwle2qyre,Emily_Honors_Thesis_Part_2,1,244,2020-07-17T14:47:58-07:00,21.729995012283,4,versionC_stim.csv,READ_JOLVersionD.csv,"READ Version D",OLD,AMOUNT,NUMBER,ON,S,47,48,JOL,User,-,"How likely are you to correctly recall the second item in the pair?|Type your response on a scale from 0-100 and then press Enter.",Study/JOL,"Study Phase2",21157,,,17484,17611,,,,80,0.679
5f02bbeb5ac5f8432d35fddd,yxwle2qyre,Emily_Honors_Thesis_Part_2,1,245,2020-07-17T14:48:05-07:00,7.267352104187,4,versionC_stim.csv,READ_JOLVersionD.csv,"READ Version D",OLD,CHILD,BABY,ON,S,64,47,JOL,User,-,"How likely are you to correctly recall the second item in the pair?|Type your response on a scale from 0-100 and then press Enter.",Study/JOL,"Study Phase2",6617,,,4345,4578,,,,95,0.676
5f02bbeb5ac5f8432d35fddd,yxwle2qyre,Emily_Honors_Thesis_Part_2,1,246,2020-07-17T14:48:13-07:00,8.3300828933716,4,versionC_stim.csv,READ_JOLVersionD.csv,"READ Version D",OLD,HAMMER,CHISEL,ON,B,9,45,JOL,User,-,"How likely are you to correctly recall the second item in the pair?|Type your response on a scale from 0-100 and then press Enter.",Study/JOL,"Study Phase2",7800,,,5739,5875,,,,10,0.744
5f02bbeb5ac5f8432d35fddd,yxwle2qyre,Emily_Honors_Thesis_Part_2,1,247,2020-07-17T14:48:21-07:00,7.6287050247192,4,versionC_stim.csv,READ_JOLVersionD.csv,"READ Version D",OLD,VASE,KING,ON,U,85,52,JOL,User,-,"How likely are you to correctly recall the second item in the pair?|Type your response on a scale from 0-100 and then press Enter.",Study/JOL,"Study Phase2",7065,,,6372,6372,,,,5,0.694
5f02bbeb5ac5f8432d35fddd,yxwle2qyre,Emily_Honors_Thesis_Part_2,1,248,2020-07-17T14:48:30-07:00,9.4377751350403,4,versionC_stim.csv,READ_JOLVersionD.csv,"READ Version D",OLD,WASTE,DUMP,ON,S,49,17,JOL,User,-,"How likely are you to correctly recall the second item in the pair?|Type your response on a scale from 0-100 and then press Enter.",Study/JOL,"Study Phase2",8871,,,4209,4408,,,,85,0.667
5f02bbeb5ac5f8432d35fddd,yxwle2qyre,Emily_Honors_Thesis_Part_2,1,249,2020-07-17T14:48:35-07:00,5.0791249275208,4,versionC_stim.csv,READ_JOLVersionD.csv,"READ Version D",OLD,CAR,HAPPY,ON,U,77,11,JOL,User,-,"How likely are you to correctly recall the second item in the pair?|Type your response on a scale from 0-100 and then press Enter.",Study/JOL,"Study Phase2",4455,,,3800,3800,,,,5,1
5f02bbeb5ac5f8432d35fddd,yxwle2qyre,Emily_Honors_Thesis_Part_2,1,250,2020-07-17T14:48:43-07:00,8.0723950862885,4,versionC_stim.csv,READ_JOLVersionD.csv,"READ Version D",OLD,CHEESE,WINE,ON,S,57,49,JOL,User,-,"How likely are you to correctly recall the second item in the pair?|Type your response on a scale from 0-100 and then press Enter.",Study/JOL,"Study Phase2",7533,,,5303,6815,,,,10,0.816
5f02bbeb5ac5f8432d35fddd,yxwle2qyre,Emily_Honors_Thesis_Part_2,1,251,2020-07-17T14:48:53-07:00,9.1981289386749,4,versionC_stim.csv,READ_JOLVersionD.csv,"READ Version D",OLD,CHILI,HOT,ON,F,37,26,JOL,User,-,"How likely are you to correctly recall the second item in the pair?|Type your response on a scale from 0-100 and then press Enter.",Study/JOL,"Study Phase2",8661,,,6586,7906,,,,96,0.727
5f02bbeb5ac5f8432d35fddd,yxwle2qyre,Emily_Honors_Thesis_Part_2,1,252,2020-07-17T14:49:02-07:00,9.2490520477295,4,versionC_stim.csv,READ_JOLVersionD.csv,"READ Version D",OLD,WORD,SENTENCE,ON,F,31,62,JOL,User,-,"How likely are you to correctly recall the second item in the pair?|Type your response on a scale from 0-100 and then press Enter.",Study/JOL,"Study Phase2",8690,,,7321,7545,,,,85,0.636
5f02bbeb5ac5f8432d35fddd,yxwle2qyre,Emily_Honors_Thesis_Part_2,1,253,2020-07-17T14:49:11-07:00,9.1011879444122,4,versionC_stim.csv,READ_JOLVersionD.csv,"READ Version D",OLD,SALAD,LETTUCE,ON,S,59,64,JOL,User,-,"How likely are you to correctly recall the second item in the pair?|Type your response on a scale from 0-100 and then press Enter.",Study/JOL,"Study Phase2",8526,,,6003,6347,,,,80,0.512
5f02bbeb5ac5f8432d35fddd,yxwle2qyre,Emily_Honors_Thesis_Part_2,1,254,2020-07-17T14:49:19-07:00,8.3523540496826,4,versionC_stim.csv,READ_JOLVersionD.csv,"READ Version D",OLD,GROWTH,HEIGHT,ON,F,30,9,JOL,User,-,"How likely are you to correctly recall the second item in the pair?|Type your response on a scale from 0-100 and then press Enter.",Study/JOL,"Study Phase2",7807,,,5634,5770,,,,65,0.775
5f02bbeb5ac5f8432d35fddd,yxwle2qyre,Emily_Honors_Thesis_Part_2,1,255,2020-07-17T14:49:31-07:00,12.065346956253,4,versionC_stim.csv,READ_JOLVersionD.csv,"READ Version D",OLD,RACKET,BALL,ON,F,38,8,JOL,User,-,"How likely are you to correctly recall the second item in the pair?|Type your response on a scale from 0-100 and then press Enter.",Study/JOL,"Study Phase2",11509,,,6769,9074,,,,55,0.793
5f02bbeb5ac5f8432d35fddd,yxwle2qyre,Emily_Honors_Thesis_Part_2,1,256,2020-07-17T14:49:39-07:00,7.9696109294891,4,versionC_stim.csv,READ_JOLVersionD.csv,"READ Version D",OLD,ROCK,GEOLOGY,ON,B,19,80,JOL,User,-,"How likely are you to correctly recall the second item in the pair?|Type your response on a scale from 0-100 and then press Enter.",Study/JOL,"Study Phase2",7331,,,6367,6631,,,,30,0.784
5f02bbeb5ac5f8432d35fddd,yxwle2qyre,Emily_Honors_Thesis_Part_2,1,257,2020-07-17T14:49:50-07:00,11.207307100296,4,versionC_stim.csv,READ_JOLVersionD.csv,"READ Version D",OLD,CAVE,DARK,ON,F,28,79,JOL,User,-,"How likely are you to correctly recall the second item in the pair?|Type your response on a scale from 0-100 and then press Enter.",Study/JOL,"Study Phase2",10640,,,8797,8908,,,,45,0.852
5f02bbeb5ac5f8432d35fddd,yxwle2qyre,Emily_Honors_Thesis_Part_2,1,258,2020-07-17T14:49:58-07:00,7.3214688301086,4,versionC_stim.csv,READ_JOLVersionD.csv,"READ Version D",OLD,STING,HORNET,ON,B,11,25,JOL,User,-,"How likely are you to correctly recall the second item in the pair?|Type your response on a scale from 0-100 and then press Enter.",Study/JOL,"Study Phase2",6711,,,6052,6196,,,,45,0.765
5f02bbeb5ac5f8432d35fddd,yxwle2qyre,Emily_Honors_Thesis_Part_2,1,259,2020-07-17T14:50:07-07:00,9.231899023056,4,versionC_stim.csv,READ_JOLVersionD.csv,"READ Version D",OLD,FLOOR,DISCOVER,ON,U,71,21,JOL,User,-,"How likely are you to correctly recall the second item in the pair?|Type your response on a scale from 0-100 and then press Enter.",Study/JOL,"Study Phase2",8681,,,8034,8234,,,,15,0.841
5f02bbeb5ac5f8432d35fddd,yxwle2qyre,Emily_Honors_Thesis_Part_2,1,260,2020-07-17T14:50:17-07:00,10.129776000977,4,versionC_stim.csv,READ_JOLVersionD.csv,"READ Version D",OLD,HUNGRY,PARK,ON,U,68,82,JOL,User,-,"How likely are you to correctly recall the second item in the pair?|Type your response on a scale from 0-100 and then press Enter.",Study/JOL,"Study Phase2",9568,,,8493,8765,,,,10,0.813
5f02bbeb5ac5f8432d35fddd,yxwle2qyre,Emily_Honors_Thesis_Part_2,1,261,2020-07-17T14:50:27-07:00,10.317591190338,4,versionC_stim.csv,READ_JOLVersionD.csv,"READ Version D",OLD,TOILET,BATHROOM,ON,S,58,24,JOL,User,-,"How likely are you to correctly recall the second item in the pair?|Type your response on a scale from 0-100 and then press Enter.",Study/JOL,"Study Phase2",9734,,,4876,6940,,,,95,0.837
5f02bbeb5ac5f8432d35fddd,yxwle2qyre,Emily_Honors_Thesis_Part_2,1,262,2020-07-17T14:50:43-07:00,15.818339824677,4,versionC_stim.csv,READ_JOLVersionD.csv,"READ Version D",OLD,FANTASTIC,GREAT,ON,F,35,32,JOL,User,-,"How likely are you to correctly recall the second item in the pair?|Type your response on a scale from 0-100 and then press Enter.",Study/JOL,"Study Phase2",15241,,,10571,10690,,,,80,0.846
5f02bbeb5ac5f8432d35fddd,yxwle2qyre,Emily_Honors_Thesis_Part_2,1,263,2020-07-17T14:50:52-07:00,8.3865520954132,4,versionC_stim.csv,READ_JOLVersionD.csv,"READ Version D",OLD,OUT,WAY,ON,B,16,37,JOL,User,-,"How likely are you to correctly recall the second item in the pair?|Type your response on a scale from 0-100 and then press Enter.",Study/JOL,"Study Phase2",7806,,,5656,5967,,,,70,0.775
5f02bbeb5ac5f8432d35fddd,yxwle2qyre,Emily_Honors_Thesis_Part_2,1,264,2020-07-17T14:50:58-07:00,5.8404219150543,4,versionC_stim.csv,READ_JOLVersionD.csv,"READ Version D",OLD,SITE,LOCATION,ON,S,48,56,JOL,User,-,"How likely are you to correctly recall the second item in the pair?|Type your response on a scale from 0-100 and then press Enter.",Study/JOL,"Study Phase2",5296,,,4781,4964,,,,90,0.704
5f02bbeb5ac5f8432d35fddd,yxwle2qyre,Emily_Honors_Thesis_Part_2,1,265,2020-07-17T14:51:08-07:00,10.62157702446,4,versionC_stim.csv,READ_JOLVersionD.csv,"READ Version D",OLD,END,BEGIN,ON,S,54,28,JOL,User,-,"How likely are you to correctly recall the second item in the pair?|Type your response on a scale from 0-100 and then press Enter.",Study/JOL,"Study Phase2",10050,,,7797,8117,,,,75,0.824
5f02bbeb5ac5f8432d35fddd,yxwle2qyre,Emily_Honors_Thesis_Part_2,1,266,2020-07-17T14:51:20-07:00,11.447082996368,4,versionC_stim.csv,READ_JOLVersionD.csv,"READ Version D",OLD,SIGHT,DEBATE,ON,U,73,69,JOL,User,-,"How likely are you to correctly recall the second item in the pair?|Type your response on a scale from 0-100 and then press Enter.",Study/JOL,"Study Phase2",10866,,,9948,10059,,,,10,0.873
5f02bbeb5ac5f8432d35fddd,yxwle2qyre,Emily_Honors_Thesis_Part_2,1,267,2020-07-17T14:51:26-07:00,5.9979701042175,4,versionC_stim.csv,READ_JOLVersionD.csv,"READ Version D",OLD,BLAZE,FIRE,ON,F,45,58,JOL,User,-,"How likely are you to correctly recall the second item in the pair?|Type your response on a scale from 0-100 and then press Enter.",Study/JOL,"Study Phase2",5366,,,4572,4747,,,,60,0.63
5f02bbeb5ac5f8432d35fddd,yxwle2qyre,Emily_Honors_Thesis_Part_2,1,268,2020-07-17T14:51:35-07:00,9.6885738372803,4,versionC_stim.csv,READ_JOLVersionD.csv,"READ Version D",OLD,DESIGN,ARCHITECTURE,ON,S,51,63,JOL,User,-,"How likely are you to correctly recall the second item in the pair?|Type your response on a scale from 0-100 and then press Enter.",Study/JOL,"Study Phase2",9105,,,8383,8502,,,,80,0.848
5f02bbeb5ac5f8432d35fddd,yxwle2qyre,Emily_Honors_Thesis_Part_2,1,269,2020-07-17T14:51:47-07:00,11.962139129639,4,versionC_stim.csv,READ_JOLVersionD.csv,"READ Version D",OLD,DEFINITION,MEANING,ON,S,62,81,JOL,User,-,"How likely are you to correctly recall the second item in the pair?|Type your response on a scale from 0-100 and then press Enter.",Study/JOL,"Study Phase2",11364,,,9714,10633,,,,85,0.842
5f02bbeb5ac5f8432d35fddd,yxwle2qyre,Emily_Honors_Thesis_Part_2,1,270,2020-07-17T14:51:59-07:00,11.365026950836,4,versionC_stim.csv,READ_JOLVersionD.csv,"READ Version D",OLD,FAMINE,HUNGER,ON,F,40,18,JOL,User,-,"How likely are you to correctly recall the second item in the pair?|Type your response on a scale from 0-100 and then press Enter.",Study/JOL,"Study Phase2",10764,,,9702,9926,,,,72,0.87
5f02bbeb5ac5f8432d35fddd,yxwle2qyre,Emily_Honors_Thesis_Part_2,1,271,2020-07-17T14:52:07-07:00,8.66544008255,4,versionC_stim.csv,READ_JOLVersionD.csv,"READ Version D",OLD,CLUTTER,PUSHER,ON,U,66,38,JOL,User,-,"How likely are you to correctly recall the second item in the pair?|Type your response on a scale from 0-100 and then press Enter.",Study/JOL,"Study Phase2",7957,,,7001,7161,,,,10,0.6
5f02bbeb5ac5f8432d35fddd,yxwle2qyre,Emily_Honors_Thesis_Part_2,1,272,2020-07-17T14:52:14-07:00,7.024936914444,4,versionC_stim.csv,READ_JOLVersionD.csv,"READ Version D",OLD,WAR,REVOLUTION,ON,B,20,53,JOL,User,-,"How likely are you to correctly recall the second item in the pair?|Type your response on a scale from 0-100 and then press Enter.",Study/JOL,"Study Phase2",6467,,,5697,6025,,,,70,0.697
5f02bbeb5ac5f8432d35fddd,yxwle2qyre,Emily_Honors_Thesis_Part_2,1,273,2020-07-17T14:52:35-07:00,20.732877016068,4,versionC_stim.csv,READ_JOLVersionD.csv,"READ Version D",OLD,CHORE,WORK,ON,F,39,54,JOL,User,-,"How likely are you to correctly recall the second item in the pair?|Type your response on a scale from 0-100 and then press Enter.",Study/JOL,"Study Phase2",20135,,,17898,18049,,,,55,0.911
5f02bbeb5ac5f8432d35fddd,yxwle2qyre,Emily_Honors_Thesis_Part_2,1,274,2020-07-17T14:52:42-07:00,6.5068030357361,4,versionC_stim.csv,READ_JOLVersionD.csv,"READ Version D",OLD,BAD,DELINQUENT,ON,B,6,74,JOL,User,-,"How likely are you to correctly recall the second item in the pair?|Type your response on a scale from 0-100 and then press Enter.",Study/JOL,"Study Phase2",5900,,,5075,5177,,,,35,1
5f02bbeb5ac5f8432d35fddd,yxwle2qyre,Emily_Honors_Thesis_Part_2,1,275,2020-07-17T14:52:55-07:00,13.012145042419,4,versionC_stim.csv,READ_JOLVersionD.csv,"READ Version D",OLD,BAR,GRILL,ON,S,52,55,JOL,User,-,"How likely are you to correctly recall the second item in the pair?|Type your response on a scale from 0-100 and then press Enter.",Study/JOL,"Study Phase2",12469,,,11792,11919,,,,50,0.635
5f02bbeb5ac5f8432d35fddd,yxwle2qyre,Emily_Honors_Thesis_Part_2,1,276,2020-07-17T14:53:02-07:00,7.6926050186157,4,versionC_stim.csv,READ_JOLVersionD.csv,"READ Version D",OLD,WATER,BRIDGE,ON,B,18,46,JOL,User,-,"How likely are you to correctly recall the second item in the pair?|Type your response on a scale from 0-100 and then press Enter.",Study/JOL,"Study Phase2",6926,,,6047,6255,,,,55,0.629
5f02bbeb5ac5f8432d35fddd,yxwle2qyre,Emily_Honors_Thesis_Part_2,1,277,2020-07-17T14:53:10-07:00,7.3706958293915,4,versionC_stim.csv,READ_JOLVersionD.csv,"READ Version D",OLD,DIVISION,MATH,ON,F,33,39,JOL,User,-,"How likely are you to correctly recall the second item in the pair?|Type your response on a scale from 0-100 and then press Enter.",Study/JOL,"Study Phase2",6803,,,6167,6286,,,,80,0.471
5f02bbeb5ac5f8432d35fddd,yxwle2qyre,Emily_Honors_Thesis_Part_2,1,278,2020-07-17T14:53:15-07:00,5.077574968338,4,versionC_stim.csv,READ_JOLVersionD.csv,"READ Version D",OLD,GOOSE,GEESE,Buffer2,Buffer,86,90,JOL,User,-,"How likely are you to correctly recall the second item in the pair?|Type your response on a scale from 0-100 and then press Enter.",Study/JOL,BUFFER4,4542,,,4101,4253,,,,10,0.652
