"Username","Trial","Condition.Number","Condition.Description","Condition.Notes","Stimuli.Cue","Stimuli.Answer","Stimuli.Shuffle","Stimuli.Stimuli.Notes","Procedure.Trial.Type","Procedure.Shuffle","Response.RT","Response.Response","Response.JOL"
"488672",24,22,"BACKWARD RL VERSION B","NEW","LITTER","TRASH","ON2","F","JOL","Study Phase",4762,"","52"
"488672",25,22,"BACKWARD RL VERSION B","NEW","STRETCH","CLOTH","ON2","U","JOL","Study Phase",9845,"","30"
"488672",26,22,"BACKWARD RL VERSION B","NEW","PHONE","COMMUNICATION","ON2","S","JOL","Study Phase",5473,"","40"
"488672",27,22,"BACKWARD RL VERSION B","NEW","AFFECTION","LOVE","ON2","F","JOL","Study Phase",6571,"","65"
"488672",28,22,"BACKWARD RL VERSION B","NEW","KEYS","JOKE","ON2","U","JOL","Study Phase",3227,"","2"
"488672",29,22,"BACKWARD RL VERSION B","NEW","CANDLE","WAX","ON2","S","JOL","Study Phase",3958,"","50"
"488672",30,22,"BACKWARD RL VERSION B","NEW","FISH","SARDINE","ON2","B","JOL","Study Phase",4165,"","32"
"488672",31,22,"BACKWARD RL VERSION B","NEW","FRUIT","STRAWBERRY","ON2","B","JOL","Study Phase",5998,"","40"
"488672",32,22,"BACKWARD RL VERSION B","NEW","TANTRUM","TEMPER","ON2","S","JOL","Study Phase",7285,"","59"
"488672",33,22,"BACKWARD RL VERSION B","NEW","MASON","JAR","ON2","S","JOL","Study Phase",5106,"","70"
"488672",34,22,"BACKWARD RL VERSION B","NEW","ELEMENT","CARBON","ON2","S","JOL","Study Phase",4390,"","55"
"488672",35,22,"BACKWARD RL VERSION B","NEW","GLASS","BREAKABLE","ON2","B","JOL","Study Phase",3561,"","22"
"488672",36,22,"BACKWARD RL VERSION B","NEW","CLUE","GAME","ON2","F","JOL","Study Phase",5640,"","13"
"488672",37,22,"BACKWARD RL VERSION B","NEW","MAZE","ELECTION","ON2","U","JOL","Study Phase",4569,"","33"
"488672",38,22,"BACKWARD RL VERSION B","NEW","FIGHT","BRAWL","ON2","B","JOL","Study Phase",6793,"","23"
"488672",39,22,"BACKWARD RL VERSION B","NEW","FEUD","FIGHT","ON2","F","JOL","Study Phase",4164,"","34"
"488672",40,22,"BACKWARD RL VERSION B","NEW","CAKE","CLOTHES","ON2","U","JOL","Study Phase",3438,"","2"
"488672",41,22,"BACKWARD RL VERSION B","NEW","CHOP","CUT","ON2","F","JOL","Study Phase",3598,"","32"
"488672",42,22,"BACKWARD RL VERSION B","NEW","LOUD","NOISE","ON2","S","JOL","Study Phase",4543,"","43"
"488672",43,22,"BACKWARD RL VERSION B","NEW","WRIST","BRACELET","ON2","S","JOL","Study Phase",3302,"","33"
"488672",44,22,"BACKWARD RL VERSION B","NEW","CRACKLE","ABLE","ON2","U","JOL","Study Phase",6361,"","12"
"488672",45,22,"BACKWARD RL VERSION B","NEW","LISTEN","FICTION","ON2","U","JOL","Study Phase",2661,"","3"
"488672",46,22,"BACKWARD RL VERSION B","NEW","THREAD","THIMBLE","ON2","B","JOL","Study Phase",4331,"","32"
"488672",47,22,"BACKWARD RL VERSION B","NEW","CAT","PANTHER","ON2","B","JOL","Study Phase",6059,"","23"
"488672",48,22,"BACKWARD RL VERSION B","NEW","MIRROR","CHILDREN","ON2","U","JOL","Study Phase",4409,"","31"
"488672",49,22,"BACKWARD RL VERSION B","NEW","WATER","DRINK","ON2","S","JOL","Study Phase",4048,"","42"
"488672",50,22,"BACKWARD RL VERSION B","NEW","SCALP","HEAD","ON2","F","JOL","Study Phase",3064,"","21"
"488672",51,22,"BACKWARD RL VERSION B","NEW","TEMPERATURE","MORNING","ON2","U","JOL","Study Phase",4149,"","31"
"488672",52,22,"BACKWARD RL VERSION B","NEW","MOAT","CLEAR","ON2","U","JOL","Study Phase",5005,"","35"
"488672",53,22,"BACKWARD RL VERSION B","NEW","GONE","AWAY","ON2","S","JOL","Study Phase",3271,"","43"
"488672",54,22,"BACKWARD RL VERSION B","NEW","INCENSE","SMELL","ON2","F","JOL","Study Phase",3372,"","32"
"488672",55,22,"BACKWARD RL VERSION B","NEW","BEST","FAVORITE","ON2","B","JOL","Study Phase",4155,"","21"
"488672",56,22,"BACKWARD RL VERSION B","NEW","PLANE","AIRCRAFT","ON2","B","JOL","Study Phase",3034,"","54"
"488672",57,22,"BACKWARD RL VERSION B","NEW","DOCUMENT","PAPER","ON2","F","JOL","Study Phase",3438,"","21"
"488672",58,22,"BACKWARD RL VERSION B","NEW","EVEN","REVENGE","ON2","B","JOL","Study Phase",4719,"","43"
"488672",60,22,"BACKWARD RL VERSION B","NEW","EXTENSION","LONG","ON2","F","JOL","Study Phase",10375,"","21"
"488672",61,22,"BACKWARD RL VERSION B","NEW","ADJOURN","END","ON2","F","JOL","Study Phase",3131,"","3"
"488672",62,22,"BACKWARD RL VERSION B","NEW","MAIN","SCAR","ON2","U","JOL","Study Phase",3268,"","4"
"488672",63,22,"BACKWARD RL VERSION B","NEW","FURRY","DOG","ON2","F","JOL","Study Phase",6260,"","34"
"488672",64,22,"BACKWARD RL VERSION B","NEW","NAME","HATE","ON2","U","JOL","Study Phase",4271,"","5"
"488672",65,22,"BACKWARD RL VERSION B","NEW","SHELL","SHAKE","ON2","U","JOL","Study Phase",3938,"","32"
"488672",66,22,"BACKWARD RL VERSION B","NEW","FLEA","TICK","ON2","S","JOL","Study Phase",4996,"","32"
"488672",67,22,"BACKWARD RL VERSION B","NEW","ROD","REEL","ON2","S","JOL","Study Phase",4843,"","1"
"488672",68,22,"BACKWARD RL VERSION B","NEW","MONEY","BANKER","ON2","B","JOL","Study Phase",6499,"","24"
"488672",69,22,"BACKWARD RL VERSION B","NEW","LEASE","TOIL","ON2","U","JOL","Study Phase",4296,"","2"
"488672",70,22,"BACKWARD RL VERSION B","NEW","POP","BALLOON","ON2","B","JOL","Study Phase",3512,"","43"
"488672",71,22,"BACKWARD RL VERSION B","NEW","EARTH","GROUND","ON2","S","JOL","Study Phase",3070,"","32"
"488672",72,22,"BACKWARD RL VERSION B","NEW","FUZZY","BANG","ON2","U","JOL","Study Phase",4252,"","2"
"488672",73,22,"BACKWARD RL VERSION B","NEW","CACTUS","PLANT","ON2","F","JOL","Study Phase",6973,"","23"
"488672",74,22,"BACKWARD RL VERSION B","NEW","RIGHTS","EQUAL","ON2","S","JOL","Study Phase",4844,"","44"
"488672",75,22,"BACKWARD RL VERSION B","NEW","BASEBALL","LEAGUE","ON2","B","JOL","Study Phase",2794,"","32"
"488672",76,22,"BACKWARD RL VERSION B","NEW","DEAD","COFFIN","ON2","B","JOL","Study Phase",6673,"","36"
"488672",77,22,"BACKWARD RL VERSION B","NEW","MEAT","OBTAIN","ON2","U","JOL","Study Phase",5323,"","27"
"488672",78,22,"BACKWARD RL VERSION B","NEW","TURN","FLIP","ON2","B","JOL","Study Phase",3238,"","32"
"488672",79,22,"BACKWARD RL VERSION B","NEW","GIVE","STEAK","ON2","U","JOL","Study Phase",6961,"","14"
"488672",80,22,"BACKWARD RL VERSION B","NEW","CHERRY","RED","ON2","F","JOL","Study Phase",2514,"","23"
"488672",81,22,"BACKWARD RL VERSION B","NEW","BAD","VILLAIN","ON2","B","JOL","Study Phase",4039,"","35"
"488672",82,22,"BACKWARD RL VERSION B","NEW","HONEST","TRUTHFUL","ON2","B","JOL","Study Phase",3138,"","42"
"488672",83,22,"BACKWARD RL VERSION B","NEW","DRY","WET","ON2","S","JOL","Study Phase",3221,"","42"
"488672",84,22,"BACKWARD RL VERSION B","NEW","RAZOR","SHAVE","ON2","S","JOL","Study Phase",4359,"","39"
"488672",85,22,"BACKWARD RL VERSION B","NEW","CAR","WINDSHIELD","ON2","B","JOL","Study Phase",4374,"","21"
"488672",86,22,"BACKWARD RL VERSION B","NEW","CHILL","COLD","ON2","F","JOL","Study Phase",5546,"","34"
"488672",87,22,"BACKWARD RL VERSION B","NEW","OWN","HAVE","ON2","S","JOL","Study Phase",4453,"","31"
"488672",88,22,"BACKWARD RL VERSION B","NEW","SUN","TAN","ON2","S","JOL","Study Phase",4181,"","41"
"488672",89,22,"BACKWARD RL VERSION B","NEW","SHEARS","SCISSORS","ON2","F","JOL","Study Phase",3119,"","13"
"488672",90,22,"BACKWARD RL VERSION B","NEW","ALONE","LONELY","ON2","S","JOL","Study Phase",3775,"","35"
"488672",91,22,"BACKWARD RL VERSION B","NEW","JUSTICE","MAROON","ON2","U","JOL","Study Phase",3460,"","23"
"488672",92,22,"BACKWARD RL VERSION B","NEW","TRUTH","LIE","ON2","S","JOL","Study Phase",3193,"","45"
"488672",93,22,"BACKWARD RL VERSION B","NEW","SLEEP","NAP","ON2","B","JOL","Study Phase",7430,"","43"
"488672",94,22,"BACKWARD RL VERSION B","NEW","VEHICLE","CHARM","ON2","U","JOL","Study Phase",3323,"","1"
"488672",95,22,"BACKWARD RL VERSION B","NEW","SHOELACE","TIE","ON2","F","JOL","Study Phase",4059,"","31"
"488672",96,22,"BACKWARD RL VERSION B","NEW","BIRD","PENGUIN","ON2","B","JOL","Study Phase",7297,"","22"
"488672",97,22,"BACKWARD RL VERSION B","NEW","DRIVER","CAR","ON2","F","JOL","Study Phase",2748,"","33"
"488672",98,22,"BACKWARD RL VERSION B","NEW","MULE","DONKEY","ON2","F","JOL","Study Phase",3387,"","12"
"488672",99,22,"BACKWARD RL VERSION B","NEW","DINE","EAT","ON2","F","JOL","Study Phase",4219,"","15"
"488672",100,22,"BACKWARD RL VERSION B","NEW","DETECTIVE","MYSTERY","ON2","F","JOL","Study Phase",3538,"","17"
"488672",101,22,"BACKWARD RL VERSION B","NEW","BOTH","OUNCE","ON2","U","JOL","Study Phase",3265,"","2"
"488672",102,22,"BACKWARD RL VERSION B","NEW","SAFETY","SEATBELT","ON2","S","JOL","Study Phase",4816,"","38"
"488672",103,22,"BACKWARD RL VERSION B","NEW","LOAN","SIGN","ON2","U","JOL","Study Phase",3772,"","2"
"488672",104,22,"BACKWARD RL VERSION B","NEW","STAR","ACTRESS","ON2","B","JOL","Study Phase",4342,"","34"
"488672",115,22,"BACKWARD RL VERSION B","NEW","FUZZY","BANG","ON2","U","Test","Recall1",6477,"dog",NA
"488672",116,22,"BACKWARD RL VERSION B","NEW","MULE","DONKEY","ON2","F","Test","Recall1",5216,"donkey",NA
"488672",117,22,"BACKWARD RL VERSION B","NEW","DRY","WET","ON2","S","Test","Recall1",3613,"wet",NA
"488672",118,22,"BACKWARD RL VERSION B","NEW","FIGHT","BRAWL","ON2","B","Test","Recall1",5812,"peace",NA
"488672",119,22,"BACKWARD RL VERSION B","NEW","TURN","FLIP","ON2","B","Test","Recall1",2999,"flip",NA
"488672",120,22,"BACKWARD RL VERSION B","NEW","STAR","ACTRESS","ON2","B","Test","Recall1",4097,"actress",NA
"488672",121,22,"BACKWARD RL VERSION B","NEW","GIVE","STEAK","ON2","U","Test","Recall1",2681,"take",NA
"488672",122,22,"BACKWARD RL VERSION B","NEW","ADJOURN","END","ON2","F","Test","Recall1",18364,"dismiss",NA
"488672",123,22,"BACKWARD RL VERSION B","NEW","ALONE","LONELY","ON2","S","Test","Recall1",6377,"together",NA
"488672",124,22,"BACKWARD RL VERSION B","NEW","EXTENSION","LONG","ON2","F","Test","Recall1",2094,"long",NA
"488672",125,22,"BACKWARD RL VERSION B","NEW","SHEARS","SCISSORS","ON2","F","Test","Recall1",4619,"clippers",NA
"488672",126,22,"BACKWARD RL VERSION B","NEW","BAD","VILLAIN","ON2","B","Test","Recall1",2733,"good",NA
"488672",127,22,"BACKWARD RL VERSION B","NEW","MASON","JAR","ON2","S","Test","Recall1",1823,"jar",NA
"488672",128,22,"BACKWARD RL VERSION B","NEW","EARTH","GROUND","ON2","S","Test","Recall1",2912,"ground",NA
"488672",129,22,"BACKWARD RL VERSION B","NEW","MAIN","SCAR","ON2","U","Test","Recall1",8288,"enterance",NA
"488672",130,22,"BACKWARD RL VERSION B","NEW","EVEN","REVENGE","ON2","B","Test","Recall1",6583,"revenge",NA
"488672",131,22,"BACKWARD RL VERSION B","NEW","DETECTIVE","MYSTERY","ON2","F","Test","Recall1",8918,"holmes",NA
"488672",132,22,"BACKWARD RL VERSION B","NEW","BASEBALL","LEAGUE","ON2","B","Test","Recall1",4059,"glove",NA
"488672",133,22,"BACKWARD RL VERSION B","NEW","WATER","DRINK","ON2","S","Test","Recall1",2860,"wet",NA
"488672",134,22,"BACKWARD RL VERSION B","NEW","LISTEN","FICTION","ON2","U","Test","Recall1",11492,"talk",NA
"488672",135,22,"BACKWARD RL VERSION B","NEW","ELEMENT","CARBON","ON2","S","Test","Recall1",4990,"carbon",NA
"488672",136,22,"BACKWARD RL VERSION B","NEW","AFFECTION","LOVE","ON2","F","Test","Recall1",2917,"love",NA
"488672",137,22,"BACKWARD RL VERSION B","NEW","BEST","FAVORITE","ON2","B","Test","Recall1",5194,"man",NA
"488672",138,22,"BACKWARD RL VERSION B","NEW","OWN","HAVE","ON2","S","Test","Recall1",2356,"have",NA
"488672",139,22,"BACKWARD RL VERSION B","NEW","MAZE","ELECTION","ON2","U","Test","Recall1",4096,"election",NA
"488672",140,22,"BACKWARD RL VERSION B","NEW","CHOP","CUT","ON2","F","Test","Recall1",2979,"wood",NA
"488672",141,22,"BACKWARD RL VERSION B","NEW","CAKE","CLOTHES","ON2","U","Test","Recall1",2023,"lake",NA
"488672",142,22,"BACKWARD RL VERSION B","NEW","FRUIT","STRAWBERRY","ON2","B","Test","Recall1",7374,"strawberry",NA
"488672",143,22,"BACKWARD RL VERSION B","NEW","CAT","PANTHER","ON2","B","Test","Recall1",3275,"dog",NA
"488672",144,22,"BACKWARD RL VERSION B","NEW","VEHICLE","CHARM","ON2","U","Test","Recall1",5100,"driver",NA
"488672",145,22,"BACKWARD RL VERSION B","NEW","MOAT","CLEAR","ON2","U","Test","Recall1",2351,"clear",NA
"488672",146,22,"BACKWARD RL VERSION B","NEW","GONE","AWAY","ON2","S","Test","Recall1",5254,"wind",NA
"488672",147,22,"BACKWARD RL VERSION B","NEW","GLASS","BREAKABLE","ON2","B","Test","Recall1",3839,"breakable",NA
"488672",148,22,"BACKWARD RL VERSION B","NEW","SLEEP","NAP","ON2","B","Test","Recall1",2246,"nap",NA
"488672",149,22,"BACKWARD RL VERSION B","NEW","LITTER","TRASH","ON2","F","Test","Recall1",3206,"trash",NA
"488672",150,22,"BACKWARD RL VERSION B","NEW","POP","BALLOON","ON2","B","Test","Recall1",5766,"crackle",NA
"488672",151,22,"BACKWARD RL VERSION B","NEW","TRUTH","LIE","ON2","S","Test","Recall1",2568,"lies",NA
"488672",152,22,"BACKWARD RL VERSION B","NEW","PHONE","COMMUNICATION","ON2","S","Test","Recall1",3172,"number",NA
"488672",153,22,"BACKWARD RL VERSION B","NEW","CHILL","COLD","ON2","F","Test","Recall1",5529,"cold",NA
"488672",154,22,"BACKWARD RL VERSION B","NEW","FLEA","TICK","ON2","S","Test","Recall1",2036,"tick",NA
"488672",155,22,"BACKWARD RL VERSION B","NEW","CHERRY","RED","ON2","F","Test","Recall1",2760,"red",NA
"488672",156,22,"BACKWARD RL VERSION B","NEW","TEMPERATURE","MORNING","ON2","U","Test","Recall1",4507,"warm",NA
"488672",157,22,"BACKWARD RL VERSION B","NEW","INCENSE","SMELL","ON2","F","Test","Recall1",2605,"smell",NA
"488672",158,22,"BACKWARD RL VERSION B","NEW","SAFETY","SEATBELT","ON2","S","Test","Recall1",4042,"dance",NA
"488672",159,22,"BACKWARD RL VERSION B","NEW","DRIVER","CAR","ON2","F","Test","Recall1",3081,"car",NA
"488672",160,22,"BACKWARD RL VERSION B","NEW","CACTUS","PLANT","ON2","F","Test","Recall1",2554,"plant",NA
"488672",161,22,"BACKWARD RL VERSION B","NEW","PLANE","AIRCRAFT","ON2","B","Test","Recall1",11244,"aircraft",NA
"488672",162,22,"BACKWARD RL VERSION B","NEW","SHOELACE","TIE","ON2","F","Test","Recall1",2538,"tie",NA
"488672",163,22,"BACKWARD RL VERSION B","NEW","SHELL","SHAKE","ON2","U","Test","Recall1",2820,"shake",NA
"488672",164,22,"BACKWARD RL VERSION B","NEW","BIRD","PENGUIN","ON2","B","Test","Recall1",14481,"eagle",NA
"488672",165,22,"BACKWARD RL VERSION B","NEW","KEYS","JOKE","ON2","U","Test","Recall1",2619,"joke",NA
"488672",166,22,"BACKWARD RL VERSION B","NEW","WRIST","BRACELET","ON2","S","Test","Recall1",4586,"ice",NA
"488672",167,22,"BACKWARD RL VERSION B","NEW","LEASE","TOIL","ON2","U","Test","Recall1",4642,"toil",NA
"488672",168,22,"BACKWARD RL VERSION B","NEW","MIRROR","CHILDREN","ON2","U","Test","Recall1",2891,"children",NA
"488672",169,22,"BACKWARD RL VERSION B","NEW","DOCUMENT","PAPER","ON2","F","Test","Recall1",3512,"reader",NA
"488672",170,22,"BACKWARD RL VERSION B","NEW","CRACKLE","ABLE","ON2","U","Test","Recall1",3587,"pop",NA
"488672",171,22,"BACKWARD RL VERSION B","NEW","CAR","WINDSHIELD","ON2","B","Test","Recall1",2308,"driver",NA
"488672",172,22,"BACKWARD RL VERSION B","NEW","HONEST","TRUTHFUL","ON2","B","Test","Recall1",3780,"truthful",NA
"488672",173,22,"BACKWARD RL VERSION B","NEW","STRETCH","CLOTH","ON2","U","Test","Recall1",2686,"cloth",NA
"488672",174,22,"BACKWARD RL VERSION B","NEW","FEUD","FIGHT","ON2","F","Test","Recall1",2127,"fight",NA
"488672",175,22,"BACKWARD RL VERSION B","NEW","SUN","TAN","ON2","S","Test","Recall1",7030,"tan",NA
"488672",176,22,"BACKWARD RL VERSION B","NEW","DINE","EAT","ON2","F","Test","Recall1",2426,"eat",NA
"488672",177,22,"BACKWARD RL VERSION B","NEW","MONEY","BANKER","ON2","B","Test","Recall1",3733,"clip",NA
"488672",178,22,"BACKWARD RL VERSION B","NEW","ROD","REEL","ON2","S","Test","Recall1",7464,"hot",NA
"488672",179,22,"BACKWARD RL VERSION B","NEW","LOUD","NOISE","ON2","S","Test","Recall1",5154,"noise",NA
"488672",180,22,"BACKWARD RL VERSION B","NEW","RAZOR","SHAVE","ON2","S","Test","Recall1",4685,"shave",NA
"488672",181,22,"BACKWARD RL VERSION B","NEW","MEAT","OBTAIN","ON2","U","Test","Recall1",4669,"obtain",NA
"488672",182,22,"BACKWARD RL VERSION B","NEW","RIGHTS","EQUAL","ON2","S","Test","Recall1",5211,"equal",NA
"488672",183,22,"BACKWARD RL VERSION B","NEW","TANTRUM","TEMPER","ON2","S","Test","Recall1",2959,"temper",NA
"488672",184,22,"BACKWARD RL VERSION B","NEW","FURRY","DOG","ON2","F","Test","Recall1",1683,"dog",NA
"488672",185,22,"BACKWARD RL VERSION B","NEW","SCALP","HEAD","ON2","F","Test","Recall1",2911,"bald",NA
"488672",186,22,"BACKWARD RL VERSION B","NEW","FISH","SARDINE","ON2","B","Test","Recall1",10784,"sardine",NA
"488672",187,22,"BACKWARD RL VERSION B","NEW","THREAD","THIMBLE","ON2","B","Test","Recall1",3453,"needle",NA
"488672",188,22,"BACKWARD RL VERSION B","NEW","LOAN","SIGN","ON2","U","Test","Recall1",3912,"toil",NA
"488672",189,22,"BACKWARD RL VERSION B","NEW","BOTH","OUNCE","ON2","U","Test","Recall1",8398,"alone",NA
"488672",190,22,"BACKWARD RL VERSION B","NEW","DEAD","COFFIN","ON2","B","Test","Recall1",5005,"buisness",NA
"488672",191,22,"BACKWARD RL VERSION B","NEW","CLUE","GAME","ON2","F","Test","Recall1",1959,"game",NA
"488672",192,22,"BACKWARD RL VERSION B","NEW","CANDLE","WAX","ON2","S","Test","Recall1",4296,"wax",NA
"488672",193,22,"BACKWARD RL VERSION B","NEW","NAME","HATE","ON2","U","Test","Recall1",3838,"number",NA
"488672",194,22,"BACKWARD RL VERSION B","NEW","JUSTICE","MAROON","ON2","U","Test","Recall1",4138,"rough",NA
"488672",209,22,"BACKWARD RL VERSION B","NEW","BLOW","WIND","ON","S","JOL","Study Phase2",3691,"","22"
"488672",210,22,"BACKWARD RL VERSION B","NEW","HIDE","SICK","ON","U","JOL","Study Phase2",3485,"","1"
"488672",211,22,"BACKWARD RL VERSION B","NEW","ARCHITECTURE","DESIGN","ON","S","JOL","Study Phase2",2822,"","2"
"488672",212,22,"BACKWARD RL VERSION B","NEW","STRONG","ACCIDENT","ON","U","JOL","Study Phase2",2715,"","1"
"488672",213,22,"BACKWARD RL VERSION B","NEW","DRINK","SIP","ON","B","JOL","Study Phase2",3758,"","35"
"488672",214,22,"BACKWARD RL VERSION B","NEW","TRIAL","JURY","ON","S","JOL","Study Phase2",5749,"","35"
"488672",215,22,"BACKWARD RL VERSION B","NEW","SENTENCE","WORD","ON","B","JOL","Study Phase2",6135,"","38"
"488672",216,22,"BACKWARD RL VERSION B","NEW","FIX","HAND","ON","U","JOL","Study Phase2",5335,"","21"
"488672",217,22,"BACKWARD RL VERSION B","NEW","ARTERY","BRONZE","ON","U","JOL","Study Phase2",4244,"","24"
"488672",218,22,"BACKWARD RL VERSION B","NEW","LETTUCE","SALAD","ON","S","JOL","Study Phase2",7213,"","42"
"488672",219,22,"BACKWARD RL VERSION B","NEW","BUG","WASP","ON","B","JOL","Study Phase2",619,"",NA
"488672",220,22,"BACKWARD RL VERSION B","NEW","HEIGHT","GROWTH","ON","B","JOL","Study Phase2",7347,"","32"
"488672",221,22,"BACKWARD RL VERSION B","NEW","SMELL","STENCH","ON","B","JOL","Study Phase2",3347,"","21"
"488672",222,22,"BACKWARD RL VERSION B","NEW","LIFT","WOMAN","ON","U","JOL","Study Phase2",3242,"","32"
"488672",223,22,"BACKWARD RL VERSION B","NEW","ORCHID","FLOWER","ON","F","JOL","Study Phase2",3141,"","11"
"488672",224,22,"BACKWARD RL VERSION B","NEW","DELINQUENT","BAD","ON","F","JOL","Study Phase2",2853,"","2"
"488672",225,22,"BACKWARD RL VERSION B","NEW","PUSHER","CLUTTER","ON","U","JOL","Study Phase2",2093,"","3"
"488672",226,22,"BACKWARD RL VERSION B","NEW","LAW","ATTORNEY","ON","B","JOL","Study Phase2",5092,"","14"
"488672",227,22,"BACKWARD RL VERSION B","NEW","PARK","HUNGRY","ON","U","JOL","Study Phase2",3309,"","12"
"488672",228,22,"BACKWARD RL VERSION B","NEW","DISCUSSION","TALK","ON","F","JOL","Study Phase2",3283,"","18"
"488672",229,22,"BACKWARD RL VERSION B","NEW","BABY","CHILD","ON","S","JOL","Study Phase2",3509,"","44"
"488672",230,22,"BACKWARD RL VERSION B","NEW","DARK","CAVE","ON","B","JOL","Study Phase2",2491,"","22"
"488672",231,22,"BACKWARD RL VERSION B","NEW","HERD","COW","ON","F","JOL","Study Phase2",2612,"","12"
"488672",232,22,"BACKWARD RL VERSION B","NEW","DUMP","WASTE","ON","S","JOL","Study Phase2",4846,"","31"
"488672",233,22,"BACKWARD RL VERSION B","NEW","HYGIENE","CLEAN","ON","F","JOL","Study Phase2",5820,"","29"
"488672",234,22,"BACKWARD RL VERSION B","NEW","KEY","LATCH","ON","B","JOL","Study Phase2",3584,"","13"
"488672",235,22,"BACKWARD RL VERSION B","NEW","DUE","ASSIGNMENT","ON","S","JOL","Study Phase2",4648,"","53"
"488672",236,22,"BACKWARD RL VERSION B","NEW","WORK","CHORE","ON","B","JOL","Study Phase2",3060,"","26"
"488672",237,22,"BACKWARD RL VERSION B","NEW","DIGESTION","STOMACH","ON","F","JOL","Study Phase2",3323,"","42"
"488672",238,22,"BACKWARD RL VERSION B","NEW","MATH","DIVISION","ON","B","JOL","Study Phase2",2642,"","66"
"488672",239,22,"BACKWARD RL VERSION B","NEW","GREAT","FANTASTIC","ON","B","JOL","Study Phase2",3796,"","16"
"488672",240,22,"BACKWARD RL VERSION B","NEW","REVOLUTION","WAR","ON","F","JOL","Study Phase2",4426,"","27"
"488672",241,22,"BACKWARD RL VERSION B","NEW","CREDIT","CARD","ON","F","JOL","Study Phase2",7164,"","44"
"488672",242,22,"BACKWARD RL VERSION B","NEW","ROOT","PLANT","ON","F","JOL","Study Phase2",2329,"","33"
"488672",243,22,"BACKWARD RL VERSION B","NEW","EDITOR","NEWS","ON","F","JOL","Study Phase2",1809,"","22"
"488672",245,22,"BACKWARD RL VERSION B","NEW","CIRCLE","ROUND","ON","S","JOL","Study Phase2",4937,"","22"
"488672",246,22,"BACKWARD RL VERSION B","NEW","BRIDGE","WATER","ON","F","JOL","Study Phase2",4255,"","13"
"488672",247,22,"BACKWARD RL VERSION B","NEW","BALL","RACKET","ON","B","JOL","Study Phase2",4396,"","32"
"488672",248,22,"BACKWARD RL VERSION B","NEW","TUNA","FISH","ON","F","JOL","Study Phase2",3582,"","12"
"488672",249,22,"BACKWARD RL VERSION B","NEW","BITTER","COLD","ON","F","JOL","Study Phase2",3370,"","33"
"488672",250,22,"BACKWARD RL VERSION B","NEW","SUGAR","RIDDLE","ON","U","JOL","Study Phase2",2876,"","2"
"488672",251,22,"BACKWARD RL VERSION B","NEW","BEGIN","END","ON","S","JOL","Study Phase2",2454,"","55"
"488672",252,22,"BACKWARD RL VERSION B","NEW","DISCOVER","FLOOR","ON","U","JOL","Study Phase2",3499,"","21"
"488672",253,22,"BACKWARD RL VERSION B","NEW","FIRE","BLAZE","ON","B","JOL","Study Phase2",2711,"","31"
"488672",254,22,"BACKWARD RL VERSION B","NEW","LOCATION","SITE","ON","S","JOL","Study Phase2",5721,"","20"
"488672",255,22,"BACKWARD RL VERSION B","NEW","DEATH","BUSINESS","ON","U","JOL","Study Phase2",3239,"","14"
"488672",256,22,"BACKWARD RL VERSION B","NEW","ALLOW","TUCK","ON","U","JOL","Study Phase2",4343,"","1"
"488672",257,22,"BACKWARD RL VERSION B","NEW","DIETARY","SACKING","ON","U","JOL","Study Phase2",3462,"","3"
"488672",258,22,"BACKWARD RL VERSION B","NEW","NUMBER","AMOUNT","ON","S","JOL","Study Phase2",5131,"","30"
"488672",259,22,"BACKWARD RL VERSION B","NEW","HAPPY","CAR","ON","U","JOL","Study Phase2",3290,"","2"
"488672",260,22,"BACKWARD RL VERSION B","NEW","CASH","WOULD","ON","U","JOL","Study Phase2",2187,"","1"
"488672",261,22,"BACKWARD RL VERSION B","NEW","MACHINE","POSITION","ON","U","JOL","Study Phase2",2478,"","4"
"488672",262,22,"BACKWARD RL VERSION B","NEW","HOT","CHILI","ON","B","JOL","Study Phase2",3299,"","17"
"488672",263,22,"BACKWARD RL VERSION B","NEW","BATHROOM","TOILET","ON","S","JOL","Study Phase2",5130,"","25"
"488672",264,22,"BACKWARD RL VERSION B","NEW","SWAN","BIRD","ON","F","JOL","Study Phase2",3266,"","32"
"488672",265,22,"BACKWARD RL VERSION B","NEW","SHOE","FOOT","ON","S","JOL","Study Phase2",2373,"","21"
"488672",266,22,"BACKWARD RL VERSION B","NEW","DEBATE","SIGHT","ON","U","JOL","Study Phase2",7245,"","5"
"488672",267,22,"BACKWARD RL VERSION B","NEW","WINE","CHEESE","ON","S","JOL","Study Phase2",4147,"","6"
"488672",268,22,"BACKWARD RL VERSION B","NEW","PAW","DOG","ON","F","JOL","Study Phase2",2418,"","2"
"488672",269,22,"BACKWARD RL VERSION B","NEW","CLOTHES","ATTIRE","ON","B","JOL","Study Phase2",2011,"","5"
"488672",270,22,"BACKWARD RL VERSION B","NEW","KIDNEY","LIVER","ON","S","JOL","Study Phase2",2359,"","3"
"488672",271,22,"BACKWARD RL VERSION B","NEW","HUNGER","FAMINE","ON","B","JOL","Study Phase2",9482,"","7"
"488672",272,22,"BACKWARD RL VERSION B","NEW","TAKE","SEIZE","ON","B","JOL","Study Phase2",3019,"","21"
"488672",273,22,"BACKWARD RL VERSION B","NEW","POP","SODA","ON","S","JOL","Study Phase2",3994,"","34"
"488672",274,22,"BACKWARD RL VERSION B","NEW","KING","VASE","ON","U","JOL","Study Phase2",2657,"","2"
"488672",275,22,"BACKWARD RL VERSION B","NEW","SOON","BELT","ON","U","JOL","Study Phase2",4411,"","4"
"488672",276,22,"BACKWARD RL VERSION B","NEW","HONEY","BEE","ON","S","JOL","Study Phase2",5287,"","2"
"488672",277,22,"BACKWARD RL VERSION B","NEW","ART","LION","ON","U","JOL","Study Phase2",2962,"","4"
"488672",278,22,"BACKWARD RL VERSION B","NEW","GEOLOGY","ROCK","ON","F","JOL","Study Phase2",4288,"","5"
"488672",279,22,"BACKWARD RL VERSION B","NEW","PLANE","PILOT","ON","B","JOL","Study Phase2",5676,"","18"
"488672",280,22,"BACKWARD RL VERSION B","NEW","WAY","OUT","ON","F","JOL","Study Phase2",3741,"","4"
"488672",281,22,"BACKWARD RL VERSION B","NEW","FULL","ENOUGH","ON","B","JOL","Study Phase2",3452,"","2"
"488672",282,22,"BACKWARD RL VERSION B","NEW","GRILL","BAR","ON","S","JOL","Study Phase2",3312,"","13"
"488672",283,22,"BACKWARD RL VERSION B","NEW","PAST","FUTURE","ON","S","JOL","Study Phase2",4007,"","45"
"488672",284,22,"BACKWARD RL VERSION B","NEW","CHISEL","HAMMER","ON","F","JOL","Study Phase2",2407,"","32"
"488672",285,22,"BACKWARD RL VERSION B","NEW","VALLEY","ADD","ON","U","JOL","Study Phase2",2963,"","22"
"488672",286,22,"BACKWARD RL VERSION B","NEW","WAGE","MONEY","ON","F","JOL","Study Phase2",3121,"","42"
"488672",287,22,"BACKWARD RL VERSION B","NEW","HORNET","STING","ON","F","JOL","Study Phase2",2070,"","31"
"488672",288,22,"BACKWARD RL VERSION B","NEW","SLEEP","DROWSY","ON","B","JOL","Study Phase2",3101,"","44"
"488672",289,22,"BACKWARD RL VERSION B","NEW","MEANING","DEFINITION","ON","S","JOL","Study Phase2",2281,"","32"
"488672",300,22,"BACKWARD RL VERSION B","NEW","MATH","DIVISION","ON","B","Test","Recall2",15183,"Divide",NA
"488672",301,22,"BACKWARD RL VERSION B","NEW","BALL","RACKET","ON","B","Test","Recall2",12298,"Bounce",NA
"488672",302,22,"BACKWARD RL VERSION B","NEW","DRINK","SIP","ON","B","Test","Recall2",3917,"Sip",NA
"488672",303,22,"BACKWARD RL VERSION B","NEW","MACHINE","POSITION","ON","U","Test","Recall2",3841,"System",NA
"488672",304,22,"BACKWARD RL VERSION B","NEW","GREAT","FANTASTIC","ON","B","Test","Recall2",9006,"GOOD",NA
"488672",305,22,"BACKWARD RL VERSION B","NEW","KING","VASE","ON","U","Test","Recall2",2856,"Vase",NA
"488672",306,22,"BACKWARD RL VERSION B","NEW","WORK","CHORE","ON","B","Test","Recall2",5114,"Career",NA
"488672",307,22,"BACKWARD RL VERSION B","NEW","BLOW","WIND","ON","S","Test","Recall2",4842,"Wind",NA
"488672",308,22,"BACKWARD RL VERSION B","NEW","SMELL","STENCH","ON","B","Test","Recall2",5046,"Nose",NA
"488672",309,22,"BACKWARD RL VERSION B","NEW","HYGIENE","CLEAN","ON","F","Test","Recall2",5034,"Shower",NA
"488672",310,22,"BACKWARD RL VERSION B","NEW","TAKE","SEIZE","ON","B","Test","Recall2",2984,"Grab",NA
"488672",311,22,"BACKWARD RL VERSION B","NEW","TRIAL","JURY","ON","S","Test","Recall2",2251,"Jury",NA
"488672",312,22,"BACKWARD RL VERSION B","NEW","BATHROOM","TOILET","ON","S","Test","Recall2",4499,"Toliet",NA
"488672",313,22,"BACKWARD RL VERSION B","NEW","GRILL","BAR","ON","S","Test","Recall2",2043,"Bar",NA
"488672",314,22,"BACKWARD RL VERSION B","NEW","CIRCLE","ROUND","ON","S","Test","Recall2",2370,"Round",NA
"488672",315,22,"BACKWARD RL VERSION B","NEW","BABY","CHILD","ON","S","Test","Recall2",3056,"Child",NA
"488672",316,22,"BACKWARD RL VERSION B","NEW","BRIDGE","WATER","ON","F","Test","Recall2",2775,"Water",NA
"488672",317,22,"BACKWARD RL VERSION B","NEW","HERD","COW","ON","F","Test","Recall2",2459,"Cow",NA
"488672",318,22,"BACKWARD RL VERSION B","NEW","HORNET","STING","ON","F","Test","Recall2",3477,"Sting",NA
"488672",319,22,"BACKWARD RL VERSION B","NEW","NUMBER","AMOUNT","ON","S","Test","Recall2",2830,"Amount",NA
"488672",320,22,"BACKWARD RL VERSION B","NEW","FIX","HAND","ON","U","Test","Recall2",2228,"Hand",NA
"488672",321,22,"BACKWARD RL VERSION B","NEW","DEATH","BUSINESS","ON","U","Test","Recall2",10750,"Business",NA
"488672",322,22,"BACKWARD RL VERSION B","NEW","PLANE","PILOT","ON","B","Test","Recall2",4224,"Pilot",NA
"488672",323,22,"BACKWARD RL VERSION B","NEW","ORCHID","FLOWER","ON","F","Test","Recall2",2829,"Flower",NA
"488672",324,22,"BACKWARD RL VERSION B","NEW","VALLEY","ADD","ON","U","Test","Recall2",2882,"Hill",NA
"488672",325,22,"BACKWARD RL VERSION B","NEW","HIDE","SICK","ON","U","Test","Recall2",5926,"Scared",NA
"488672",326,22,"BACKWARD RL VERSION B","NEW","DISCUSSION","TALK","ON","F","Test","Recall2",3159,"Talk",NA
"488672",327,22,"BACKWARD RL VERSION B","NEW","LOCATION","SITE","ON","S","Test","Recall2",5958,"Geography",NA
"488672",328,22,"BACKWARD RL VERSION B","NEW","PAST","FUTURE","ON","S","Test","Recall2",2906,"Future",NA
"488672",329,22,"BACKWARD RL VERSION B","NEW","HOT","CHILI","ON","B","Test","Recall2",2486,"Cold",NA
"488672",330,22,"BACKWARD RL VERSION B","NEW","TUNA","FISH","ON","F","Test","Recall2",2023,"Fish",NA
"488672",331,22,"BACKWARD RL VERSION B","NEW","HEIGHT","GROWTH","ON","B","Test","Recall2",3125,"Weight",NA
"488672",332,22,"BACKWARD RL VERSION B","NEW","LETTUCE","SALAD","ON","S","Test","Recall2",3135,"Salad",NA
"488672",333,22,"BACKWARD RL VERSION B","NEW","EDITOR","NEWS","ON","F","Test","Recall2",2844,"Paper",NA
"488672",334,22,"BACKWARD RL VERSION B","NEW","WAGE","MONEY","ON","F","Test","Recall2",2671,"Money",NA
"488672",335,22,"BACKWARD RL VERSION B","NEW","SENTENCE","WORD","ON","B","Test","Recall2",4667,"Structure",NA
"488672",336,22,"BACKWARD RL VERSION B","NEW","ARTERY","BRONZE","ON","U","Test","Recall2",7402,"Heart",NA
"488672",337,22,"BACKWARD RL VERSION B","NEW","GEOLOGY","ROCK","ON","F","Test","Recall2",2294,"Rock",NA
"488672",338,22,"BACKWARD RL VERSION B","NEW","LIFT","WOMAN","ON","U","Test","Recall2",3660,"Woman",NA
"488672",339,22,"BACKWARD RL VERSION B","NEW","DUMP","WASTE","ON","S","Test","Recall2",3900,"Trash",NA
"488672",340,22,"BACKWARD RL VERSION B","NEW","KEY","LATCH","ON","B","Test","Recall2",11764,"Lock",NA
"488672",341,22,"BACKWARD RL VERSION B","NEW","SOON","BELT","ON","U","Test","Recall2",3072,"Later",NA
"488672",342,22,"BACKWARD RL VERSION B","NEW","BITTER","COLD","ON","F","Test","Recall2",2548,"Sour",NA
"488672",343,22,"BACKWARD RL VERSION B","NEW","WINE","CHEESE","ON","S","Test","Recall2",2727,"Cheese",NA
"488672",344,22,"BACKWARD RL VERSION B","NEW","CHISEL","HAMMER","ON","F","Test","Recall2",11879,"",NA
"488672",345,22,"BACKWARD RL VERSION B","NEW","CLOTHES","ATTIRE","ON","B","Test","Recall2",19611,"Skirt",NA
"488672",346,22,"BACKWARD RL VERSION B","NEW","HUNGER","FAMINE","ON","B","Test","Recall2",3342,"Famine",NA
"488672",347,22,"BACKWARD RL VERSION B","NEW","KIDNEY","LIVER","ON","S","Test","Recall2",2522,"Liver",NA
"488672",348,22,"BACKWARD RL VERSION B","NEW","BEGIN","END","ON","S","Test","Recall2",2251,"End",NA
"488672",349,22,"BACKWARD RL VERSION B","NEW","DISCOVER","FLOOR","ON","U","Test","Recall2",3782,"Find",NA
"488672",350,22,"BACKWARD RL VERSION B","NEW","PARK","HUNGRY","ON","U","Test","Recall2",3678,"Drive",NA
"488672",351,22,"BACKWARD RL VERSION B","NEW","DARK","CAVE","ON","B","Test","Recall2",3721,"Light",NA
"488672",352,22,"BACKWARD RL VERSION B","NEW","ROOT","PLANT","ON","F","Test","Recall2",2718,"Tree",NA
"488672",353,22,"BACKWARD RL VERSION B","NEW","FULL","ENOUGH","ON","B","Test","Recall2",3760,"Empty",NA
"488672",354,22,"BACKWARD RL VERSION B","NEW","POP","SODA","ON","S","Test","Recall2",6770,"Soda",NA
"488672",355,22,"BACKWARD RL VERSION B","NEW","MEANING","DEFINITION","ON","S","Test","Recall2",4879,"Definition",NA
"488672",356,22,"BACKWARD RL VERSION B","NEW","ARCHITECTURE","DESIGN","ON","S","Test","Recall2",13846,"Design",NA
"488672",357,22,"BACKWARD RL VERSION B","NEW","WAY","OUT","ON","F","Test","Recall2",5831,"No",NA
"488672",358,22,"BACKWARD RL VERSION B","NEW","ALLOW","TUCK","ON","U","Test","Recall2",3828,"Accept",NA
"488672",359,22,"BACKWARD RL VERSION B","NEW","STRONG","ACCIDENT","ON","U","Test","Recall2",3129,"Woman",NA
"488672",360,22,"BACKWARD RL VERSION B","NEW","DUE","ASSIGNMENT","ON","S","Test","Recall2",2890,"Late",NA
"488672",361,22,"BACKWARD RL VERSION B","NEW","PAW","DOG","ON","F","Test","Recall2",1834,"Dog",NA
"488672",362,22,"BACKWARD RL VERSION B","NEW","SHOE","FOOT","ON","S","Test","Recall2",3892,"Lace",NA
"488672",363,22,"BACKWARD RL VERSION B","NEW","FIRE","BLAZE","ON","B","Test","Recall2",3490,"Ice",NA
"488672",364,22,"BACKWARD RL VERSION B","NEW","LAW","ATTORNEY","ON","B","Test","Recall2",6887,"Officer",NA
"488672",365,22,"BACKWARD RL VERSION B","NEW","SWAN","BIRD","ON","F","Test","Recall2",2722,"Bird",NA
"488672",366,22,"BACKWARD RL VERSION B","NEW","BUG","WASP","ON","B","Test","Recall2",10304,"Cockroach",NA
"488672",367,22,"BACKWARD RL VERSION B","NEW","HAPPY","CAR","ON","U","Test","Recall2",6040,"Car",NA
"488672",368,22,"BACKWARD RL VERSION B","NEW","HONEY","BEE","ON","S","Test","Recall2",3891,"Bee",NA
"488672",369,22,"BACKWARD RL VERSION B","NEW","CREDIT","CARD","ON","F","Test","Recall2",2765,"Card",NA
"488672",370,22,"BACKWARD RL VERSION B","NEW","DIGESTION","STOMACH","ON","F","Test","Recall2",3062,"Stomach",NA
"488672",371,22,"BACKWARD RL VERSION B","NEW","PUSHER","CLUTTER","ON","U","Test","Recall2",10690,"Clutter",NA
"488672",372,22,"BACKWARD RL VERSION B","NEW","SLEEP","DROWSY","ON","B","Test","Recall2",3967,"Nap",NA
"488672",373,22,"BACKWARD RL VERSION B","NEW","DIETARY","SACKING","ON","U","Test","Recall2",4820,"Restrictions",NA
"488672",374,22,"BACKWARD RL VERSION B","NEW","DELINQUENT","BAD","ON","F","Test","Recall2",3593,"Juvenile",NA
"488672",375,22,"BACKWARD RL VERSION B","NEW","REVOLUTION","WAR","ON","F","Test","Recall2",9590,"War",NA
"488672",376,22,"BACKWARD RL VERSION B","NEW","SUGAR","RIDDLE","ON","U","Test","Recall2",3817,"Flour",NA
"488672",377,22,"BACKWARD RL VERSION B","NEW","DEBATE","SIGHT","ON","U","Test","Recall2",7324,"Sight",NA
"488672",378,22,"BACKWARD RL VERSION B","NEW","CASH","WOULD","ON","U","Test","Recall2",2811,"Money",NA
"488672",379,22,"BACKWARD RL VERSION B","NEW","ART","LION","ON","U","Test","Recall2",2441,"Lion",NA
"00161487MT",24,24,"BACKWARD RL VERSION D","NEW","AIRCRAFT","PLANE","ON2","F","JOL","Study Phase",9170,"","90"
"00161487MT",25,24,"BACKWARD RL VERSION D","NEW","LOVE","AFFECTION","ON2","B","JOL","Study Phase",7232,"","90"
"00161487MT",26,24,"BACKWARD RL VERSION D","NEW","TAN","SUN","ON2","S","JOL","Study Phase",7780,"","100"
"00161487MT",27,24,"BACKWARD RL VERSION D","NEW","ACTRESS","STAR","ON2","F","JOL","Study Phase",7849,"","80"
"00161487MT",28,24,"BACKWARD RL VERSION D","NEW","COMMUNICATION","PHONE","ON2","S","JOL","Study Phase",3691,"","90"
"00161487MT",29,24,"BACKWARD RL VERSION D","NEW","NOISE","LOUD","ON2","S","JOL","Study Phase",4865,"","90"
"00161487MT",30,24,"BACKWARD RL VERSION D","NEW","CLOTHES","CAKE","ON2","U","JOL","Study Phase",13632,"","70"
"00161487MT",31,24,"BACKWARD RL VERSION D","NEW","SIGN","LOAN","ON2","U","JOL","Study Phase",6795,"","70"
"00161487MT",32,24,"BACKWARD RL VERSION D","NEW","AWAY","GONE","ON2","S","JOL","Study Phase",5740,"","90"
"00161487MT",33,24,"BACKWARD RL VERSION D","NEW","TRASH","LITTER","ON2","B","JOL","Study Phase",4992,"","90"
"00161487MT",34,24,"BACKWARD RL VERSION D","NEW","GROUND","EARTH","ON2","S","JOL","Study Phase",3154,"","90"
"00161487MT",35,24,"BACKWARD RL VERSION D","NEW","TICK","FLEA","ON2","S","JOL","Study Phase",3688,"","90"
"00161487MT",36,24,"BACKWARD RL VERSION D","NEW","HEAD","SCALP","ON2","B","JOL","Study Phase",2498,"","90"
"00161487MT",37,24,"BACKWARD RL VERSION D","NEW","CHILDREN","MIRROR","ON2","U","JOL","Study Phase",11229,"","80"
"00161487MT",38,24,"BACKWARD RL VERSION D","NEW","WAX","CANDLE","ON2","S","JOL","Study Phase",5023,"","90"
"00161487MT",39,24,"BACKWARD RL VERSION D","NEW","LEAGUE","BASEBALL","ON2","F","JOL","Study Phase",4738,"","90"
"00161487MT",40,24,"BACKWARD RL VERSION D","NEW","TRUTHFUL","HONEST","ON2","F","JOL","Study Phase",3265,"","90"
"00161487MT",41,24,"BACKWARD RL VERSION D","NEW","HATE","NAME","ON2","U","JOL","Study Phase",4355,"","70"
"00161487MT",42,24,"BACKWARD RL VERSION D","NEW","PANTHER","CAT","ON2","F","JOL","Study Phase",9593,"","90"
"00161487MT",43,24,"BACKWARD RL VERSION D","NEW","SCISSORS","SHEARS","ON2","B","JOL","Study Phase",4663,"","90"
"00161487MT",44,24,"BACKWARD RL VERSION D","NEW","PENGUIN","BIRD","ON2","F","JOL","Study Phase",9198,"","70"
"00161487MT",45,24,"BACKWARD RL VERSION D","NEW","BREAKABLE","GLASS","ON2","F","JOL","Study Phase",2773,"","90"
"00161487MT",46,24,"BACKWARD RL VERSION D","NEW","LONELY","ALONE","ON2","S","JOL","Study Phase",3710,"","90"
"00161487MT",47,24,"BACKWARD RL VERSION D","NEW","SARDINE","FISH","ON2","F","JOL","Study Phase",9836,"","90"
"00161487MT",48,24,"BACKWARD RL VERSION D","NEW","END","ADJOURN","ON2","B","JOL","Study Phase",6092,"","90"
"00161487MT",49,24,"BACKWARD RL VERSION D","NEW","EQUAL","RIGHTS","ON2","S","JOL","Study Phase",5469,"","90"
"00161487MT",50,24,"BACKWARD RL VERSION D","NEW","DRINK","WATER","ON2","S","JOL","Study Phase",3270,"","90"
"00161487MT",51,24,"BACKWARD RL VERSION D","NEW","CHARM","VEHICLE","ON2","U","JOL","Study Phase",14487,"","70"
"00161487MT",52,24,"BACKWARD RL VERSION D","NEW","COLD","CHILL","ON2","B","JOL","Study Phase",4481,"","80"
"00161487MT",53,24,"BACKWARD RL VERSION D","NEW","MORNING","TEMPERATURE","ON2","U","JOL","Study Phase",3433,"","80"
"00161487MT",54,24,"BACKWARD RL VERSION D","NEW","ABLE","CRACKLE","ON2","U","JOL","Study Phase",3438,"","80"
"00161487MT",55,24,"BACKWARD RL VERSION D","NEW","REEL","ROD","ON2","S","JOL","Study Phase",2716,"","90"
"00161487MT",56,24,"BACKWARD RL VERSION D","NEW","VILLAIN","BAD","ON2","F","JOL","Study Phase",2553,"","90"
"00161487MT",57,24,"BACKWARD RL VERSION D","NEW","ELECTION","MAZE","ON2","U","JOL","Study Phase",9647,"","70"
"00161487MT",58,24,"BACKWARD RL VERSION D","NEW","FIGHT","FEUD","ON2","B","JOL","Study Phase",2650,"","90"
"00161487MT",60,24,"BACKWARD RL VERSION D","NEW","SCAR","MAIN","ON2","U","JOL","Study Phase",10764,"","60"
"00161487MT",61,24,"BACKWARD RL VERSION D","NEW","STEAK","GIVE","ON2","U","JOL","Study Phase",5333,"","70"
"00161487MT",62,24,"BACKWARD RL VERSION D","NEW","CARBON","ELEMENT","ON2","S","JOL","Study Phase",9645,"","80"
"00161487MT",63,24,"BACKWARD RL VERSION D","NEW","BANKER","MONEY","ON2","F","JOL","Study Phase",3546,"","90"
"00161487MT",64,24,"BACKWARD RL VERSION D","NEW","WINDSHIELD","CAR","ON2","F","JOL","Study Phase",2369,"","90"
"00161487MT",65,24,"BACKWARD RL VERSION D","NEW","STRAWBERRY","FRUIT","ON2","F","JOL","Study Phase",3459,"","90"
"00161487MT",66,24,"BACKWARD RL VERSION D","NEW","DONKEY","MULE","ON2","B","JOL","Study Phase",3127,"","90"
"00161487MT",67,24,"BACKWARD RL VERSION D","NEW","PAPER","DOCUMENT","ON2","B","JOL","Study Phase",4530,"","80"
"00161487MT",68,24,"BACKWARD RL VERSION D","NEW","CAR","DRIVER","ON2","B","JOL","Study Phase",4100,"","80"
"00161487MT",69,24,"BACKWARD RL VERSION D","NEW","TEMPER","TANTRUM","ON2","S","JOL","Study Phase",5172,"","90"
"00161487MT",70,24,"BACKWARD RL VERSION D","NEW","FICTION","LISTEN","ON2","U","JOL","Study Phase",5699,"","70"
"00161487MT",71,24,"BACKWARD RL VERSION D","NEW","FAVORITE","BEST","ON2","F","JOL","Study Phase",3894,"","90"
"00161487MT",72,24,"BACKWARD RL VERSION D","NEW","SMELL","INCENSE","ON2","B","JOL","Study Phase",6181,"","90"
"00161487MT",73,24,"BACKWARD RL VERSION D","NEW","SHAKE","SHELL","ON2","U","JOL","Study Phase",5578,"","70"
"00161487MT",74,24,"BACKWARD RL VERSION D","NEW","PLANT","CACTUS","ON2","B","JOL","Study Phase",2439,"","90"
"00161487MT",75,24,"BACKWARD RL VERSION D","NEW","THIMBLE","THREAD","ON2","F","JOL","Study Phase",4860,"","90"
"00161487MT",76,24,"BACKWARD RL VERSION D","NEW","JOKE","KEYS","ON2","U","JOL","Study Phase",4043,"","70"
"00161487MT",77,24,"BACKWARD RL VERSION D","NEW","JAR","MASON","ON2","S","JOL","Study Phase",2416,"","90"
"00161487MT",78,24,"BACKWARD RL VERSION D","NEW","REVENGE","EVEN","ON2","F","JOL","Study Phase",7058,"","90"
"00161487MT",79,24,"BACKWARD RL VERSION D","NEW","SHAVE","RAZOR","ON2","S","JOL","Study Phase",2593,"","90"
"00161487MT",80,24,"BACKWARD RL VERSION D","NEW","HAVE","OWN","ON2","S","JOL","Study Phase",2381,"","90"
"00161487MT",81,24,"BACKWARD RL VERSION D","NEW","CUT","CHOP","ON2","B","JOL","Study Phase",2156,"","90"
"00161487MT",82,24,"BACKWARD RL VERSION D","NEW","BRAWL","FIGHT","ON2","F","JOL","Study Phase",2784,"","90"
"00161487MT",83,24,"BACKWARD RL VERSION D","NEW","OBTAIN","MEAT","ON2","U","JOL","Study Phase",9111,"","70"
"00161487MT",84,24,"BACKWARD RL VERSION D","NEW","CLOTH","STRETCH","ON2","U","JOL","Study Phase",4293,"","80"
"00161487MT",85,24,"BACKWARD RL VERSION D","NEW","SEATBELT","SAFETY","ON2","S","JOL","Study Phase",2906,"","90"
"00161487MT",86,24,"BACKWARD RL VERSION D","NEW","FLIP","TURN","ON2","F","JOL","Study Phase",1998,"","90"
"00161487MT",87,24,"BACKWARD RL VERSION D","NEW","WET","DRY","ON2","S","JOL","Study Phase",2729,"","90"
"00161487MT",88,24,"BACKWARD RL VERSION D","NEW","MAROON","JUSTICE","ON2","U","JOL","Study Phase",11701,"","70"
"00161487MT",89,24,"BACKWARD RL VERSION D","NEW","CLEAR","MOAT","ON2","U","JOL","Study Phase",7809,"","70"
"00161487MT",90,24,"BACKWARD RL VERSION D","NEW","LONG","EXTENSION","ON2","B","JOL","Study Phase",3483,"","90"
"00161487MT",91,24,"BACKWARD RL VERSION D","NEW","OUNCE","BOTH","ON2","U","JOL","Study Phase",4281,"","70"
"00161487MT",92,24,"BACKWARD RL VERSION D","NEW","DOG","FURRY","ON2","B","JOL","Study Phase",2861,"","70"
"00161487MT",93,24,"BACKWARD RL VERSION D","NEW","LIE","TRUTH","ON2","S","JOL","Study Phase",2811,"","80"
"00161487MT",94,24,"BACKWARD RL VERSION D","NEW","COFFIN","DEAD","ON2","F","JOL","Study Phase",3045,"","90"
"00161487MT",95,24,"BACKWARD RL VERSION D","NEW","MYSTERY","DETECTIVE","ON2","B","JOL","Study Phase",3217,"","90"
"00161487MT",96,24,"BACKWARD RL VERSION D","NEW","TOIL","LEASE","ON2","U","JOL","Study Phase",5399,"","70"
"00161487MT",97,24,"BACKWARD RL VERSION D","NEW","NAP","SLEEP","ON2","F","JOL","Study Phase",2711,"","90"
"00161487MT",98,24,"BACKWARD RL VERSION D","NEW","TIE","SHOELACE","ON2","B","JOL","Study Phase",6989,"","90"
"00161487MT",99,24,"BACKWARD RL VERSION D","NEW","BANG","FUZZY","ON2","U","JOL","Study Phase",4382,"","70"
"00161487MT",100,24,"BACKWARD RL VERSION D","NEW","BALLOON","POP","ON2","F","JOL","Study Phase",3384,"","90"
"00161487MT",101,24,"BACKWARD RL VERSION D","NEW","BRACELET","WRIST","ON2","S","JOL","Study Phase",2811,"","90"
"00161487MT",102,24,"BACKWARD RL VERSION D","NEW","RED","CHERRY","ON2","B","JOL","Study Phase",1972,"","90"
"00161487MT",103,24,"BACKWARD RL VERSION D","NEW","EAT","DINE","ON2","B","JOL","Study Phase",2060,"","90"
"00161487MT",104,24,"BACKWARD RL VERSION D","NEW","GAME","CLUE","ON2","B","JOL","Study Phase",2667,"","90"
"00161487MT",115,24,"BACKWARD RL VERSION D","NEW","JOKE","KEYS","ON2","U","Test","Recall1",21119,"laugh ",NA
"00161487MT",116,24,"BACKWARD RL VERSION D","NEW","COLD","CHILL","ON2","B","Test","Recall1",2889,"ice",NA
"00161487MT",117,24,"BACKWARD RL VERSION D","NEW","TRUTHFUL","HONEST","ON2","F","Test","Recall1",3801,"honest ",NA
"00161487MT",118,24,"BACKWARD RL VERSION D","NEW","CHARM","VEHICLE","ON2","U","Test","Recall1",4690,"nice ",NA
"00161487MT",119,24,"BACKWARD RL VERSION D","NEW","GAME","CLUE","ON2","B","Test","Recall1",2688,"fun",NA
"00161487MT",120,24,"BACKWARD RL VERSION D","NEW","AWAY","GONE","ON2","S","Test","Recall1",6648,"gone",NA
"00161487MT",121,24,"BACKWARD RL VERSION D","NEW","MAROON","JUSTICE","ON2","U","Test","Recall1",53379,"Justice ",NA
"00161487MT",122,24,"BACKWARD RL VERSION D","NEW","SMELL","INCENSE","ON2","B","Test","Recall1",38880,"incense ",NA
"00161487MT",123,24,"BACKWARD RL VERSION D","NEW","PAPER","DOCUMENT","ON2","B","Test","Recall1",13598,"document ",NA
"00161487MT",124,24,"BACKWARD RL VERSION D","NEW","FLIP","TURN","ON2","F","Test","Recall1",66507,"turn",NA
"00161487MT",125,24,"BACKWARD RL VERSION D","NEW","RED","CHERRY","ON2","B","Test","Recall1",16102,"cherry",NA
"00161487MT",126,24,"BACKWARD RL VERSION D","NEW","EQUAL","RIGHTS","ON2","S","Test","Recall1",2449,"rights",NA
"00161487MT",127,24,"BACKWARD RL VERSION D","NEW","PANTHER","CAT","ON2","F","Test","Recall1",49121,"cat",NA
"00161487MT",128,24,"BACKWARD RL VERSION D","NEW","FIGHT","FEUD","ON2","B","Test","Recall1",44027,"feud ",NA
"00161487MT",129,24,"BACKWARD RL VERSION D","NEW","LEAGUE","BASEBALL","ON2","F","Test","Recall1",4755,"baseball",NA
"00161487MT",130,24,"BACKWARD RL VERSION D","NEW","WET","DRY","ON2","S","Test","Recall1",4376,"dry",NA
"00161487MT",131,24,"BACKWARD RL VERSION D","NEW","MORNING","TEMPERATURE","ON2","U","Test","Recall1",10879,"temperature ",NA
"00161487MT",132,24,"BACKWARD RL VERSION D","NEW","FICTION","LISTEN","ON2","U","Test","Recall1",17457,"listen ",NA
"00161487MT",133,24,"BACKWARD RL VERSION D","NEW","SEATBELT","SAFETY","ON2","S","Test","Recall1",8449,"safety ",NA
"00161487MT",134,24,"BACKWARD RL VERSION D","NEW","TEMPER","TANTRUM","ON2","S","Test","Recall1",51721,"Tantrum ",NA
"00161487MT",135,24,"BACKWARD RL VERSION D","NEW","COFFIN","DEAD","ON2","F","Test","Recall1",2252,"dead",NA
"00161487MT",136,24,"BACKWARD RL VERSION D","NEW","AIRCRAFT","PLANE","ON2","F","Test","Recall1",3209,"Plane",NA
"00161487MT",137,24,"BACKWARD RL VERSION D","NEW","ACTRESS","STAR","ON2","F","Test","Recall1",31927,"star ",NA
"00161487MT",138,24,"BACKWARD RL VERSION D","NEW","ELECTION","MAZE","ON2","U","Test","Recall1",28482,"maze",NA
"00161487MT",139,24,"BACKWARD RL VERSION D","NEW","PENGUIN","BIRD","ON2","F","Test","Recall1",2871,"bird",NA
"00161487MT",140,24,"BACKWARD RL VERSION D","NEW","TRASH","LITTER","ON2","B","Test","Recall1",2717,"litter",NA
"00161487MT",141,24,"BACKWARD RL VERSION D","NEW","VILLAIN","BAD","ON2","F","Test","Recall1",66384,"bad",NA
"00161487MT",142,24,"BACKWARD RL VERSION D","NEW","CHILDREN","MIRROR","ON2","U","Test","Recall1",25392,"mirror ",NA
"00161487MT",143,24,"BACKWARD RL VERSION D","NEW","GROUND","EARTH","ON2","S","Test","Recall1",63544,"earth",NA
"00161487MT",144,24,"BACKWARD RL VERSION D","NEW","CLEAR","MOAT","ON2","U","Test","Recall1",53712,"moat ",NA
"00161487MT",145,24,"BACKWARD RL VERSION D","NEW","WINDSHIELD","CAR","ON2","F","Test","Recall1",2777,"car",NA
"00161487MT",146,24,"BACKWARD RL VERSION D","NEW","BANG","FUZZY","ON2","U","Test","Recall1",18074,"fuzzy",NA
"00161487MT",147,24,"BACKWARD RL VERSION D","NEW","DRINK","WATER","ON2","S","Test","Recall1",3471,"water",NA
"00161487MT",148,24,"BACKWARD RL VERSION D","NEW","OUNCE","BOTH","ON2","U","Test","Recall1",10289,"both",NA
"00161487MT",149,24,"BACKWARD RL VERSION D","NEW","SHAVE","RAZOR","ON2","S","Test","Recall1",8433,"razor ",NA
"00161487MT",150,24,"BACKWARD RL VERSION D","NEW","TIE","SHOELACE","ON2","B","Test","Recall1",17698,"shoelace ",NA
"00161487MT",151,24,"BACKWARD RL VERSION D","NEW","HEAD","SCALP","ON2","B","Test","Recall1",7909,"scalp ",NA
"00161487MT",152,24,"BACKWARD RL VERSION D","NEW","LOVE","AFFECTION","ON2","B","Test","Recall1",14655,"extension ",NA
"00161487MT",153,24,"BACKWARD RL VERSION D","NEW","END","ADJOURN","ON2","B","Test","Recall1",42729,"adjourn ",NA
"00161487MT",154,24,"BACKWARD RL VERSION D","NEW","SIGN","LOAN","ON2","U","Test","Recall1",78006,"loan ",NA
"00161487MT",155,24,"BACKWARD RL VERSION D","NEW","NAP","SLEEP","ON2","F","Test","Recall1",71578,"sleep",NA
"00161487MT",156,24,"BACKWARD RL VERSION D","NEW","REVENGE","EVEN","ON2","F","Test","Recall1",2645,"even",NA
"00161487MT",157,24,"BACKWARD RL VERSION D","NEW","ABLE","CRACKLE","ON2","U","Test","Recall1",74470,"crackle ",NA
"00161487MT",158,24,"BACKWARD RL VERSION D","NEW","TOIL","LEASE","ON2","U","Test","Recall1",67133,"lease",NA
"00161487MT",159,24,"BACKWARD RL VERSION D","NEW","COMMUNICATION","PHONE","ON2","S","Test","Recall1",3652,"phone",NA
"00161487MT",160,24,"BACKWARD RL VERSION D","NEW","CAR","DRIVER","ON2","B","Test","Recall1",6417,"driver",NA
"00161487MT",161,24,"BACKWARD RL VERSION D","NEW","DOG","FURRY","ON2","B","Test","Recall1",10567,"furry",NA
"00161487MT",162,24,"BACKWARD RL VERSION D","NEW","BALLOON","POP","ON2","F","Test","Recall1",7219,"pop",NA
"00161487MT",163,24,"BACKWARD RL VERSION D","NEW","CUT","CHOP","ON2","B","Test","Recall1",22721,"chop",NA
"00161487MT",164,24,"BACKWARD RL VERSION D","NEW","REEL","ROD","ON2","S","Test","Recall1",23372,"rod",NA
"00161487MT",165,24,"BACKWARD RL VERSION D","NEW","OBTAIN","MEAT","ON2","U","Test","Recall1",57672,"meat",NA
"00161487MT",166,24,"BACKWARD RL VERSION D","NEW","CARBON","ELEMENT","ON2","S","Test","Recall1",7177,"element ",NA
"00161487MT",167,24,"BACKWARD RL VERSION D","NEW","SCISSORS","SHEARS","ON2","B","Test","Recall1",59835,"shears",NA
"00161487MT",168,24,"BACKWARD RL VERSION D","NEW","STRAWBERRY","FRUIT","ON2","F","Test","Recall1",3661,"fruit ",NA
"00161487MT",169,24,"BACKWARD RL VERSION D","NEW","FAVORITE","BEST","ON2","F","Test","Recall1",2851,"best",NA
"00161487MT",170,24,"BACKWARD RL VERSION D","NEW","BREAKABLE","GLASS","ON2","F","Test","Recall1",3292,"glass",NA
"00161487MT",171,24,"BACKWARD RL VERSION D","NEW","BRAWL","FIGHT","ON2","F","Test","Recall1",43319,"fight",NA
"00161487MT",172,24,"BACKWARD RL VERSION D","NEW","WAX","CANDLE","ON2","S","Test","Recall1",67896,"candle ",NA
"00161487MT",173,24,"BACKWARD RL VERSION D","NEW","LONELY","ALONE","ON2","S","Test","Recall1",8047,"alone ",NA
"00161487MT",174,24,"BACKWARD RL VERSION D","NEW","EAT","DINE","ON2","B","Test","Recall1",55151,"dine",NA
"00161487MT",175,24,"BACKWARD RL VERSION D","NEW","PLANT","CACTUS","ON2","B","Test","Recall1",31689,"cactus",NA
"00161487MT",176,24,"BACKWARD RL VERSION D","NEW","SARDINE","FISH","ON2","F","Test","Recall1",2991,"fish",NA
"00161487MT",177,24,"BACKWARD RL VERSION D","NEW","HAVE","OWN","ON2","S","Test","Recall1",2670,"own",NA
"00161487MT",178,24,"BACKWARD RL VERSION D","NEW","CLOTH","STRETCH","ON2","U","Test","Recall1",16645,"stretch",NA
"00161487MT",179,24,"BACKWARD RL VERSION D","NEW","SCAR","MAIN","ON2","U","Test","Recall1",37363,"main",NA
"00161487MT",180,24,"BACKWARD RL VERSION D","NEW","HATE","NAME","ON2","U","Test","Recall1",62205,"feel",NA
"00161487MT",181,24,"BACKWARD RL VERSION D","NEW","SHAKE","SHELL","ON2","U","Test","Recall1",24129,"shell",NA
"00161487MT",182,24,"BACKWARD RL VERSION D","NEW","NOISE","LOUD","ON2","S","Test","Recall1",2915,"loud",NA
"00161487MT",183,24,"BACKWARD RL VERSION D","NEW","STEAK","GIVE","ON2","U","Test","Recall1",19526,"give",NA
"00161487MT",184,24,"BACKWARD RL VERSION D","NEW","LIE","TRUTH","ON2","S","Test","Recall1",21602,"truth",NA
"00161487MT",185,24,"BACKWARD RL VERSION D","NEW","JAR","MASON","ON2","S","Test","Recall1",5504,"mason ",NA
"00161487MT",186,24,"BACKWARD RL VERSION D","NEW","THIMBLE","THREAD","ON2","F","Test","Recall1",4728,"thread",NA
"00161487MT",187,24,"BACKWARD RL VERSION D","NEW","TICK","FLEA","ON2","S","Test","Recall1",47003,"flea",NA
"00161487MT",188,24,"BACKWARD RL VERSION D","NEW","TAN","SUN","ON2","S","Test","Recall1",2573,"sun",NA
"00161487MT",189,24,"BACKWARD RL VERSION D","NEW","CLOTHES","CAKE","ON2","U","Test","Recall1",54805,"cake",NA
"00161487MT",190,24,"BACKWARD RL VERSION D","NEW","BRACELET","WRIST","ON2","S","Test","Recall1",7972,"wrist",NA
"00161487MT",191,24,"BACKWARD RL VERSION D","NEW","BANKER","MONEY","ON2","F","Test","Recall1",3335,"money",NA
"00161487MT",192,24,"BACKWARD RL VERSION D","NEW","MYSTERY","DETECTIVE","ON2","B","Test","Recall1",4792,"detective ",NA
"00161487MT",193,24,"BACKWARD RL VERSION D","NEW","DONKEY","MULE","ON2","B","Test","Recall1",3069,"mule",NA
"00161487MT",194,24,"BACKWARD RL VERSION D","NEW","LONG","EXTENSION","ON2","B","Test","Recall1",28148,"extension ",NA
"00161487MT",209,24,"BACKWARD RL VERSION D","NEW","CLEAN","HYGIENE","ON","B","JOL","Study Phase2",12107,"","90"
"00161487MT",210,24,"BACKWARD RL VERSION D","NEW","SEIZE","TAKE","ON","F","JOL","Study Phase2",9309,"","90"
"00161487MT",211,24,"BACKWARD RL VERSION D","NEW","STING","HORNET","ON","B","JOL","Study Phase2",7869,"","90"
"00161487MT",212,24,"BACKWARD RL VERSION D","NEW","SITE","LOCATION","ON","S","JOL","Study Phase2",8784,"","90"
"00161487MT",213,24,"BACKWARD RL VERSION D","NEW","ROUND","CIRCLE","ON","S","JOL","Study Phase2",7984,"","90"
"00161487MT",214,24,"BACKWARD RL VERSION D","NEW","CAR","HAPPY","ON","U","JOL","Study Phase2",10377,"","70"
"00161487MT",215,24,"BACKWARD RL VERSION D","NEW","CHORE","WORK","ON","F","JOL","Study Phase2",8176,"","90"
"00161487MT",216,24,"BACKWARD RL VERSION D","NEW","RIDDLE","SUGAR","ON","U","JOL","Study Phase2",10704,"","50"
"00161487MT",217,24,"BACKWARD RL VERSION D","NEW","SICK","HIDE","ON","U","JOL","Study Phase2",9467,"","50"
"00161487MT",218,24,"BACKWARD RL VERSION D","NEW","DROWSY","SLEEP","ON","F","JOL","Study Phase2",9372,"","80"
"00161487MT",219,24,"BACKWARD RL VERSION D","NEW","SIP","DRINK","ON","F","JOL","Study Phase2",8576,"","90"
"00161487MT",220,24,"BACKWARD RL VERSION D","NEW","SALAD","LETTUCE","ON","S","JOL","Study Phase2",10242,"","90"
"00161487MT",221,24,"BACKWARD RL VERSION D","NEW","MONEY","WAGE","ON","B","JOL","Study Phase2",11721,"","90"
"00161487MT",222,24,"BACKWARD RL VERSION D","NEW","FUTURE","PAST","ON","S","JOL","Study Phase2",9919,"","90"
"00161487MT",223,24,"BACKWARD RL VERSION D","NEW","STENCH","SMELL","ON","F","JOL","Study Phase2",9857,"","90"
"00161487MT",224,24,"BACKWARD RL VERSION D","NEW","DEFINITION","MEANING","ON","S","JOL","Study Phase2",11806,"","90"
"00161487MT",225,24,"BACKWARD RL VERSION D","NEW","BRONZE","ARTERY","ON","U","JOL","Study Phase2",13961,"","50"
"00161487MT",226,24,"BACKWARD RL VERSION D","NEW","LION","ART","ON","U","JOL","Study Phase2",7618,"","50"
"00161487MT",227,24,"BACKWARD RL VERSION D","NEW","VASE","KING","ON","U","JOL","Study Phase2",7795,"","60"
"00161487MT",228,24,"BACKWARD RL VERSION D","NEW","FLOOR","DISCOVER","ON","U","JOL","Study Phase2",11047,"","50"
"00161487MT",229,24,"BACKWARD RL VERSION D","NEW","FAMINE","HUNGER","ON","F","JOL","Study Phase2",9888,"","80"
"00161487MT",230,24,"BACKWARD RL VERSION D","NEW","WAR","REVOLUTION","ON","B","JOL","Study Phase2",8089,"","80"
"00161487MT",231,24,"BACKWARD RL VERSION D","NEW","JURY","TRIAL","ON","S","JOL","Study Phase2",7423,"","90"
"00161487MT",232,24,"BACKWARD RL VERSION D","NEW","BUSINESS","DEATH","ON","U","JOL","Study Phase2",10307,"","50"
"00161487MT",233,24,"BACKWARD RL VERSION D","NEW","WIND","BLOW","ON","S","JOL","Study Phase2",6383,"","90"
"00161487MT",234,24,"BACKWARD RL VERSION D","NEW","BEE","HONEY","ON","S","JOL","Study Phase2",6709,"","90"
"00161487MT",235,24,"BACKWARD RL VERSION D","NEW","CARD","CREDIT","ON","B","JOL","Study Phase2",10117,"","90"
"00161487MT",236,24,"BACKWARD RL VERSION D","NEW","SACKING","DIETARY","ON","U","JOL","Study Phase2",15318,"","50"
"00161487MT",237,24,"BACKWARD RL VERSION D","NEW","DESIGN","ARCHITECTURE","ON","S","JOL","Study Phase2",13179,"","70"
"00161487MT",238,24,"BACKWARD RL VERSION D","NEW","CAVE","DARK","ON","F","JOL","Study Phase2",7154,"","90"
"00161487MT",239,24,"BACKWARD RL VERSION D","NEW","WOMAN","LIFT","ON","U","JOL","Study Phase2",7643,"","70"
"00161487MT",240,24,"BACKWARD RL VERSION D","NEW","HUNGRY","PARK","ON","U","JOL","Study Phase2",10598,"","50"
"00161487MT",241,24,"BACKWARD RL VERSION D","NEW","NEWS","EDITOR","ON","B","JOL","Study Phase2",8531,"","90"
"00161487MT",242,24,"BACKWARD RL VERSION D","NEW","COLD","BITTER","ON","B","JOL","Study Phase2",7371,"","70"
"00161487MT",243,24,"BACKWARD RL VERSION D","NEW","GROWTH","HEIGHT","ON","F","JOL","Study Phase2",11377,"","70"
"00161487MT",245,24,"BACKWARD RL VERSION D","NEW","ATTIRE","CLOTHES","ON","F","JOL","Study Phase2",9276,"","90"
"00161487MT",246,24,"BACKWARD RL VERSION D","NEW","ASSIGNMENT","DUE","ON","S","JOL","Study Phase2",8690,"","90"
"00161487MT",247,24,"BACKWARD RL VERSION D","NEW","CHEESE","WINE","ON","S","JOL","Study Phase2",9155,"","90"
"00161487MT",248,24,"BACKWARD RL VERSION D","NEW","FLOWER","ORCHID","ON","B","JOL","Study Phase2",10325,"","90"
"00161487MT",249,24,"BACKWARD RL VERSION D","NEW","BELT","SOON","ON","U","JOL","Study Phase2",7406,"","50"
"00161487MT",250,24,"BACKWARD RL VERSION D","NEW","LATCH","KEY","ON","F","JOL","Study Phase2",8093,"","60"
"00161487MT",251,24,"BACKWARD RL VERSION D","NEW","CHILD","BABY","ON","S","JOL","Study Phase2",11016,"","70"
"00161487MT",252,24,"BACKWARD RL VERSION D","NEW","HAMMER","CHISEL","ON","B","JOL","Study Phase2",9503,"","90"
"00161487MT",253,24,"BACKWARD RL VERSION D","NEW","WOULD","CASH","ON","U","JOL","Study Phase2",7246,"","50"
"00161487MT",254,24,"BACKWARD RL VERSION D","NEW","ATTORNEY","LAW","ON","F","JOL","Study Phase2",10162,"","90"
"00161487MT",255,24,"BACKWARD RL VERSION D","NEW","ADD","VALLEY","ON","U","JOL","Study Phase2",7401,"","50"
"00161487MT",256,24,"BACKWARD RL VERSION D","NEW","LIVER","KIDNEY","ON","S","JOL","Study Phase2",8176,"","90"
"00161487MT",257,24,"BACKWARD RL VERSION D","NEW","RACKET","BALL","ON","F","JOL","Study Phase2",11001,"","90"
"00161487MT",258,24,"BACKWARD RL VERSION D","NEW","WASTE","DUMP","ON","S","JOL","Study Phase2",10001,"","90"
"00161487MT",259,24,"BACKWARD RL VERSION D","NEW","WORD","SENTENCE","ON","F","JOL","Study Phase2",10338,"","90"
"00161487MT",260,24,"BACKWARD RL VERSION D","NEW","FISH","TUNA","ON","B","JOL","Study Phase2",11652,"","90"
"00161487MT",261,24,"BACKWARD RL VERSION D","NEW","ENOUGH","FULL","ON","F","JOL","Study Phase2",13273,"","90"
"00161487MT",262,24,"BACKWARD RL VERSION D","NEW","CLUTTER","PUSHER","ON","U","JOL","Study Phase2",9899,"","50"
"00161487MT",263,24,"BACKWARD RL VERSION D","NEW","BIRD","SWAN","ON","B","JOL","Study Phase2",6740,"","70"
"00161487MT",264,24,"BACKWARD RL VERSION D","NEW","ACCIDENT","STRONG","ON","U","JOL","Study Phase2",10854,"","50"
"00161487MT",265,24,"BACKWARD RL VERSION D","NEW","TALK","DISCUSSION","ON","B","JOL","Study Phase2",11145,"","70"
"00161487MT",266,24,"BACKWARD RL VERSION D","NEW","PLANT","ROOT","ON","B","JOL","Study Phase2",6526,"","80"
"00161487MT",267,24,"BACKWARD RL VERSION D","NEW","FOOT","SHOE","ON","S","JOL","Study Phase2",6450,"","90"
"00161487MT",268,24,"BACKWARD RL VERSION D","NEW","DIVISION","MATH","ON","F","JOL","Study Phase2",7374,"","90"
"00161487MT",269,24,"BACKWARD RL VERSION D","NEW","STOMACH","DIGESTION","ON","B","JOL","Study Phase2",11244,"","90"
"00161487MT",270,24,"BACKWARD RL VERSION D","NEW","WATER","BRIDGE","ON","B","JOL","Study Phase2",8974,"","90"
"00161487MT",271,24,"BACKWARD RL VERSION D","NEW","HAND","FIX","ON","U","JOL","Study Phase2",9079,"","50"
"00161487MT",272,24,"BACKWARD RL VERSION D","NEW","TOILET","BATHROOM","ON","S","JOL","Study Phase2",10732,"","90"
"00161487MT",273,24,"BACKWARD RL VERSION D","NEW","PILOT","PLANE","ON","F","JOL","Study Phase2",11290,"","90"
"00161487MT",274,24,"BACKWARD RL VERSION D","NEW","WASP","BUG","ON","F","JOL","Study Phase2",7910,"","90"
"00161487MT",275,24,"BACKWARD RL VERSION D","NEW","CHILI","HOT","ON","F","JOL","Study Phase2",6848,"","90"
"00161487MT",276,24,"BACKWARD RL VERSION D","NEW","SIGHT","DEBATE","ON","U","JOL","Study Phase2",10493,"","50"
"00161487MT",277,24,"BACKWARD RL VERSION D","NEW","TUCK","ALLOW","ON","U","JOL","Study Phase2",8252,"","50"
"00161487MT",278,24,"BACKWARD RL VERSION D","NEW","OUT","WAY","ON","B","JOL","Study Phase2",6892,"","70"
"00161487MT",279,24,"BACKWARD RL VERSION D","NEW","BAD","DELINQUENT","ON","B","JOL","Study Phase2",10801,"","80"
"00161487MT",280,24,"BACKWARD RL VERSION D","NEW","FANTASTIC","GREAT","ON","F","JOL","Study Phase2",15651,"","90"
"00161487MT",281,24,"BACKWARD RL VERSION D","NEW","COW","HERD","ON","B","JOL","Study Phase2",6417,"","90"
"00161487MT",282,24,"BACKWARD RL VERSION D","NEW","SODA","POP","ON","S","JOL","Study Phase2",9567,"","90"
"00161487MT",283,24,"BACKWARD RL VERSION D","NEW","BLAZE","FIRE","ON","F","JOL","Study Phase2",7486,"","90"
"00161487MT",284,24,"BACKWARD RL VERSION D","NEW","END","BEGIN","ON","S","JOL","Study Phase2",6094,"","90"
"00161487MT",285,24,"BACKWARD RL VERSION D","NEW","DOG","PAW","ON","B","JOL","Study Phase2",7291,"","90"
"00161487MT",286,24,"BACKWARD RL VERSION D","NEW","AMOUNT","NUMBER","ON","S","JOL","Study Phase2",11394,"","90"
"00161487MT",287,24,"BACKWARD RL VERSION D","NEW","POSITION","MACHINE","ON","U","JOL","Study Phase2",12660,"","50"
"00161487MT",288,24,"BACKWARD RL VERSION D","NEW","BAR","GRILL","ON","S","JOL","Study Phase2",6375,"","90"
"00161487MT",289,24,"BACKWARD RL VERSION D","NEW","ROCK","GEOLOGY","ON","B","JOL","Study Phase2",8324,"","60"
"00161487MT",300,24,"BACKWARD RL VERSION D","NEW","VASE","KING","ON","U","Test","Recall2",13240,"king",NA
"00161487MT",301,24,"BACKWARD RL VERSION D","NEW","FLOWER","ORCHID","ON","B","Test","Recall2",11584,"orchid",NA
"00161487MT",302,24,"BACKWARD RL VERSION D","NEW","WASTE","DUMP","ON","S","Test","Recall2",9827,"dump",NA
"00161487MT",303,24,"BACKWARD RL VERSION D","NEW","OUT","WAY","ON","B","Test","Recall2",5574,"away",NA
"00161487MT",304,24,"BACKWARD RL VERSION D","NEW","HAMMER","CHISEL","ON","B","Test","Recall2",17079,"chisel ",NA
"00161487MT",305,24,"BACKWARD RL VERSION D","NEW","FOOT","SHOE","ON","S","Test","Recall2",10478,"shoe",NA
"00161487MT",306,24,"BACKWARD RL VERSION D","NEW","ROUND","CIRCLE","ON","S","Test","Recall2",27012,"circle ",NA
"00161487MT",307,24,"BACKWARD RL VERSION D","NEW","JURY","TRIAL","ON","S","Test","Recall2",4013,"trial",NA
"00161487MT",308,24,"BACKWARD RL VERSION D","NEW","DEFINITION","MEANING","ON","S","Test","Recall2",4439,"meaning",NA
"00161487MT",309,24,"BACKWARD RL VERSION D","NEW","RACKET","BALL","ON","F","Test","Recall2",4974,"ball",NA
"00161487MT",310,24,"BACKWARD RL VERSION D","NEW","CARD","CREDIT","ON","B","Test","Recall2",4720,"credit ",NA
"00161487MT",311,24,"BACKWARD RL VERSION D","NEW","SODA","POP","ON","S","Test","Recall2",3177,"pop",NA
"00161487MT",312,24,"BACKWARD RL VERSION D","NEW","LION","ART","ON","U","Test","Recall2",7145,"art",NA
"00161487MT",313,24,"BACKWARD RL VERSION D","NEW","BUSINESS","DEATH","ON","U","Test","Recall2",12521,"death",NA
"00161487MT",314,24,"BACKWARD RL VERSION D","NEW","RIDDLE","SUGAR","ON","U","Test","Recall2",8085,"sugar",NA
"00161487MT",315,24,"BACKWARD RL VERSION D","NEW","AMOUNT","NUMBER","ON","S","Test","Recall2",36686,"number",NA
"00161487MT",316,24,"BACKWARD RL VERSION D","NEW","DESIGN","ARCHITECTURE","ON","S","Test","Recall2",11255,"architecture ",NA
"00161487MT",317,24,"BACKWARD RL VERSION D","NEW","ROCK","GEOLOGY","ON","B","Test","Recall2",16023,"geology ",NA
"00161487MT",318,24,"BACKWARD RL VERSION D","NEW","WIND","BLOW","ON","S","Test","Recall2",3185,"blow",NA
"00161487MT",319,24,"BACKWARD RL VERSION D","NEW","LATCH","KEY","ON","F","Test","Recall2",13777,"key",NA
"00161487MT",320,24,"BACKWARD RL VERSION D","NEW","MONEY","WAGE","ON","B","Test","Recall2",26873,"wage",NA
"00161487MT",321,24,"BACKWARD RL VERSION D","NEW","END","BEGIN","ON","S","Test","Recall2",4247,"begin",NA
"00161487MT",322,24,"BACKWARD RL VERSION D","NEW","HAND","FIX","ON","U","Test","Recall2",2771,"fix",NA
"00161487MT",323,24,"BACKWARD RL VERSION D","NEW","TOILET","BATHROOM","ON","S","Test","Recall2",5343,"bathroom",NA
"00161487MT",324,24,"BACKWARD RL VERSION D","NEW","BELT","SOON","ON","U","Test","Recall2",9474,"soon",NA
"00161487MT",325,24,"BACKWARD RL VERSION D","NEW","CHILD","BABY","ON","S","Test","Recall2",4016,"baby",NA
"00161487MT",326,24,"BACKWARD RL VERSION D","NEW","FANTASTIC","GREAT","ON","F","Test","Recall2",4617,"great",NA
"00161487MT",327,24,"BACKWARD RL VERSION D","NEW","ENOUGH","FULL","ON","F","Test","Recall2",4995,"full",NA
"00161487MT",328,24,"BACKWARD RL VERSION D","NEW","COLD","BITTER","ON","B","Test","Recall2",22846,"bitter",NA
"00161487MT",329,24,"BACKWARD RL VERSION D","NEW","FLOOR","DISCOVER","ON","U","Test","Recall2",15912,"discover",NA
"00161487MT",330,24,"BACKWARD RL VERSION D","NEW","PLANT","ROOT","ON","B","Test","Recall2",15997,"root",NA
"00161487MT",331,24,"BACKWARD RL VERSION D","NEW","WOMAN","LIFT","ON","U","Test","Recall2",19048,"lift",NA
"00161487MT",332,24,"BACKWARD RL VERSION D","NEW","DROWSY","SLEEP","ON","F","Test","Recall2",4882,"sleep",NA
"00161487MT",333,24,"BACKWARD RL VERSION D","NEW","WASP","BUG","ON","F","Test","Recall2",37251,"bug",NA
"00161487MT",334,24,"BACKWARD RL VERSION D","NEW","SITE","LOCATION","ON","S","Test","Recall2",5778,"location ",NA
"00161487MT",335,24,"BACKWARD RL VERSION D","NEW","LIVER","KIDNEY","ON","S","Test","Recall2",6690,"kindey",NA
"00161487MT",336,24,"BACKWARD RL VERSION D","NEW","WATER","BRIDGE","ON","B","Test","Recall2",25490,"bridge",NA
"00161487MT",337,24,"BACKWARD RL VERSION D","NEW","STOMACH","DIGESTION","ON","B","Test","Recall2",7549,"digest ",NA
"00161487MT",338,24,"BACKWARD RL VERSION D","NEW","PILOT","PLANE","ON","F","Test","Recall2",9983,"plane",NA
"00161487MT",339,24,"BACKWARD RL VERSION D","NEW","COW","HERD","ON","B","Test","Recall2",3231,"herd",NA
"00161487MT",340,24,"BACKWARD RL VERSION D","NEW","SICK","HIDE","ON","U","Test","Recall2",13369,"hide",NA
"00161487MT",341,24,"BACKWARD RL VERSION D","NEW","CHORE","WORK","ON","F","Test","Recall2",3642,"work",NA
"00161487MT",342,24,"BACKWARD RL VERSION D","NEW","CHEESE","WINE","ON","S","Test","Recall2",3825,"wine",NA
"00161487MT",343,24,"BACKWARD RL VERSION D","NEW","BRONZE","ARTERY","ON","U","Test","Recall2",24660,"artery",NA
"00161487MT",344,24,"BACKWARD RL VERSION D","NEW","WORD","SENTENCE","ON","F","Test","Recall2",5834,"sentence ",NA
"00161487MT",345,24,"BACKWARD RL VERSION D","NEW","BAR","GRILL","ON","S","Test","Recall2",2986,"grill",NA
"00161487MT",346,24,"BACKWARD RL VERSION D","NEW","ASSIGNMENT","DUE","ON","S","Test","Recall2",2978,"due",NA
"00161487MT",347,24,"BACKWARD RL VERSION D","NEW","WOULD","CASH","ON","U","Test","Recall2",49958,"cast",NA
"00161487MT",348,24,"BACKWARD RL VERSION D","NEW","STENCH","SMELL","ON","F","Test","Recall2",3470,"smell",NA
"00161487MT",349,24,"BACKWARD RL VERSION D","NEW","SIP","DRINK","ON","F","Test","Recall2",9945,"drink",NA
"00161487MT",350,24,"BACKWARD RL VERSION D","NEW","SIGHT","DEBATE","ON","U","Test","Recall2",46646,"debate",NA
"00161487MT",351,24,"BACKWARD RL VERSION D","NEW","ACCIDENT","STRONG","ON","U","Test","Recall2",35762,"strong ",NA
"00161487MT",352,24,"BACKWARD RL VERSION D","NEW","DIVISION","MATH","ON","F","Test","Recall2",3436,"math",NA
"00161487MT",353,24,"BACKWARD RL VERSION D","NEW","SACKING","DIETARY","ON","U","Test","Recall2",23874,"dietary ",NA
"00161487MT",354,24,"BACKWARD RL VERSION D","NEW","ADD","VALLEY","ON","U","Test","Recall2",10853,"valley ",NA
"00161487MT",355,24,"BACKWARD RL VERSION D","NEW","CHILI","HOT","ON","F","Test","Recall2",6355,"hot",NA
"00161487MT",356,24,"BACKWARD RL VERSION D","NEW","CLEAN","HYGIENE","ON","B","Test","Recall2",73089,"nice",NA
"00161487MT",357,24,"BACKWARD RL VERSION D","NEW","CAR","HAPPY","ON","U","Test","Recall2",10173,"happy",NA
"00161487MT",358,24,"BACKWARD RL VERSION D","NEW","ATTORNEY","LAW","ON","F","Test","Recall2",5807,"law",NA
"00161487MT",359,24,"BACKWARD RL VERSION D","NEW","HUNGRY","PARK","ON","U","Test","Recall2",20734,"park",NA
"00161487MT",360,24,"BACKWARD RL VERSION D","NEW","STING","HORNET","ON","B","Test","Recall2",18192,"hornet",NA
"00161487MT",361,24,"BACKWARD RL VERSION D","NEW","POSITION","MACHINE","ON","U","Test","Recall2",7425,"machine",NA
"00161487MT",362,24,"BACKWARD RL VERSION D","NEW","FAMINE","HUNGER","ON","F","Test","Recall2",9699,"hunger",NA
"00161487MT",363,24,"BACKWARD RL VERSION D","NEW","FUTURE","PAST","ON","S","Test","Recall2",3544,"past",NA
"00161487MT",364,24,"BACKWARD RL VERSION D","NEW","ATTIRE","CLOTHES","ON","F","Test","Recall2",14370,"clothes",NA
"00161487MT",365,24,"BACKWARD RL VERSION D","NEW","SEIZE","TAKE","ON","F","Test","Recall2",7412,"take",NA
"00161487MT",366,24,"BACKWARD RL VERSION D","NEW","DOG","PAW","ON","B","Test","Recall2",10575,"paw",NA
"00161487MT",367,24,"BACKWARD RL VERSION D","NEW","BAD","DELINQUENT","ON","B","Test","Recall2",10905,"delinquent",NA
"00161487MT",368,24,"BACKWARD RL VERSION D","NEW","TALK","DISCUSSION","ON","B","Test","Recall2",13122,"discussion",NA
"00161487MT",369,24,"BACKWARD RL VERSION D","NEW","WAR","REVOLUTION","ON","B","Test","Recall2",6294,"revolution",NA
"00161487MT",370,24,"BACKWARD RL VERSION D","NEW","CAVE","DARK","ON","F","Test","Recall2",4822,"dark",NA
"00161487MT",371,24,"BACKWARD RL VERSION D","NEW","SALAD","LETTUCE","ON","S","Test","Recall2",28301,"lettuce ",NA
"00161487MT",372,24,"BACKWARD RL VERSION D","NEW","NEWS","EDITOR","ON","B","Test","Recall2",12081,"editor ",NA
"00161487MT",373,24,"BACKWARD RL VERSION D","NEW","TUCK","ALLOW","ON","U","Test","Recall2",13673,"allow",NA
"00161487MT",374,24,"BACKWARD RL VERSION D","NEW","CLUTTER","PUSHER","ON","U","Test","Recall2",9393,"pusher",NA
"00161487MT",375,24,"BACKWARD RL VERSION D","NEW","BEE","HONEY","ON","S","Test","Recall2",4523,"honey",NA
"00161487MT",376,24,"BACKWARD RL VERSION D","NEW","GROWTH","HEIGHT","ON","F","Test","Recall2",26239,"height",NA
"00161487MT",377,24,"BACKWARD RL VERSION D","NEW","BIRD","SWAN","ON","B","Test","Recall2",5662,"swan",NA
"00161487MT",378,24,"BACKWARD RL VERSION D","NEW","FISH","TUNA","ON","B","Test","Recall2",8741,"tuna",NA
"00161487MT",379,24,"BACKWARD RL VERSION D","NEW","BLAZE","FIRE","ON","F","Test","Recall2",14933,"fire",NA
"946403SK",24,11,"RELATIONAL Version C","OLD","DOG","PAW","ON","B","JOL","Study Phase",1562,"","100"
"946403SK",25,11,"RELATIONAL Version C","OLD","WASP","BUG","ON","F","JOL","Study Phase",1446,"","100"
"946403SK",26,11,"RELATIONAL Version C","OLD","RACKET","BALL","ON","F","JOL","Study Phase",1329,"","100"
"946403SK",27,11,"RELATIONAL Version C","OLD","BRONZE","ARTERY","ON","U","JOL","Study Phase",1647,"","20"
"946403SK",28,11,"RELATIONAL Version C","OLD","WIND","BLOW","ON","S","JOL","Study Phase",1594,"","100"
"946403SK",29,11,"RELATIONAL Version C","OLD","ATTORNEY","LAW","ON","F","JOL","Study Phase",1564,"","100"
"946403SK",30,11,"RELATIONAL Version C","OLD","CAR","HAPPY","ON","U","JOL","Study Phase",5546,"","10"
"946403SK",31,11,"RELATIONAL Version C","OLD","TOILET","BATHROOM","ON","S","JOL","Study Phase",1524,"","100"
"946403SK",32,11,"RELATIONAL Version C","OLD","WATER","BRIDGE","ON","B","JOL","Study Phase",1483,"","100"
"946403SK",33,11,"RELATIONAL Version C","OLD","CAVE","DARK","ON","F","JOL","Study Phase",1754,"","20"
"946403SK",34,11,"RELATIONAL Version C","OLD","FOOT","SHOE","ON","S","JOL","Study Phase",1516,"","100"
"946403SK",35,11,"RELATIONAL Version C","OLD","POSITION","MACHINE","ON","U","JOL","Study Phase",2083,"","10"
"946403SK",36,11,"RELATIONAL Version C","OLD","CLUTTER","PUSHER","ON","U","JOL","Study Phase",2584,"","0"
"946403SK",37,11,"RELATIONAL Version C","OLD","HAMMER","CHISEL","ON","B","JOL","Study Phase",2408,"","45"
"946403SK",38,11,"RELATIONAL Version C","OLD","STING","HORNET","ON","B","JOL","Study Phase",2525,"","65"
"946403SK",39,11,"RELATIONAL Version C","OLD","SIP","DRINK","ON","F","JOL","Study Phase",1847,"","100"
"946403SK",40,11,"RELATIONAL Version C","OLD","ROCK","GEOLOGY","ON","B","JOL","Study Phase",1607,"","100"
"946403SK",41,11,"RELATIONAL Version C","OLD","STOMACH","DIGESTION","ON","B","JOL","Study Phase",1466,"","100"
"946403SK",42,11,"RELATIONAL Version C","OLD","FUTURE","PAST","ON","S","JOL","Study Phase",1515,"","100"
"946403SK",43,11,"RELATIONAL Version C","OLD","CHEESE","WINE","ON","S","JOL","Study Phase",1287,"","100"
"946403SK",44,11,"RELATIONAL Version C","OLD","ACCIDENT","STRONG","ON","U","JOL","Study Phase",1265,"","100"
"946403SK",45,11,"RELATIONAL Version C","OLD","BEE","HONEY","ON","S","JOL","Study Phase",1339,"","100"
"946403SK",46,11,"RELATIONAL Version C","OLD","SITE","LOCATION","ON","S","JOL","Study Phase",1632,"","100"
"946403SK",47,11,"RELATIONAL Version C","OLD","BAD","DELINQUENT","ON","B","JOL","Study Phase",1490,"","20"
"946403SK",48,11,"RELATIONAL Version C","OLD","NEWS","EDITOR","ON","B","JOL","Study Phase",1451,"","100"
"946403SK",49,11,"RELATIONAL Version C","OLD","HUNGRY","PARK","ON","U","JOL","Study Phase",2133,"","5"
"946403SK",50,11,"RELATIONAL Version C","OLD","JURY","TRIAL","ON","S","JOL","Study Phase",4570,"","100"
"946403SK",51,11,"RELATIONAL Version C","OLD","ASSIGNMENT","DUE","ON","S","JOL","Study Phase",2128,"","100"
"946403SK",52,11,"RELATIONAL Version C","OLD","WAR","REVOLUTION","ON","B","JOL","Study Phase",1483,"","100"
"946403SK",53,11,"RELATIONAL Version C","OLD","GROWTH","HEIGHT","ON","F","JOL","Study Phase",7750,"","100"
"946403SK",54,11,"RELATIONAL Version C","OLD","ENOUGH","FULL","ON","F","JOL","Study Phase",1490,"","100"
"946403SK",55,11,"RELATIONAL Version C","OLD","ATTIRE","CLOTHES","ON","F","JOL","Study Phase",1107,"","100"
"946403SK",56,11,"RELATIONAL Version C","OLD","TUCK","ALLOW","ON","U","JOL","Study Phase",1108,"","100"
"946403SK",57,11,"RELATIONAL Version C","OLD","ADD","VALLEY","ON","U","JOL","Study Phase",1067,"","100"
"946403SK",59,11,"RELATIONAL Version C","OLD","END","BEGIN","ON","S","JOL","Study Phase",3777,"","50"
"946403SK",60,11,"RELATIONAL Version C","OLD","DESIGN","ARCHITECTURE","ON","S","JOL","Study Phase",1999,"","40"
"946403SK",61,11,"RELATIONAL Version C","OLD","FLOWER","ORCHID","ON","B","JOL","Study Phase",2944,"","10"
"946403SK",62,11,"RELATIONAL Version C","OLD","FANTASTIC","GREAT","ON","F","JOL","Study Phase",1904,"","100"
"946403SK",63,11,"RELATIONAL Version C","OLD","BELT","SOON","ON","U","JOL","Study Phase",1544,"","0"
"946403SK",64,11,"RELATIONAL Version C","OLD","TALK","DISCUSSION","ON","B","JOL","Study Phase",1597,"","100"
"946403SK",65,11,"RELATIONAL Version C","OLD","SIGHT","DEBATE","ON","U","JOL","Study Phase",2441,"","15"
"946403SK",66,11,"RELATIONAL Version C","OLD","BUSINESS","DEATH","ON","U","JOL","Study Phase",1660,"","0"
"946403SK",67,11,"RELATIONAL Version C","OLD","CARD","CREDIT","ON","B","JOL","Study Phase",2300,"","100"
"946403SK",68,11,"RELATIONAL Version C","OLD","LIVER","KIDNEY","ON","S","JOL","Study Phase",2167,"","50"
"946403SK",69,11,"RELATIONAL Version C","OLD","SACKING","DIETARY","ON","U","JOL","Study Phase",1417,"","50"
"946403SK",70,11,"RELATIONAL Version C","OLD","LATCH","KEY","ON","F","JOL","Study Phase",3109,"","40"
"946403SK",71,11,"RELATIONAL Version C","OLD","PLANT","ROOT","ON","B","JOL","Study Phase",1969,"","90"
"946403SK",72,11,"RELATIONAL Version C","OLD","SODA","POP","ON","S","JOL","Study Phase",2335,"","100"
"946403SK",73,11,"RELATIONAL Version C","OLD","LION","ART","ON","U","JOL","Study Phase",1650,"","0"
"946403SK",74,11,"RELATIONAL Version C","OLD","BAR","GRILL","ON","S","JOL","Study Phase",8538,"","85"
"946403SK",75,11,"RELATIONAL Version C","OLD","FISH","TUNA","ON","B","JOL","Study Phase",2506,"","80"
"946403SK",76,11,"RELATIONAL Version C","OLD","ROUND","CIRCLE","ON","S","JOL","Study Phase",2525,"","100"
"946403SK",77,11,"RELATIONAL Version C","OLD","DROWSY","SLEEP","ON","F","JOL","Study Phase",1398,"","100"
"946403SK",78,11,"RELATIONAL Version C","OLD","PILOT","PLANE","ON","F","JOL","Study Phase",1232,"","100"
"946403SK",79,11,"RELATIONAL Version C","OLD","CHILD","BABY","ON","S","JOL","Study Phase",1300,"","100"
"946403SK",80,11,"RELATIONAL Version C","OLD","STENCH","SMELL","ON","F","JOL","Study Phase",2727,"","100"
"946403SK",81,11,"RELATIONAL Version C","OLD","WOMAN","LIFT","ON","U","JOL","Study Phase",1429,"","0"
"946403SK",82,11,"RELATIONAL Version C","OLD","COW","HERD","ON","B","JOL","Study Phase",1948,"","10"
"946403SK",83,11,"RELATIONAL Version C","OLD","WOULD","CASH","ON","U","JOL","Study Phase",1652,"","0"
"946403SK",84,11,"RELATIONAL Version C","OLD","BIRD","SWAN","ON","B","JOL","Study Phase",1585,"","100"
"946403SK",85,11,"RELATIONAL Version C","OLD","OUT","WAY","ON","B","JOL","Study Phase",1340,"","100"
"946403SK",86,11,"RELATIONAL Version C","OLD","CHORE","WORK","ON","F","JOL","Study Phase",1491,"","100"
"946403SK",87,11,"RELATIONAL Version C","OLD","SALAD","LETTUCE","ON","S","JOL","Study Phase",1556,"","100"
"946403SK",88,11,"RELATIONAL Version C","OLD","RIDDLE","SUGAR","ON","U","JOL","Study Phase",1554,"","0"
"946403SK",89,11,"RELATIONAL Version C","OLD","SICK","HIDE","ON","U","JOL","Study Phase",1465,"","0"
"946403SK",90,11,"RELATIONAL Version C","OLD","FLOOR","DISCOVER","ON","U","JOL","Study Phase",1565,"","0"
"946403SK",91,11,"RELATIONAL Version C","OLD","SEIZE","TAKE","ON","F","JOL","Study Phase",1285,"","0"
"946403SK",92,11,"RELATIONAL Version C","OLD","AMOUNT","NUMBER","ON","S","JOL","Study Phase",1721,"","100"
"946403SK",93,11,"RELATIONAL Version C","OLD","FAMINE","HUNGER","ON","F","JOL","Study Phase",1759,"","100"
"946403SK",94,11,"RELATIONAL Version C","OLD","BLAZE","FIRE","ON","F","JOL","Study Phase",1142,"","100"
"946403SK",95,11,"RELATIONAL Version C","OLD","DEFINITION","MEANING","ON","S","JOL","Study Phase",2311,"","100"
"946403SK",96,11,"RELATIONAL Version C","OLD","HAND","FIX","ON","U","JOL","Study Phase",2061,"","50"
"946403SK",97,11,"RELATIONAL Version C","OLD","MONEY","WAGE","ON","B","JOL","Study Phase",1613,"","100"
"946403SK",98,11,"RELATIONAL Version C","OLD","CHILI","HOT","ON","F","JOL","Study Phase",2496,"","100"
"946403SK",99,11,"RELATIONAL Version C","OLD","WORD","SENTENCE","ON","F","JOL","Study Phase",2300,"","100"
"946403SK",100,11,"RELATIONAL Version C","OLD","CLEAN","HYGIENE","ON","B","JOL","Study Phase",45856,"","100"
"946403SK",101,11,"RELATIONAL Version C","OLD","WASTE","DUMP","ON","S","JOL","Study Phase",2559,"","100"
"946403SK",102,11,"RELATIONAL Version C","OLD","COLD","BITTER","ON","B","JOL","Study Phase",1482,"","1004"
"946403SK",103,11,"RELATIONAL Version C","OLD","DIVISION","MATH","ON","F","JOL","Study Phase",1963,"","100"
"946403SK",104,11,"RELATIONAL Version C","OLD","VASE","KING","ON","U","JOL","Study Phase",1250,"","0"
"946403SK",115,11,"RELATIONAL Version C","OLD","CAR","HAPPY","ON","U","Test","Recall1",6673,"happy",NA
"946403SK",116,11,"RELATIONAL Version C","OLD","DIVISION","MATH","ON","F","Test","Recall1",2836,"math",NA
"946403SK",117,11,"RELATIONAL Version C","OLD","POSITION","MACHINE","ON","U","Test","Recall1",4643,"location",NA
"946403SK",118,11,"RELATIONAL Version C","OLD","CHORE","WORK","ON","F","Test","Recall1",2744,"work",NA
"946403SK",119,11,"RELATIONAL Version C","OLD","VASE","KING","ON","U","Test","Recall1",1710,"",NA
"946403SK",120,11,"RELATIONAL Version C","OLD","SALAD","LETTUCE","ON","S","Test","Recall1",4847,"lettuce",NA
"946403SK",121,11,"RELATIONAL Version C","OLD","DOG","PAW","ON","B","Test","Recall1",1716,"",NA
"946403SK",122,11,"RELATIONAL Version C","OLD","BEE","HONEY","ON","S","Test","Recall1",2982,"sting",NA
"946403SK",123,11,"RELATIONAL Version C","OLD","COW","HERD","ON","B","Test","Recall1",2845,"herd",NA
"946403SK",124,11,"RELATIONAL Version C","OLD","HUNGRY","PARK","ON","U","Test","Recall1",3983,"famine",NA
"946403SK",125,11,"RELATIONAL Version C","OLD","DEFINITION","MEANING","ON","S","Test","Recall1",6557,"meaning",NA
"946403SK",126,11,"RELATIONAL Version C","OLD","ROCK","GEOLOGY","ON","B","Test","Recall1",6312,"hard",NA
"946403SK",127,11,"RELATIONAL Version C","OLD","RACKET","BALL","ON","F","Test","Recall1",3919,"noise",NA
"946403SK",128,11,"RELATIONAL Version C","OLD","SODA","POP","ON","S","Test","Recall1",2762,"pop",NA
"946403SK",129,11,"RELATIONAL Version C","OLD","STOMACH","DIGESTION","ON","B","Test","Recall1",4338,"digestion",NA
"946403SK",130,11,"RELATIONAL Version C","OLD","FOOT","SHOE","ON","S","Test","Recall1",5855,"",NA
"946403SK",131,11,"RELATIONAL Version C","OLD","END","BEGIN","ON","S","Test","Recall1",751,"",NA
"946403SK",132,11,"RELATIONAL Version C","OLD","CHILI","HOT","ON","F","Test","Recall1",2341,"hot",NA
"946403SK",133,11,"RELATIONAL Version C","OLD","WAR","REVOLUTION","ON","B","Test","Recall1",733,"",NA
"946403SK",134,11,"RELATIONAL Version C","OLD","FUTURE","PAST","ON","S","Test","Recall1",802,"",NA
"946403SK",135,11,"RELATIONAL Version C","OLD","SACKING","DIETARY","ON","U","Test","Recall1",24,"",NA
"946403SK",136,11,"RELATIONAL Version C","OLD","STING","HORNET","ON","B","Test","Recall1",117,"",NA
"946403SK",137,11,"RELATIONAL Version C","OLD","CHILD","BABY","ON","S","Test","Recall1",91,"",NA
"946403SK",138,11,"RELATIONAL Version C","OLD","TALK","DISCUSSION","ON","B","Test","Recall1",135,"",NA
"946403SK",139,11,"RELATIONAL Version C","OLD","PILOT","PLANE","ON","F","Test","Recall1",25,"",NA
"946403SK",140,11,"RELATIONAL Version C","OLD","HAND","FIX","ON","U","Test","Recall1",24,"",NA
"946403SK",141,11,"RELATIONAL Version C","OLD","OUT","WAY","ON","B","Test","Recall1",28,"",NA
"946403SK",142,11,"RELATIONAL Version C","OLD","CLEAN","HYGIENE","ON","B","Test","Recall1",23,"",NA
"946403SK",143,11,"RELATIONAL Version C","OLD","GROWTH","HEIGHT","ON","F","Test","Recall1",106,"",NA
"946403SK",144,11,"RELATIONAL Version C","OLD","PLANT","ROOT","ON","B","Test","Recall1",25,"",NA
"946403SK",145,11,"RELATIONAL Version C","OLD","BELT","SOON","ON","U","Test","Recall1",101,"",NA
"946403SK",146,11,"RELATIONAL Version C","OLD","FISH","TUNA","ON","B","Test","Recall1",24,"",NA
"946403SK",147,11,"RELATIONAL Version C","OLD","TUCK","ALLOW","ON","U","Test","Recall1",26,"",NA
"946403SK",148,11,"RELATIONAL Version C","OLD","FLOWER","ORCHID","ON","B","Test","Recall1",26,"",NA
"946403SK",149,11,"RELATIONAL Version C","OLD","ATTIRE","CLOTHES","ON","F","Test","Recall1",25,"",NA
"946403SK",150,11,"RELATIONAL Version C","OLD","STENCH","SMELL","ON","F","Test","Recall1",48,"",NA
"946403SK",151,11,"RELATIONAL Version C","OLD","WASP","BUG","ON","F","Test","Recall1",25,"",NA
"946403SK",152,11,"RELATIONAL Version C","OLD","ACCIDENT","STRONG","ON","U","Test","Recall1",119,"",NA
"946403SK",153,11,"RELATIONAL Version C","OLD","DESIGN","ARCHITECTURE","ON","S","Test","Recall1",25,"",NA
"946403SK",154,11,"RELATIONAL Version C","OLD","BIRD","SWAN","ON","B","Test","Recall1",845,"",NA
"946403SK",155,11,"RELATIONAL Version C","OLD","LATCH","KEY","ON","F","Test","Recall1",528,"",NA
"946403SK",156,11,"RELATIONAL Version C","OLD","CHEESE","WINE","ON","S","Test","Recall1",719,"",NA
"946403SK",157,11,"RELATIONAL Version C","OLD","JURY","TRIAL","ON","S","Test","Recall1",2765,"trail",NA
"946403SK",158,11,"RELATIONAL Version C","OLD","BRONZE","ARTERY","ON","U","Test","Recall1",372,"",NA
"946403SK",159,11,"RELATIONAL Version C","OLD","SIGHT","DEBATE","ON","U","Test","Recall1",28,"",NA
"946403SK",160,11,"RELATIONAL Version C","OLD","WOULD","CASH","ON","U","Test","Recall1",24,"",NA
"946403SK",161,11,"RELATIONAL Version C","OLD","LIVER","KIDNEY","ON","S","Test","Recall1",36,"",NA
"946403SK",162,11,"RELATIONAL Version C","OLD","TOILET","BATHROOM","ON","S","Test","Recall1",23,"",NA
"946403SK",163,11,"RELATIONAL Version C","OLD","WATER","BRIDGE","ON","B","Test","Recall1",23,"",NA
"946403SK",164,11,"RELATIONAL Version C","OLD","ENOUGH","FULL","ON","F","Test","Recall1",43,"",NA
"946403SK",165,11,"RELATIONAL Version C","OLD","SIP","DRINK","ON","F","Test","Recall1",25,"",NA
"946403SK",166,11,"RELATIONAL Version C","OLD","WASTE","DUMP","ON","S","Test","Recall1",40,"",NA
"946403SK",167,11,"RELATIONAL Version C","OLD","BAR","GRILL","ON","S","Test","Recall1",46,"",NA
"946403SK",168,11,"RELATIONAL Version C","OLD","HAMMER","CHISEL","ON","B","Test","Recall1",25,"",NA
"946403SK",169,11,"RELATIONAL Version C","OLD","WIND","BLOW","ON","S","Test","Recall1",149,"",NA
"946403SK",170,11,"RELATIONAL Version C","OLD","SICK","HIDE","ON","U","Test","Recall1",28,"",NA
"946403SK",171,11,"RELATIONAL Version C","OLD","ASSIGNMENT","DUE","ON","S","Test","Recall1",122,"",NA
"946403SK",172,11,"RELATIONAL Version C","OLD","DROWSY","SLEEP","ON","F","Test","Recall1",28,"",NA
"946403SK",173,11,"RELATIONAL Version C","OLD","ROUND","CIRCLE","ON","S","Test","Recall1",136,"",NA
"946403SK",174,11,"RELATIONAL Version C","OLD","CARD","CREDIT","ON","B","Test","Recall1",54,"",NA
"946403SK",175,11,"RELATIONAL Version C","OLD","CLUTTER","PUSHER","ON","U","Test","Recall1",28,"",NA
"946403SK",176,11,"RELATIONAL Version C","OLD","AMOUNT","NUMBER","ON","S","Test","Recall1",28,"",NA
"946403SK",177,11,"RELATIONAL Version C","OLD","SEIZE","TAKE","ON","F","Test","Recall1",36,"",NA
"946403SK",178,11,"RELATIONAL Version C","OLD","WORD","SENTENCE","ON","F","Test","Recall1",91,"",NA
"946403SK",179,11,"RELATIONAL Version C","OLD","MONEY","WAGE","ON","B","Test","Recall1",26,"",NA
"946403SK",180,11,"RELATIONAL Version C","OLD","BLAZE","FIRE","ON","F","Test","Recall1",49,"",NA
"946403SK",181,11,"RELATIONAL Version C","OLD","RIDDLE","SUGAR","ON","U","Test","Recall1",28,"",NA
"946403SK",182,11,"RELATIONAL Version C","OLD","LION","ART","ON","U","Test","Recall1",47,"",NA
"946403SK",183,11,"RELATIONAL Version C","OLD","SITE","LOCATION","ON","S","Test","Recall1",25,"",NA
"946403SK",184,11,"RELATIONAL Version C","OLD","FLOOR","DISCOVER","ON","U","Test","Recall1",26,"",NA
"946403SK",185,11,"RELATIONAL Version C","OLD","WOMAN","LIFT","ON","U","Test","Recall1",25,"",NA
"946403SK",186,11,"RELATIONAL Version C","OLD","CAVE","DARK","ON","F","Test","Recall1",23,"",NA
"946403SK",187,11,"RELATIONAL Version C","OLD","FANTASTIC","GREAT","ON","F","Test","Recall1",25,"",NA
"946403SK",188,11,"RELATIONAL Version C","OLD","BUSINESS","DEATH","ON","U","Test","Recall1",45,"",NA
"946403SK",189,11,"RELATIONAL Version C","OLD","ATTORNEY","LAW","ON","F","Test","Recall1",25,"",NA
"946403SK",190,11,"RELATIONAL Version C","OLD","COLD","BITTER","ON","B","Test","Recall1",28,"",NA
"946403SK",191,11,"RELATIONAL Version C","OLD","NEWS","EDITOR","ON","B","Test","Recall1",140,"",NA
"946403SK",192,11,"RELATIONAL Version C","OLD","FAMINE","HUNGER","ON","F","Test","Recall1",91,"",NA
"946403SK",193,11,"RELATIONAL Version C","OLD","BAD","DELINQUENT","ON","B","Test","Recall1",137,"",NA
"946403SK",194,11,"RELATIONAL Version C","OLD","ADD","VALLEY","ON","U","Test","Recall1",25,"",NA
"946403SK",205,11,"RELATIONAL Version C","OLD","HATE","NAME","ON2","U","JOL","Study Phase2",1392,"","0"
"946403SK",206,11,"RELATIONAL Version C","OLD","GROUND","EARTH","ON2","S","JOL","Study Phase2",1436,"","100"
"946403SK",207,11,"RELATIONAL Version C","OLD","OBTAIN","MEAT","ON2","U","JOL","Study Phase2",1325,"","0"
"946403SK",208,11,"RELATIONAL Version C","OLD","DONKEY","MULE","ON2","B","JOL","Study Phase2",1454,"","100"
"946403SK",209,11,"RELATIONAL Version C","OLD","CLOTH","STRETCH","ON2","U","JOL","Study Phase2",2627,"","2"
"946403SK",210,11,"RELATIONAL Version C","OLD","CARBON","ELEMENT","ON2","S","JOL","Study Phase2",2685,"","100"
"946403SK",211,11,"RELATIONAL Version C","OLD","MORNING","TEMPERATURE","ON2","U","JOL","Study Phase2",2356,"","5"
"946403SK",212,11,"RELATIONAL Version C","OLD","JOKE","KEYS","ON2","U","JOL","Study Phase2",1512,"","5"
"946403SK",213,11,"RELATIONAL Version C","OLD","COMMUNICATION","PHONE","ON2","S","JOL","Study Phase2",3104,"","100"
"946403SK",214,11,"RELATIONAL Version C","OLD","ABLE","CRACKLE","ON2","U","JOL","Study Phase2",1341,"","0"
"946403SK",215,11,"RELATIONAL Version C","OLD","PAPER","DOCUMENT","ON2","B","JOL","Study Phase2",1392,"","100"
"946403SK",216,11,"RELATIONAL Version C","OLD","OUNCE","BOTH","ON2","U","JOL","Study Phase2",1634,"","0"
"946403SK",217,11,"RELATIONAL Version C","OLD","BRACELET","WRIST","ON2","S","JOL","Study Phase2",1697,"","100"
"946403SK",218,11,"RELATIONAL Version C","OLD","BRAWL","FIGHT","ON2","F","JOL","Study Phase2",1737,"","100"
"946403SK",219,11,"RELATIONAL Version C","OLD","SARDINE","FISH","ON2","F","JOL","Study Phase2",1367,"","100"
"946403SK",220,11,"RELATIONAL Version C","OLD","STRAWBERRY","FRUIT","ON2","F","JOL","Study Phase2",1194,"","100"
"946403SK",221,11,"RELATIONAL Version C","OLD","CHILDREN","MIRROR","ON2","U","JOL","Study Phase2",4363,"","0"
"946403SK",222,11,"RELATIONAL Version C","OLD","FIGHT","FEUD","ON2","B","JOL","Study Phase2",1653,"","100"
"946403SK",223,11,"RELATIONAL Version C","OLD","GAME","CLUE","ON2","B","JOL","Study Phase2",1354,"","0"
"946403SK",224,11,"RELATIONAL Version C","OLD","DRINK","WATER","ON2","S","JOL","Study Phase2",1456,"","100"
"946403SK",225,11,"RELATIONAL Version C","OLD","JAR","MASON","ON2","S","JOL","Study Phase2",1307,"","10"
"946403SK",226,11,"RELATIONAL Version C","OLD","BREAKABLE","GLASS","ON2","F","JOL","Study Phase2",1642,"","10"
"946403SK",227,11,"RELATIONAL Version C","OLD","NOISE","LOUD","ON2","S","JOL","Study Phase2",955,"","10"
"946403SK",228,11,"RELATIONAL Version C","OLD","TAN","SUN","ON2","S","JOL","Study Phase2",673,"","2"
"946403SK",229,11,"RELATIONAL Version C","OLD","AWAY","GONE","ON2","S","JOL","Study Phase2",1317,"","20"
"946403SK",230,11,"RELATIONAL Version C","OLD","LEAGUE","BASEBALL","ON2","F","JOL","Study Phase2",1966,"","20"
"946403SK",231,11,"RELATIONAL Version C","OLD","SHAKE","SHELL","ON2","U","JOL","Study Phase2",1815,"","20"
"946403SK",232,11,"RELATIONAL Version C","OLD","WAX","CANDLE","ON2","S","JOL","Study Phase2",1397,"","0"
"946403SK",233,11,"RELATIONAL Version C","OLD","CLOTHES","CAKE","ON2","U","JOL","Study Phase2",96109,"","0"
"946403SK",234,11,"RELATIONAL Version C","OLD","LOVE","AFFECTION","ON2","B","JOL","Study Phase2",1681,"","100"
"946403SK",235,11,"RELATIONAL Version C","OLD","TEMPER","TANTRUM","ON2","S","JOL","Study Phase2",1084,"","0"
"946403SK",236,11,"RELATIONAL Version C","OLD","END","ADJOURN","ON2","B","JOL","Study Phase2",1148,"","0"
"946403SK",237,11,"RELATIONAL Version C","OLD","REEL","ROD","ON2","S","JOL","Study Phase2",1876,"","100"
"946403SK",238,11,"RELATIONAL Version C","OLD","THIMBLE","THREAD","ON2","F","JOL","Study Phase2",903,"","0"
"946403SK",240,11,"RELATIONAL Version C","OLD","ELECTION","MAZE","ON2","U","JOL","Study Phase2",1680,"","0"
"946403SK",241,11,"RELATIONAL Version C","OLD","CUT","CHOP","ON2","B","JOL","Study Phase2",1509,"","100"
"946403SK",242,11,"RELATIONAL Version C","OLD","MYSTERY","DETECTIVE","ON2","B","JOL","Study Phase2",1478,"","100"
"946403SK",243,11,"RELATIONAL Version C","OLD","STEAK","GIVE","ON2","U","JOL","Study Phase2",1101,"","0"
"946403SK",244,11,"RELATIONAL Version C","OLD","COLD","CHILL","ON2","B","JOL","Study Phase2",1098,"","100"
"946403SK",245,11,"RELATIONAL Version C","OLD","CHARM","VEHICLE","ON2","U","JOL","Study Phase2",1546,"","1"
"946403SK",246,11,"RELATIONAL Version C","OLD","CAR","DRIVER","ON2","B","JOL","Study Phase2",2255,"","50"
"946403SK",247,11,"RELATIONAL Version C","OLD","LONELY","ALONE","ON2","S","JOL","Study Phase2",1871,"","50"
"946403SK",248,11,"RELATIONAL Version C","OLD","REVENGE","EVEN","ON2","F","JOL","Study Phase2",1295,"","50"
"946403SK",249,11,"RELATIONAL Version C","OLD","FAVORITE","BEST","ON2","F","JOL","Study Phase2",1418,"","50"
"946403SK",250,11,"RELATIONAL Version C","OLD","VILLAIN","BAD","ON2","F","JOL","Study Phase2",1542,"","50"
"946403SK",251,11,"RELATIONAL Version C","OLD","NAP","SLEEP","ON2","F","JOL","Study Phase2",3262,"","50"
"946403SK",252,11,"RELATIONAL Version C","OLD","CLEAR","MOAT","ON2","U","JOL","Study Phase2",15850,"","0"
"946403SK",253,11,"RELATIONAL Version C","OLD","FICTION","LISTEN","ON2","U","JOL","Study Phase2",1358,"","0"
"946403SK",254,11,"RELATIONAL Version C","OLD","PENGUIN","BIRD","ON2","F","JOL","Study Phase2",84167,"","10"
"946403SK",255,11,"RELATIONAL Version C","OLD","SEATBELT","SAFETY","ON2","S","JOL","Study Phase2",1124,"","10"
"946403SK",256,11,"RELATIONAL Version C","OLD","BANKER","MONEY","ON2","F","JOL","Study Phase2",1529,"","20"
"946403SK",257,11,"RELATIONAL Version C","OLD","WINDSHIELD","CAR","ON2","F","JOL","Study Phase2",1073,"","30"
"946403SK",258,11,"RELATIONAL Version C","OLD","PLANT","CACTUS","ON2","B","JOL","Study Phase2",1438,"","50"
"946403SK",259,11,"RELATIONAL Version C","OLD","HAVE","OWN","ON2","S","JOL","Study Phase2",747,"","10"
"946403SK",260,11,"RELATIONAL Version C","OLD","SCISSORS","SHEARS","ON2","B","JOL","Study Phase2",2041,"","55"
"946403SK",261,11,"RELATIONAL Version C","OLD","MAROON","JUSTICE","ON2","U","JOL","Study Phase2",1458,"","0"
"946403SK",262,11,"RELATIONAL Version C","OLD","TICK","FLEA","ON2","S","JOL","Study Phase2",2566,"","85"
"946403SK",263,11,"RELATIONAL Version C","OLD","WET","DRY","ON2","S","JOL","Study Phase2",1270,"","0"
"946403SK",264,11,"RELATIONAL Version C","OLD","LIE","TRUTH","ON2","S","JOL","Study Phase2",1848,"","10"
"946403SK",265,11,"RELATIONAL Version C","OLD","COFFIN","DEAD","ON2","F","JOL","Study Phase2",2742,"","89"
"946403SK",266,11,"RELATIONAL Version C","OLD","AIRCRAFT","PLANE","ON2","F","JOL","Study Phase2",1952,"","20"
"946403SK",267,11,"RELATIONAL Version C","OLD","SHAVE","RAZOR","ON2","S","JOL","Study Phase2",1733,"","20"
"946403SK",268,11,"RELATIONAL Version C","OLD","LONG","EXTENSION","ON2","B","JOL","Study Phase2",1654,"","10"
"946403SK",269,11,"RELATIONAL Version C","OLD","EQUAL","RIGHTS","ON2","S","JOL","Study Phase2",1785,"","100"
"946403SK",270,11,"RELATIONAL Version C","OLD","SIGN","LOAN","ON2","U","JOL","Study Phase2",1433,"","10"
"946403SK",271,11,"RELATIONAL Version C","OLD","PANTHER","CAT","ON2","F","JOL","Study Phase2",845,"","10"
"946403SK",272,11,"RELATIONAL Version C","OLD","BALLOON","POP","ON2","F","JOL","Study Phase2",690,"","10"
"946403SK",273,11,"RELATIONAL Version C","OLD","TRASH","LITTER","ON2","B","JOL","Study Phase2",4228,"","25"
"946403SK",274,11,"RELATIONAL Version C","OLD","ACTRESS","STAR","ON2","F","JOL","Study Phase2",1966,"","10"
"946403SK",275,11,"RELATIONAL Version C","OLD","TIE","SHOELACE","ON2","B","JOL","Study Phase2",890,"","10"
"946403SK",276,11,"RELATIONAL Version C","OLD","SCAR","MAIN","ON2","U","JOL","Study Phase2",542,"","10"
"946403SK",277,11,"RELATIONAL Version C","OLD","TRUTHFUL","HONEST","ON2","F","JOL","Study Phase2",584,"","30"
"946403SK",278,11,"RELATIONAL Version C","OLD","RED","CHERRY","ON2","B","JOL","Study Phase2",504,"","30"
"946403SK",279,11,"RELATIONAL Version C","OLD","EAT","DINE","ON2","B","JOL","Study Phase2",537,"","50"
"946403SK",280,11,"RELATIONAL Version C","OLD","HEAD","SCALP","ON2","B","JOL","Study Phase2",1033,"","2"
"946403SK",281,11,"RELATIONAL Version C","OLD","BANG","FUZZY","ON2","U","JOL","Study Phase2",1388,"","84"
"946403SK",282,11,"RELATIONAL Version C","OLD","DOG","FURRY","ON2","B","JOL","Study Phase2",1376,"","0"
"946403SK",283,11,"RELATIONAL Version C","OLD","TOIL","LEASE","ON2","U","JOL","Study Phase2",1722,"","32"
"946403SK",284,11,"RELATIONAL Version C","OLD","FLIP","TURN","ON2","F","JOL","Study Phase2",1597,"","65"
"946403SK",285,11,"RELATIONAL Version C","OLD","SMELL","INCENSE","ON2","B","JOL","Study Phase2",13785,"","0"
"946403SK",296,11,"RELATIONAL Version C","OLD","CLEAR","MOAT","ON2","U","Test","Recall2",2045,"",NA
"946403SK",297,11,"RELATIONAL Version C","OLD","BREAKABLE","GLASS","ON2","F","Test","Recall2",1685,"",NA
"946403SK",298,11,"RELATIONAL Version C","OLD","LONELY","ALONE","ON2","S","Test","Recall2",4008,"me",NA
"946403SK",299,11,"RELATIONAL Version C","OLD","TRASH","LITTER","ON2","B","Test","Recall2",1597,"",NA
"946403SK",300,11,"RELATIONAL Version C","OLD","FAVORITE","BEST","ON2","F","Test","Recall2",760,"",NA
"946403SK",301,11,"RELATIONAL Version C","OLD","MYSTERY","DETECTIVE","ON2","B","Test","Recall2",810,"",NA
"946403SK",302,11,"RELATIONAL Version C","OLD","TRUTHFUL","HONEST","ON2","F","Test","Recall2",1030,"",NA
"946403SK",303,11,"RELATIONAL Version C","OLD","SHAKE","SHELL","ON2","U","Test","Recall2",476,"",NA
"946403SK",304,11,"RELATIONAL Version C","OLD","CUT","CHOP","ON2","B","Test","Recall2",135,"",NA
"946403SK",305,11,"RELATIONAL Version C","OLD","CARBON","ELEMENT","ON2","S","Test","Recall2",193,"",NA
"946403SK",306,11,"RELATIONAL Version C","OLD","LIE","TRUTH","ON2","S","Test","Recall2",26,"",NA
"946403SK",307,11,"RELATIONAL Version C","OLD","ACTRESS","STAR","ON2","F","Test","Recall2",134,"",NA
"946403SK",308,11,"RELATIONAL Version C","OLD","DRINK","WATER","ON2","S","Test","Recall2",28,"",NA
"946403SK",309,11,"RELATIONAL Version C","OLD","BALLOON","POP","ON2","F","Test","Recall2",128,"",NA
"946403SK",310,11,"RELATIONAL Version C","OLD","BANG","FUZZY","ON2","U","Test","Recall2",2670,"fuzzy",NA
"946403SK",311,11,"RELATIONAL Version C","OLD","TIE","SHOELACE","ON2","B","Test","Recall2",1018,"",NA
"946403SK",312,11,"RELATIONAL Version C","OLD","STEAK","GIVE","ON2","U","Test","Recall2",2722,"done",NA
"946403SK",313,11,"RELATIONAL Version C","OLD","BRAWL","FIGHT","ON2","F","Test","Recall2",2850,"fight",NA
"946403SK",314,11,"RELATIONAL Version C","OLD","EAT","DINE","ON2","B","Test","Recall2",2892,"digest",NA
"946403SK",315,11,"RELATIONAL Version C","OLD","HEAD","SCALP","ON2","B","Test","Recall2",1180,"",NA
"946403SK",316,11,"RELATIONAL Version C","OLD","LEAGUE","BASEBALL","ON2","F","Test","Recall2",748,"",NA
"946403SK",317,11,"RELATIONAL Version C","OLD","SIGN","LOAN","ON2","U","Test","Recall2",1104,"",NA
"946403SK",318,11,"RELATIONAL Version C","OLD","CLOTHES","CAKE","ON2","U","Test","Recall2",5969,"material",NA
"946403SK",319,11,"RELATIONAL Version C","OLD","DONKEY","MULE","ON2","B","Test","Recall2",2534,"mule",NA
"946403SK",320,11,"RELATIONAL Version C","OLD","CAR","DRIVER","ON2","B","Test","Recall2",983,"",NA
"946403SK",321,11,"RELATIONAL Version C","OLD","PENGUIN","BIRD","ON2","F","Test","Recall2",2571,"bird",NA
"946403SK",322,11,"RELATIONAL Version C","OLD","REVENGE","EVEN","ON2","F","Test","Recall2",880,"",NA
"946403SK",323,11,"RELATIONAL Version C","OLD","STRAWBERRY","FRUIT","ON2","F","Test","Recall2",1423,"",NA
"946403SK",324,11,"RELATIONAL Version C","OLD","COMMUNICATION","PHONE","ON2","S","Test","Recall2",1634,"",NA
"946403SK",325,11,"RELATIONAL Version C","OLD","VILLAIN","BAD","ON2","F","Test","Recall2",837,"",NA
"946403SK",326,11,"RELATIONAL Version C","OLD","ELECTION","MAZE","ON2","U","Test","Recall2",541,"",NA
"946403SK",327,11,"RELATIONAL Version C","OLD","DOG","FURRY","ON2","B","Test","Recall2",1641,"",NA
"946403SK",328,11,"RELATIONAL Version C","OLD","ABLE","CRACKLE","ON2","U","Test","Recall2",863,"",NA
"946403SK",329,11,"RELATIONAL Version C","OLD","AIRCRAFT","PLANE","ON2","F","Test","Recall2",2614,"plane",NA
"946403SK",330,11,"RELATIONAL Version C","OLD","JOKE","KEYS","ON2","U","Test","Recall2",659,"",NA
"946403SK",331,11,"RELATIONAL Version C","OLD","END","ADJOURN","ON2","B","Test","Recall2",614,"",NA
"946403SK",332,11,"RELATIONAL Version C","OLD","SCAR","MAIN","ON2","U","Test","Recall2",747,"",NA
"946403SK",333,11,"RELATIONAL Version C","OLD","TOIL","LEASE","ON2","U","Test","Recall2",642,"",NA
"946403SK",334,11,"RELATIONAL Version C","OLD","MORNING","TEMPERATURE","ON2","U","Test","Recall2",3209,"temperature",NA
"946403SK",335,11,"RELATIONAL Version C","OLD","OBTAIN","MEAT","ON2","U","Test","Recall2",1374,"",NA
"946403SK",336,11,"RELATIONAL Version C","OLD","REEL","ROD","ON2","S","Test","Recall2",2050,"rod",NA
"946403SK",337,11,"RELATIONAL Version C","OLD","JAR","MASON","ON2","S","Test","Recall2",4499,"mason",NA
"946403SK",338,11,"RELATIONAL Version C","OLD","CLOTH","STRETCH","ON2","U","Test","Recall2",908,"",NA
"946403SK",339,11,"RELATIONAL Version C","OLD","SARDINE","FISH","ON2","F","Test","Recall2",2099,"fish",NA
"946403SK",340,11,"RELATIONAL Version C","OLD","SCISSORS","SHEARS","ON2","B","Test","Recall2",1797,"sears",NA
"946403SK",341,11,"RELATIONAL Version C","OLD","HAVE","OWN","ON2","S","Test","Recall2",808,"",NA
"946403SK",342,11,"RELATIONAL Version C","OLD","SEATBELT","SAFETY","ON2","S","Test","Recall2",815,"",NA
"946403SK",343,11,"RELATIONAL Version C","OLD","FIGHT","FEUD","ON2","B","Test","Recall2",1421,"",NA
"946403SK",344,11,"RELATIONAL Version C","OLD","LONG","EXTENSION","ON2","B","Test","Recall2",697,"",NA
"946403SK",345,11,"RELATIONAL Version C","OLD","TEMPER","TANTRUM","ON2","S","Test","Recall2",1828,"",NA
"946403SK",346,11,"RELATIONAL Version C","OLD","COLD","CHILL","ON2","B","Test","Recall2",4709,"bitter",NA
"946403SK",347,11,"RELATIONAL Version C","OLD","WINDSHIELD","CAR","ON2","F","Test","Recall2",1816,"car",NA
"946403SK",348,11,"RELATIONAL Version C","OLD","BANKER","MONEY","ON2","F","Test","Recall2",2049,"teller",NA
"946403SK",349,11,"RELATIONAL Version C","OLD","PAPER","DOCUMENT","ON2","B","Test","Recall2",1087,"",NA
"946403SK",350,11,"RELATIONAL Version C","OLD","GAME","CLUE","ON2","B","Test","Recall2",794,"",NA
"946403SK",351,11,"RELATIONAL Version C","OLD","TICK","FLEA","ON2","S","Test","Recall2",775,"",NA
"946403SK",352,11,"RELATIONAL Version C","OLD","TAN","SUN","ON2","S","Test","Recall2",910,"",NA
"946403SK",353,11,"RELATIONAL Version C","OLD","SMELL","INCENSE","ON2","B","Test","Recall2",5375,"incense",NA
"946403SK",354,11,"RELATIONAL Version C","OLD","PLANT","CACTUS","ON2","B","Test","Recall2",1142,"",NA
