Username,ID,ExperimentName,Session,Trial,Date,TimeDif,"Condition Number","Stimuli File","Order File","Condition Description","Condition Notes",Stimuli*Cue,Stimuli*Answer,Stimuli*Shuffle,"Stimuli*Stimuli Notes",Stimuli*Value,Procedure*Item,"Procedure*Trial Type","Procedure*Max Time","Procedure*Min Time",Procedure*Text,"Procedure*Procedure Notes",Procedure*Shuffle,Response*RT,Response*Response,Response*Accuracy,Response*RTfirst,Response*RTlast,Response*strictAcc,Response*lenientAcc,Response*focus,Response*JOL,Response*Focus
W979583_jmw,q8go9c0vzl,Emily_Honors_Thesis_Part_2,1,1,2020-08-29T13:38:02-07:00,16.873919963837,6,versionA_stim.csv,IS_JOLVersionB.csv,"ITEM SPECIFIC Version B",OLD,,,,,,0,Instruct,-,10,"In this section, you will be presented with a series of word pairs. As you study, you will be asked to rate your ability to remember the second item in the pair if you were only shown the first at test. You will make these ratings using a 0 to 100 Scale.",,Instruct13,16676,,,-1,-1,,,,,1
W979583_jmw,q8go9c0vzl,Emily_Honors_Thesis_Part_2,1,2,2020-08-29T13:39:03-07:00,60.409822225571,6,versionA_stim.csv,IS_JOLVersionB.csv,"ITEM SPECIFIC Version B",OLD,,,,,,0,Instruct,-,10,"For example, if you are given the pair CAT - DOG, a rating of 0 indicates that you would not remember DOG at test, while a rating of 100 indicates full certainty that you would remember the word DOG at test.",,Instruct14,60162,,,-1,-1,,,,,1
W979583_jmw,q8go9c0vzl,Emily_Honors_Thesis_Part_2,1,3,2020-08-29T13:39:32-07:00,29.066336870193,6,versionA_stim.csv,IS_JOLVersionB.csv,"ITEM SPECIFIC Version B",OLD,,,,,,0,Instruct,-,10,"When making these ratings, it is criticial that you use the full range of the scale. You will be disqualified for only giving ratings of 0 or 100! After making your rating, press Enter to advance to the next pair.",,Instruct15,28879,,,-1,-1,,,,,1
W979583_jmw,q8go9c0vzl,Emily_Honors_Thesis_Part_2,1,4,2020-08-29T13:39:49-07:00,17.712430000305,6,versionA_stim.csv,IS_JOLVersionB.csv,"ITEM SPECIFIC Version B",OLD,,,,,,0,Instruct,-,15,"As you study and make your ratings, please think about the unique featues of each item and how the two concepts are DIFFERENT from each other. For example, if you see the pair TURTLE-CAT, think about how TURTLES have shells and are reptiles, while CATS are mammals and have fur.",,Instruct19,17518,,,-1,-1,,,,,1
W979583_jmw,q8go9c0vzl,Emily_Honors_Thesis_Part_2,1,5,2020-08-29T13:40:30-07:00,41.037050008774,6,versionA_stim.csv,IS_JOLVersionB.csv,"ITEM SPECIFIC Version B",OLD,,,,,,0,FreeRecall,-,10,"What you should think about as you study each item pair? Type your response in the box below.",,CHECK1,39661,"similarities ",0,31244,35996,0,0,,,1
W979583_jmw,q8go9c0vzl,Emily_Honors_Thesis_Part_2,1,6,2020-08-29T13:40:42-07:00,11.605078935623,6,versionA_stim.csv,IS_JOLVersionB.csv,"ITEM SPECIFIC Version B",OLD,,,,,,0,Instruct,-,5,"You will now complete a practice session. Please study the following items and rate your ability to remember them. Remember to think about how the two items are unique!",,Instruct17,11417,,,-1,-1,,,,,1
W979583_jmw,q8go9c0vzl,Emily_Honors_Thesis_Part_2,1,7,2020-08-29T13:41:24-07:00,42.110993146896,6,versionA_stim.csv,IS_JOLVersionB.csv,"ITEM SPECIFIC Version B",OLD,HAM,BONE,PRACTICE,PRACTICE,183,185,JOL,User,-,"How likely are you to correctly recall the second item in the pair?|Type your response on a scale from 0-100 and then press Enter.",Study/JOL,PRACTICE,41872,,,34826,35338,,,,50,1
W979583_jmw,q8go9c0vzl,Emily_Honors_Thesis_Part_2,1,8,2020-08-29T13:41:32-07:00,7.8931419849396,6,versionA_stim.csv,IS_JOLVersionB.csv,"ITEM SPECIFIC Version B",OLD,FASHION,MODEL,PRACTICE,PRACTICE,190,186,JOL,User,-,"How likely are you to correctly recall the second item in the pair?|Type your response on a scale from 0-100 and then press Enter.",Study/JOL,PRACTICE,7701,,,6045,6446,,,,70,1
W979583_jmw,q8go9c0vzl,Emily_Honors_Thesis_Part_2,1,9,2020-08-29T13:41:51-07:00,18.681088924408,6,versionA_stim.csv,IS_JOLVersionB.csv,"ITEM SPECIFIC Version B",OLD,BEHAVIOR,SOCIAL,PRACTICE,PRACTICE,189,183,JOL,User,-,"How likely are you to correctly recall the second item in the pair?|Type your response on a scale from 0-100 and then press Enter.",Study/JOL,PRACTICE,18496,,,7306,17326,,,,90,1
W979583_jmw,q8go9c0vzl,Emily_Honors_Thesis_Part_2,1,10,2020-08-29T13:42:03-07:00,12.569771051407,6,versionA_stim.csv,IS_JOLVersionB.csv,"ITEM SPECIFIC Version B",OLD,CHIME,MUSIC,PRACTICE,PRACTICE,188,187,JOL,User,-,"How likely are you to correctly recall the second item in the pair?|Type your response on a scale from 0-100 and then press Enter.",Study/JOL,PRACTICE,12377,,,10788,11288,,,,40,1
W979583_jmw,q8go9c0vzl,Emily_Honors_Thesis_Part_2,1,11,2020-08-29T13:42:31-07:00,27.327522993088,6,versionA_stim.csv,IS_JOLVersionB.csv,"ITEM SPECIFIC Version B",OLD,HINGE,SWING,PRACTICE,PRACTICE,185,182,JOL,User,-,"How likely are you to correctly recall the second item in the pair?|Type your response on a scale from 0-100 and then press Enter.",Study/JOL,PRACTICE,9298,,,5781,7663,,,,50,0.979
W979583_jmw,q8go9c0vzl,Emily_Honors_Thesis_Part_2,1,12,2020-08-29T13:42:41-07:00,10.081258058548,6,versionA_stim.csv,IS_JOLVersionB.csv,"ITEM SPECIFIC Version B",OLD,DEAF,MUTE,PRACTICE,PRACTICE,182,191,JOL,User,-,"How likely are you to correctly recall the second item in the pair?|Type your response on a scale from 0-100 and then press Enter.",Study/JOL,PRACTICE,9896,,,6462,8918,,,,75,1
W979583_jmw,q8go9c0vzl,Emily_Honors_Thesis_Part_2,1,13,2020-08-29T13:42:47-07:00,6.0070698261261,6,versionA_stim.csv,IS_JOLVersionB.csv,"ITEM SPECIFIC Version B",OLD,DISBELIEVE,SKEPTIC,PRACTICE,PRACTICE,186,189,JOL,User,-,"How likely are you to correctly recall the second item in the pair?|Type your response on a scale from 0-100 and then press Enter.",Study/JOL,PRACTICE,5820,,,4184,4750,,,,20,1
W979583_jmw,q8go9c0vzl,Emily_Honors_Thesis_Part_2,1,14,2020-08-29T13:43:01-07:00,14.807469129562,6,versionA_stim.csv,IS_JOLVersionB.csv,"ITEM SPECIFIC Version B",OLD,PADDLE,ROW,PRACTICE,PRACTICE,184,188,JOL,User,-,"How likely are you to correctly recall the second item in the pair?|Type your response on a scale from 0-100 and then press Enter.",Study/JOL,PRACTICE,14614,,,12981,13617,,,,40,1
W979583_jmw,q8go9c0vzl,Emily_Honors_Thesis_Part_2,1,15,2020-08-29T13:43:13-07:00,11.810389995575,6,versionA_stim.csv,IS_JOLVersionB.csv,"ITEM SPECIFIC Version B",OLD,AARDVARK,ZOO,PRACTICE,PRACTICE,181,184,JOL,User,-,"How likely are you to correctly recall the second item in the pair?|Type your response on a scale from 0-100 and then press Enter.",Study/JOL,PRACTICE,3691,,,1846,2650,,,,10,0.947
W979583_jmw,q8go9c0vzl,Emily_Honors_Thesis_Part_2,1,16,2020-08-29T13:43:20-07:00,6.8467099666595,6,versionA_stim.csv,IS_JOLVersionB.csv,"ITEM SPECIFIC Version B",OLD,CHOCOLATE,BAR,PRACTICE,PRACTICE,187,190,JOL,User,-,"How likely are you to correctly recall the second item in the pair?|Type your response on a scale from 0-100 and then press Enter.",Study/JOL,PRACTICE,6652,,,2367,2537,,,,90,1
W979583_jmw,q8go9c0vzl,Emily_Honors_Thesis_Part_2,1,17,2020-08-29T13:43:23-07:00,2.9544310569763,6,versionA_stim.csv,IS_JOLVersionB.csv,"ITEM SPECIFIC Version B",OLD,,,,,,0,Instruct,User,-,"You have completed this section. Please press Enter to continue.",,Instruct18,2767,,,-1,-1,,,,,1
W979583_jmw,q8go9c0vzl,Emily_Honors_Thesis_Part_2,1,18,2020-08-29T13:43:46-07:00,23.088768959045,6,versionA_stim.csv,IS_JOLVersionB.csv,"ITEM SPECIFIC Version B",OLD,,,,,,0,Instruct,User,-,"You will now begin the study. Press Enter when you are ready to begin.",,Instruct16,14096,,,-1,-1,,,,,0.986
W979583_jmw,q8go9c0vzl,Emily_Honors_Thesis_Part_2,1,19,2020-08-29T13:44:00-07:00,13.637995004654,6,versionA_stim.csv,IS_JOLVersionB.csv,"ITEM SPECIFIC Version B",OLD,CARROT,POTATO,Buffer3,Buffer,91,96,JOL,User,-,"How likely are you to correctly recall the second item in the pair?|Type your response on a scale from 0-100 and then press Enter.",Study/JOL,BUFFER,13437,,,6753,8818,,,,70,1
W979583_jmw,q8go9c0vzl,Emily_Honors_Thesis_Part_2,1,20,2020-08-29T13:44:14-07:00,14.737879037857,6,versionA_stim.csv,IS_JOLVersionB.csv,"ITEM SPECIFIC Version B",OLD,NOODLE,STRING,Buffer3,Buffer,92,95,JOL,User,-,"How likely are you to correctly recall the second item in the pair?|Type your response on a scale from 0-100 and then press Enter.",Study/JOL,BUFFER,6752,,,5038,5526,,,,70,0.971
W979583_jmw,q8go9c0vzl,Emily_Honors_Thesis_Part_2,1,21,2020-08-29T13:44:24-07:00,9.7259969711304,6,versionA_stim.csv,IS_JOLVersionB.csv,"ITEM SPECIFIC Version B",OLD,OCTOBER,SPOOKY,Buffer3,Buffer,180,94,JOL,User,-,"How likely are you to correctly recall the second item in the pair?|Type your response on a scale from 0-100 and then press Enter.",Study/JOL,BUFFER,9535,,,7475,7627,,,,98,1
W979583_jmw,q8go9c0vzl,Emily_Honors_Thesis_Part_2,1,22,2020-08-29T13:44:32-07:00,7.4317269325256,6,versionA_stim.csv,IS_JOLVersionB.csv,"ITEM SPECIFIC Version B",OLD,SPRING,MARCH,Buffer3,Buffer,179,92,JOL,User,-,"How likely are you to correctly recall the second item in the pair?|Type your response on a scale from 0-100 and then press Enter.",Study/JOL,BUFFER,7240,,,2986,3205,,,,90,1
W979583_jmw,q8go9c0vzl,Emily_Honors_Thesis_Part_2,1,23,2020-08-29T13:44:37-07:00,5.054680109024,6,versionA_stim.csv,IS_JOLVersionB.csv,"ITEM SPECIFIC Version B",OLD,TOOL,SHED,Buffer3,Buffer,178,93,JOL,User,-,"How likely are you to correctly recall the second item in the pair?|Type your response on a scale from 0-100 and then press Enter.",Study/JOL,BUFFER,4867,,,3818,3919,,,,88,1
W979583_jmw,q8go9c0vzl,Emily_Honors_Thesis_Part_2,1,24,2020-08-29T13:44:43-07:00,6.6932439804077,6,versionA_stim.csv,IS_JOLVersionB.csv,"ITEM SPECIFIC Version B",OLD,MONEY,BANKER,ON2,B,132,134,JOL,User,-,"How likely are you to correctly recall the second item in the pair?|Type your response on a scale from 0-100 and then press Enter.",Study/JOL,"Study Phase",6497,,,2234,2385,,,,90,1
W979583_jmw,q8go9c0vzl,Emily_Honors_Thesis_Part_2,1,25,2020-08-29T13:44:51-07:00,7.3052489757538,6,versionA_stim.csv,IS_JOLVersionB.csv,"ITEM SPECIFIC Version B",OLD,DINE,EAT,ON2,F,111,132,JOL,User,-,"How likely are you to correctly recall the second item in the pair?|Type your response on a scale from 0-100 and then press Enter.",Study/JOL,"Study Phase",7101,,,2652,3057,,,,60,1
W979583_jmw,q8go9c0vzl,Emily_Honors_Thesis_Part_2,1,26,2020-08-29T13:45:03-07:00,12.472985982895,6,versionA_stim.csv,IS_JOLVersionB.csv,"ITEM SPECIFIC Version B",OLD,FIGHT,BRAWL,ON2,B,135,161,JOL,User,-,"How likely are you to correctly recall the second item in the pair?|Type your response on a scale from 0-100 and then press Enter.",Study/JOL,"Study Phase",3558,,,2047,2248,,,,12,0.944
W979583_jmw,q8go9c0vzl,Emily_Honors_Thesis_Part_2,1,27,2020-08-29T13:45:11-07:00,7.6653800010681,6,versionA_stim.csv,IS_JOLVersionB.csv,"ITEM SPECIFIC Version B",OLD,MAIN,SCAR,ON2,U,175,111,JOL,User,-,"How likely are you to correctly recall the second item in the pair?|Type your response on a scale from 0-100 and then press Enter.",Study/JOL,"Study Phase",7472,,,5965,6589,,,,10,1
W979583_jmw,q8go9c0vzl,Emily_Honors_Thesis_Part_2,1,28,2020-08-29T13:45:17-07:00,6.6633830070496,6,versionA_stim.csv,IS_JOLVersionB.csv,"ITEM SPECIFIC Version B",OLD,DRY,WET,ON2,S,146,121,JOL,User,-,"How likely are you to correctly recall the second item in the pair?|Type your response on a scale from 0-100 and then press Enter.",Study/JOL,"Study Phase",6469,,,1815,2318,,,,30,1
W979583_jmw,q8go9c0vzl,Emily_Honors_Thesis_Part_2,1,29,2020-08-29T13:45:25-07:00,7.4597320556641,6,versionA_stim.csv,IS_JOLVersionB.csv,"ITEM SPECIFIC Version B",OLD,BIRD,PENGUIN,ON2,B,119,157,JOL,User,-,"How likely are you to correctly recall the second item in the pair?|Type your response on a scale from 0-100 and then press Enter.",Study/JOL,"Study Phase",7240,,,2892,3431,,,,25,1
W979583_jmw,q8go9c0vzl,Emily_Honors_Thesis_Part_2,1,30,2020-08-29T13:45:33-07:00,8.3833329677582,6,versionA_stim.csv,IS_JOLVersionB.csv,"ITEM SPECIFIC Version B",OLD,MULE,DONKEY,ON2,F,108,145,JOL,User,-,"How likely are you to correctly recall the second item in the pair?|Type your response on a scale from 0-100 and then press Enter.",Study/JOL,"Study Phase",8192,,,1572,2835,,,,11,1
W979583_jmw,q8go9c0vzl,Emily_Honors_Thesis_Part_2,1,31,2020-08-29T13:45:48-07:00,14.702435970306,6,versionA_stim.csv,IS_JOLVersionB.csv,"ITEM SPECIFIC Version B",OLD,WATER,DRINK,ON2,S,143,163,JOL,User,-,"How likely are you to correctly recall the second item in the pair?|Type your response on a scale from 0-100 and then press Enter.",Study/JOL,"Study Phase",2645,,,1678,1802,,,,90,0.929
W979583_jmw,q8go9c0vzl,Emily_Honors_Thesis_Part_2,1,32,2020-08-29T13:45:59-07:00,11.031368970871,6,versionA_stim.csv,IS_JOLVersionB.csv,"ITEM SPECIFIC Version B",OLD,STAR,ACTRESS,ON2,B,120,119,JOL,User,-,"How likely are you to correctly recall the second item in the pair?|Type your response on a scale from 0-100 and then press Enter.",Study/JOL,"Study Phase",3613,,,1606,2090,,,,50,0.944
W979583_jmw,q8go9c0vzl,Emily_Honors_Thesis_Part_2,1,33,2020-08-29T13:46:07-07:00,7.5826439857483,6,versionA_stim.csv,IS_JOLVersionB.csv,"ITEM SPECIFIC Version B",OLD,NAME,HATE,ON2,U,167,175,JOL,User,-,"How likely are you to correctly recall the second item in the pair?|Type your response on a scale from 0-100 and then press Enter.",Study/JOL,"Study Phase",7392,,,5977,6491,,,,15,1
W979583_jmw,q8go9c0vzl,Emily_Honors_Thesis_Part_2,1,34,2020-08-29T13:46:15-07:00,8.789617061615,6,versionA_stim.csv,IS_JOLVersionB.csv,"ITEM SPECIFIC Version B",OLD,EVEN,REVENGE,ON2,B,122,152,JOL,User,-,"How likely are you to correctly recall the second item in the pair?|Type your response on a scale from 0-100 and then press Enter.",Study/JOL,"Study Phase",8601,,,2009,2585,,,,10,1
W979583_jmw,q8go9c0vzl,Emily_Honors_Thesis_Part_2,1,35,2020-08-29T13:46:23-07:00,7.3404350280762,6,versionA_stim.csv,IS_JOLVersionB.csv,"ITEM SPECIFIC Version B",OLD,JUSTICE,MAROON,ON2,U,156,133,JOL,User,-,"How likely are you to correctly recall the second item in the pair?|Type your response on a scale from 0-100 and then press Enter.",Study/JOL,"Study Phase",7152,,,3243,3243,,,,5,1
W979583_jmw,q8go9c0vzl,Emily_Honors_Thesis_Part_2,1,36,2020-08-29T13:46:33-07:00,9.7972660064697,6,versionA_stim.csv,IS_JOLVersionB.csv,"ITEM SPECIFIC Version B",OLD,WRIST,BRACELET,ON2,S,140,138,JOL,User,-,"How likely are you to correctly recall the second item in the pair?|Type your response on a scale from 0-100 and then press Enter.",Study/JOL,"Study Phase",9607,,,2178,5489,,,,65,1
W979583_jmw,q8go9c0vzl,Emily_Honors_Thesis_Part_2,1,37,2020-08-29T13:46:46-07:00,13.85152387619,6,versionA_stim.csv,IS_JOLVersionB.csv,"ITEM SPECIFIC Version B",OLD,MASON,JAR,ON2,S,138,137,JOL,User,-,"How likely are you to correctly recall the second item in the pair?|Type your response on a scale from 0-100 and then press Enter.",Study/JOL,"Study Phase",3387,,,1667,1968,,,,97,0.941
W979583_jmw,q8go9c0vzl,Emily_Honors_Thesis_Part_2,1,38,2020-08-29T13:46:53-07:00,6.9272890090942,6,versionA_stim.csv,IS_JOLVersionB.csv,"ITEM SPECIFIC Version B",OLD,CAR,WINDSHIELD,ON2,B,117,116,JOL,User,-,"How likely are you to correctly recall the second item in the pair?|Type your response on a scale from 0-100 and then press Enter.",Study/JOL,"Study Phase",6736,,,2272,2599,,,,90,1
W979583_jmw,q8go9c0vzl,Emily_Honors_Thesis_Part_2,1,39,2020-08-29T13:47:01-07:00,7.2984549999237,6,versionA_stim.csv,IS_JOLVersionB.csv,"ITEM SPECIFIC Version B",OLD,TANTRUM,TEMPER,ON2,S,154,140,JOL,User,-,"How likely are you to correctly recall the second item in the pair?|Type your response on a scale from 0-100 and then press Enter.",Study/JOL,"Study Phase",7102,,,2570,3025,,,,80,1
W979583_jmw,q8go9c0vzl,Emily_Honors_Thesis_Part_2,1,40,2020-08-29T13:47:08-07:00,7.1053309440613,6,versionA_stim.csv,IS_JOLVersionB.csv,"ITEM SPECIFIC Version B",OLD,MIRROR,CHILDREN,ON2,U,174,151,JOL,User,-,"How likely are you to correctly recall the second item in the pair?|Type your response on a scale from 0-100 and then press Enter.",Study/JOL,"Study Phase",6916,,,2623,3190,,,,40,1
W979583_jmw,q8go9c0vzl,Emily_Honors_Thesis_Part_2,1,41,2020-08-29T13:47:16-07:00,8.0099191665649,6,versionA_stim.csv,IS_JOLVersionB.csv,"ITEM SPECIFIC Version B",OLD,OWN,HAVE,ON2,S,153,153,JOL,User,-,"How likely are you to correctly recall the second item in the pair?|Type your response on a scale from 0-100 and then press Enter.",Study/JOL,"Study Phase",7809,,,2420,2833,,,,80,1
W979583_jmw,q8go9c0vzl,Emily_Honors_Thesis_Part_2,1,42,2020-08-29T13:47:22-07:00,6.4966728687286,6,versionA_stim.csv,IS_JOLVersionB.csv,"ITEM SPECIFIC Version B",OLD,DOCUMENT,PAPER,ON2,F,109,174,JOL,User,-,"How likely are you to correctly recall the second item in the pair?|Type your response on a scale from 0-100 and then press Enter.",Study/JOL,"Study Phase",6304,,,1421,1797,,,,90,1
W979583_jmw,q8go9c0vzl,Emily_Honors_Thesis_Part_2,1,43,2020-08-29T13:47:28-07:00,6.1518139839172,6,versionA_stim.csv,IS_JOLVersionB.csv,"ITEM SPECIFIC Version B",OLD,EXTENSION,LONG,ON2,F,96,166,JOL,User,-,"How likely are you to correctly recall the second item in the pair?|Type your response on a scale from 0-100 and then press Enter.",Study/JOL,"Study Phase",5962,,,1530,1834,,,,80,1
W979583_jmw,q8go9c0vzl,Emily_Honors_Thesis_Part_2,1,44,2020-08-29T13:47:39-07:00,10.778864145279,6,versionA_stim.csv,IS_JOLVersionB.csv,"ITEM SPECIFIC Version B",OLD,RAZOR,SHAVE,ON2,S,136,125,JOL,User,-,"How likely are you to correctly recall the second item in the pair?|Type your response on a scale from 0-100 and then press Enter.",Study/JOL,"Study Phase",2592,,,1347,1759,,,,70,0.923
W979583_jmw,q8go9c0vzl,Emily_Honors_Thesis_Part_2,1,45,2020-08-29T13:47:46-07:00,6.6145558357239,6,versionA_stim.csv,IS_JOLVersionB.csv,"ITEM SPECIFIC Version B",OLD,AFFECTION,LOVE,ON2,F,115,128,JOL,User,-,"How likely are you to correctly recall the second item in the pair?|Type your response on a scale from 0-100 and then press Enter.",Study/JOL,"Study Phase",6421,,,1763,2126,,,,70,1
W979583_jmw,q8go9c0vzl,Emily_Honors_Thesis_Part_2,1,46,2020-08-29T13:47:52-07:00,5.9836580753326,6,versionA_stim.csv,IS_JOLVersionB.csv,"ITEM SPECIFIC Version B",OLD,CACTUS,PLANT,ON2,F,98,156,JOL,User,-,"How likely are you to correctly recall the second item in the pair?|Type your response on a scale from 0-100 and then press Enter.",Study/JOL,"Study Phase",5793,,,1696,2089,,,,70,1
W979583_jmw,q8go9c0vzl,Emily_Honors_Thesis_Part_2,1,47,2020-08-29T13:47:58-07:00,6.2629060745239,6,versionA_stim.csv,IS_JOLVersionB.csv,"ITEM SPECIFIC Version B",OLD,CRACKLE,ABLE,ON2,U,162,123,JOL,User,-,"How likely are you to correctly recall the second item in the pair?|Type your response on a scale from 0-100 and then press Enter.",Study/JOL,"Study Phase",6069,,,1707,2349,,,,20,1
W979583_jmw,q8go9c0vzl,Emily_Honors_Thesis_Part_2,1,48,2020-08-29T13:48:06-07:00,7.9627728462219,6,versionA_stim.csv,IS_JOLVersionB.csv,"ITEM SPECIFIC Version B",OLD,DEAD,COFFIN,ON2,B,128,136,JOL,User,-,"How likely are you to correctly recall the second item in the pair?|Type your response on a scale from 0-100 and then press Enter.",Study/JOL,"Study Phase",7770,,,1192,4022,,,,45,1
W979583_jmw,q8go9c0vzl,Emily_Honors_Thesis_Part_2,1,49,2020-08-29T13:48:13-07:00,6.6654732227325,6,versionA_stim.csv,IS_JOLVersionB.csv,"ITEM SPECIFIC Version B",OLD,THREAD,THIMBLE,ON2,B,121,109,JOL,User,-,"How likely are you to correctly recall the second item in the pair?|Type your response on a scale from 0-100 and then press Enter.",Study/JOL,"Study Phase",6474,,,1753,2679,,,,10,1
W979583_jmw,q8go9c0vzl,Emily_Honors_Thesis_Part_2,1,50,2020-08-29T13:48:25-07:00,12.069348812103,6,versionA_stim.csv,IS_JOLVersionB.csv,"ITEM SPECIFIC Version B",OLD,SHOELACE,TIE,ON2,F,99,146,JOL,User,-,"How likely are you to correctly recall the second item in the pair?|Type your response on a scale from 0-100 and then press Enter.",Study/JOL,"Study Phase",2865,,,1429,1912,,,,50,0.933
W979583_jmw,q8go9c0vzl,Emily_Honors_Thesis_Part_2,1,51,2020-08-29T13:48:35-07:00,10.20504117012,6,versionA_stim.csv,IS_JOLVersionB.csv,"ITEM SPECIFIC Version B",OLD,CHOP,CUT,ON2,F,107,115,JOL,User,-,"How likely are you to correctly recall the second item in the pair?|Type your response on a scale from 0-100 and then press Enter.",Study/JOL,"Study Phase",2807,,,1427,1987,,,,50,0.929
W979583_jmw,q8go9c0vzl,Emily_Honors_Thesis_Part_2,1,52,2020-08-29T13:48:40-07:00,5.2879519462585,6,versionA_stim.csv,IS_JOLVersionB.csv,"ITEM SPECIFIC Version B",OLD,EARTH,GROUND,ON2,S,144,110,JOL,User,-,"How likely are you to correctly recall the second item in the pair?|Type your response on a scale from 0-100 and then press Enter.",Study/JOL,"Study Phase",5098,,,1212,1737,,,,50,1
W979583_jmw,q8go9c0vzl,Emily_Honors_Thesis_Part_2,1,53,2020-08-29T13:48:52-07:00,12.076292991638,6,versionA_stim.csv,IS_JOLVersionB.csv,"ITEM SPECIFIC Version B",OLD,KEYS,JOKE,ON2,U,165,142,JOL,User,-,"How likely are you to correctly recall the second item in the pair?|Type your response on a scale from 0-100 and then press Enter.",Study/JOL,"Study Phase",11859,,,1035,7857,,,,20,1
W979583_jmw,q8go9c0vzl,Emily_Honors_Thesis_Part_2,1,54,2020-08-29T13:49:01-07:00,9.0765318870544,6,versionA_stim.csv,IS_JOLVersionB.csv,"ITEM SPECIFIC Version B",OLD,GONE,AWAY,ON2,S,142,148,JOL,User,-,"How likely are you to correctly recall the second item in the pair?|Type your response on a scale from 0-100 and then press Enter.",Study/JOL,"Study Phase",8888,,,1367,4727,,,,85,1
W979583_jmw,q8go9c0vzl,Emily_Honors_Thesis_Part_2,1,55,2020-08-29T13:49:10-07:00,8.3114581108093,6,versionA_stim.csv,IS_JOLVersionB.csv,"ITEM SPECIFIC Version B",OLD,SUN,TAN,ON2,S,155,158,JOL,User,-,"How likely are you to correctly recall the second item in the pair?|Type your response on a scale from 0-100 and then press Enter.",Study/JOL,"Study Phase",8118,,,2674,4403,,,,25,1
W979583_jmw,q8go9c0vzl,Emily_Honors_Thesis_Part_2,1,56,2020-08-29T13:49:20-07:00,9.9577560424805,6,versionA_stim.csv,IS_JOLVersionB.csv,"ITEM SPECIFIC Version B",OLD,ALONE,LONELY,ON2,S,145,98,JOL,User,-,"How likely are you to correctly recall the second item in the pair?|Type your response on a scale from 0-100 and then press Enter.",Study/JOL,"Study Phase",2703,,,1349,1864,,,,50,0.929
W979583_jmw,q8go9c0vzl,Emily_Honors_Thesis_Part_2,1,57,2020-08-29T13:49:50-07:00,29.897619962692,6,versionA_stim.csv,IS_JOLVersionB.csv,"ITEM SPECIFIC Version B",OLD,LOAN,SIGN,ON2,U,171,130,JOL,User,-,"How likely are you to correctly recall the second item in the pair?|Type your response on a scale from 0-100 and then press Enter.",Study/JOL,"Study Phase",29700,,,25503,25907,,,,50,1
W979583_jmw,q8go9c0vzl,Emily_Honors_Thesis_Part_2,1,58,2020-08-29T13:49:55-07:00,5.6843159198761,6,versionA_stim.csv,IS_JOLVersionB.csv,"ITEM SPECIFIC Version B",OLD,SCALP,HEAD,ON2,F,105,170,JOL,User,-,"How likely are you to correctly recall the second item in the pair?|Type your response on a scale from 0-100 and then press Enter.",Study/JOL,"Study Phase",5494,,,1584,2061,,,,50,1
W979583_jmw,q8go9c0vzl,Emily_Honors_Thesis_Part_2,1,59,2020-08-29T13:49:59-07:00,3.9905250072479,6,versionA_stim.csv,IS_JOLVersionB.csv,"ITEM SPECIFIC Version B",OLD,,,,,,0,Instruct,-,3,"Remember to focus on how the two items are unique while you study and make your ratings!",,CHECK2,3800,,,-1,-1,,,,,1
W979583_jmw,q8go9c0vzl,Emily_Honors_Thesis_Part_2,1,60,2020-08-29T13:50:19-07:00,19.334312915802,6,versionA_stim.csv,IS_JOLVersionB.csv,"ITEM SPECIFIC Version B",OLD,DRIVER,CAR,ON2,F,106,105,JOL,User,-,"How likely are you to correctly recall the second item in the pair?|Type your response on a scale from 0-100 and then press Enter.",Study/JOL,"Study Phase",19138,,,14718,15161,,,,50,1
W979583_jmw,q8go9c0vzl,Emily_Honors_Thesis_Part_2,1,61,2020-08-29T13:50:28-07:00,9.3073651790619,6,versionA_stim.csv,IS_JOLVersionB.csv,"ITEM SPECIFIC Version B",OLD,VEHICLE,CHARM,ON2,U,160,117,JOL,User,-,"How likely are you to correctly recall the second item in the pair?|Type your response on a scale from 0-100 and then press Enter.",Study/JOL,"Study Phase",9115,,,4773,5407,,,,20,1
W979583_jmw,q8go9c0vzl,Emily_Honors_Thesis_Part_2,1,62,2020-08-29T13:50:42-07:00,14.367046833038,6,versionA_stim.csv,IS_JOLVersionB.csv,"ITEM SPECIFIC Version B",OLD,LITTER,TRASH,ON2,F,103,135,JOL,User,-,"How likely are you to correctly recall the second item in the pair?|Type your response on a scale from 0-100 and then press Enter.",Study/JOL,"Study Phase",2954,,,1357,2073,,,,50,0.933
W979583_jmw,q8go9c0vzl,Emily_Honors_Thesis_Part_2,1,63,2020-08-29T13:50:52-07:00,9.8776981830597,6,versionA_stim.csv,IS_JOLVersionB.csv,"ITEM SPECIFIC Version B",OLD,GIVE,STEAK,ON2,U,158,160,JOL,User,-,"How likely are you to correctly recall the second item in the pair?|Type your response on a scale from 0-100 and then press Enter.",Study/JOL,"Study Phase",2999,,,1142,1819,,,,20,0.933
W979583_jmw,q8go9c0vzl,Emily_Honors_Thesis_Part_2,1,64,2020-08-29T13:50:58-07:00,6.0059568881989,6,versionA_stim.csv,IS_JOLVersionB.csv,"ITEM SPECIFIC Version B",OLD,GLASS,BREAKABLE,ON2,B,127,164,JOL,User,-,"How likely are you to correctly recall the second item in the pair?|Type your response on a scale from 0-100 and then press Enter.",Study/JOL,"Study Phase",5811,,,1618,2116,,,,60,1
W979583_jmw,q8go9c0vzl,Emily_Honors_Thesis_Part_2,1,65,2020-08-29T13:51:03-07:00,4.9328820705414,6,versionA_stim.csv,IS_JOLVersionB.csv,"ITEM SPECIFIC Version B",OLD,LISTEN,FICTION,ON2,U,164,127,JOL,User,-,"How likely are you to correctly recall the second item in the pair?|Type your response on a scale from 0-100 and then press Enter.",Study/JOL,"Study Phase",4741,,,1777,2322,,,,10,1
W979583_jmw,q8go9c0vzl,Emily_Honors_Thesis_Part_2,1,66,2020-08-29T13:51:08-07:00,5.0816600322723,6,versionA_stim.csv,IS_JOLVersionB.csv,"ITEM SPECIFIC Version B",OLD,BASEBALL,LEAGUE,ON2,B,131,101,JOL,User,-,"How likely are you to correctly recall the second item in the pair?|Type your response on a scale from 0-100 and then press Enter.",Study/JOL,"Study Phase",4894,,,2168,2677,,,,60,1
W979583_jmw,q8go9c0vzl,Emily_Honors_Thesis_Part_2,1,67,2020-08-29T13:51:14-07:00,5.3488159179688,6,versionA_stim.csv,IS_JOLVersionB.csv,"ITEM SPECIFIC Version B",OLD,ELEMENT,CARBON,ON2,S,141,104,JOL,User,-,"How likely are you to correctly recall the second item in the pair?|Type your response on a scale from 0-100 and then press Enter.",Study/JOL,"Study Phase",5154,,,1768,2379,,,,12,1
W979583_jmw,q8go9c0vzl,Emily_Honors_Thesis_Part_2,1,68,2020-08-29T13:51:17-07:00,3.9758009910583,6,versionA_stim.csv,IS_JOLVersionB.csv,"ITEM SPECIFIC Version B",OLD,LEASE,TOIL,ON2,U,170,106,JOL,User,-,"How likely are you to correctly recall the second item in the pair?|Type your response on a scale from 0-100 and then press Enter.",Study/JOL,"Study Phase",3780,,,1214,1389,,,,12,1
W979583_jmw,q8go9c0vzl,Emily_Honors_Thesis_Part_2,1,69,2020-08-29T13:51:23-07:00,5.0697729587555,6,versionA_stim.csv,IS_JOLVersionB.csv,"ITEM SPECIFIC Version B",OLD,FLEA,TICK,ON2,S,151,108,JOL,User,-,"How likely are you to correctly recall the second item in the pair?|Type your response on a scale from 0-100 and then press Enter.",Study/JOL,"Study Phase",4876,,,2210,2650,,,,70,1
W979583_jmw,q8go9c0vzl,Emily_Honors_Thesis_Part_2,1,70,2020-08-29T13:51:36-07:00,13.77196097374,6,versionA_stim.csv,IS_JOLVersionB.csv,"ITEM SPECIFIC Version B",OLD,TRUTH,LIE,ON2,S,148,169,JOL,User,-,"How likely are you to correctly recall the second item in the pair?|Type your response on a scale from 0-100 and then press Enter.",Study/JOL,"Study Phase",2740,,,1277,1674,,,,70,0.929
W979583_jmw,q8go9c0vzl,Emily_Honors_Thesis_Part_2,1,71,2020-08-29T13:51:47-07:00,10.309956073761,6,versionA_stim.csv,IS_JOLVersionB.csv,"ITEM SPECIFIC Version B",OLD,SHEARS,SCISSORS,ON2,F,112,122,JOL,User,-,"How likely are you to correctly recall the second item in the pair?|Type your response on a scale from 0-100 and then press Enter.",Study/JOL,"Study Phase",2783,,,1380,1872,,,,50,0.929
W979583_jmw,q8go9c0vzl,Emily_Honors_Thesis_Part_2,1,72,2020-08-29T13:51:54-07:00,7.5973789691925,6,versionA_stim.csv,IS_JOLVersionB.csv,"ITEM SPECIFIC Version B",OLD,PHONE,COMMUNICATION,ON2,S,149,129,JOL,User,-,"How likely are you to correctly recall the second item in the pair?|Type your response on a scale from 0-100 and then press Enter.",Study/JOL,"Study Phase",7405,,,5255,6473,,,,68,1
W979583_jmw,q8go9c0vzl,Emily_Honors_Thesis_Part_2,1,73,2020-08-29T13:52:03-07:00,9.106164932251,6,versionA_stim.csv,IS_JOLVersionB.csv,"ITEM SPECIFIC Version B",OLD,LOUD,NOISE,ON2,S,152,173,JOL,User,-,"How likely are you to correctly recall the second item in the pair?|Type your response on a scale from 0-100 and then press Enter.",Study/JOL,"Study Phase",3314,,,1304,1757,,,,50,0.941
W979583_jmw,q8go9c0vzl,Emily_Honors_Thesis_Part_2,1,74,2020-08-29T13:52:08-07:00,5.1489181518555,6,versionA_stim.csv,IS_JOLVersionB.csv,"ITEM SPECIFIC Version B",OLD,CANDLE,WAX,ON2,S,139,143,JOL,User,-,"How likely are you to correctly recall the second item in the pair?|Type your response on a scale from 0-100 and then press Enter.",Study/JOL,"Study Phase",4947,,,1990,2251,,,,80,1
W979583_jmw,q8go9c0vzl,Emily_Honors_Thesis_Part_2,1,75,2020-08-29T13:52:51-07:00,42.50264787674,6,versionA_stim.csv,IS_JOLVersionB.csv,"ITEM SPECIFIC Version B",OLD,FURRY,DOG,ON2,F,102,149,JOL,User,-,"How likely are you to correctly recall the second item in the pair?|Type your response on a scale from 0-100 and then press Enter.",Study/JOL,"Study Phase",8753,,,6597,6887,,,,70,0.977
W979583_jmw,q8go9c0vzl,Emily_Honors_Thesis_Part_2,1,76,2020-08-29T13:53:01-07:00,9.9349160194397,6,versionA_stim.csv,IS_JOLVersionB.csv,"ITEM SPECIFIC Version B",OLD,RIGHTS,EQUAL,ON2,S,137,100,JOL,User,-,"How likely are you to correctly recall the second item in the pair?|Type your response on a scale from 0-100 and then press Enter.",Study/JOL,"Study Phase",3093,,,1366,1876,,,,60,0.938
W979583_jmw,q8go9c0vzl,Emily_Honors_Thesis_Part_2,1,77,2020-08-29T13:53:13-07:00,12.507784128189,6,versionA_stim.csv,IS_JOLVersionB.csv,"ITEM SPECIFIC Version B",OLD,CHILL,COLD,ON2,F,114,139,JOL,User,-,"How likely are you to correctly recall the second item in the pair?|Type your response on a scale from 0-100 and then press Enter.",Study/JOL,"Study Phase",3357,,,1139,1254,,,,90,0.941
W979583_jmw,q8go9c0vzl,Emily_Honors_Thesis_Part_2,1,78,2020-08-29T13:53:19-07:00,5.2482998371124,6,versionA_stim.csv,IS_JOLVersionB.csv,"ITEM SPECIFIC Version B",OLD,STRETCH,CLOTH,ON2,U,157,162,JOL,User,-,"How likely are you to correctly recall the second item in the pair?|Type your response on a scale from 0-100 and then press Enter.",Study/JOL,"Study Phase",5056,,,1995,2736,,,,35,1
W979583_jmw,q8go9c0vzl,Emily_Honors_Thesis_Part_2,1,79,2020-08-29T13:53:23-07:00,4.5754861831665,6,versionA_stim.csv,IS_JOLVersionB.csv,"ITEM SPECIFIC Version B",OLD,BEST,FAVORITE,ON2,B,125,118,JOL,User,-,"How likely are you to correctly recall the second item in the pair?|Type your response on a scale from 0-100 and then press Enter.",Study/JOL,"Study Phase",4382,,,1576,2020,,,,70,1
W979583_jmw,q8go9c0vzl,Emily_Honors_Thesis_Part_2,1,80,2020-08-29T13:53:28-07:00,4.8017449378967,6,versionA_stim.csv,IS_JOLVersionB.csv,"ITEM SPECIFIC Version B",OLD,BOTH,OUNCE,ON2,U,172,172,JOL,User,-,"How likely are you to correctly recall the second item in the pair?|Type your response on a scale from 0-100 and then press Enter.",Study/JOL,"Study Phase",4604,,,2017,2223,,,,12,1
W979583_jmw,q8go9c0vzl,Emily_Honors_Thesis_Part_2,1,81,2020-08-29T13:53:32-07:00,4.2297320365906,6,versionA_stim.csv,IS_JOLVersionB.csv,"ITEM SPECIFIC Version B",OLD,HONEST,TRUTHFUL,ON2,B,133,113,JOL,User,-,"How likely are you to correctly recall the second item in the pair?|Type your response on a scale from 0-100 and then press Enter.",Study/JOL,"Study Phase",4037,,,1589,1969,,,,70,1
W979583_jmw,q8go9c0vzl,Emily_Honors_Thesis_Part_2,1,82,2020-08-29T13:53:36-07:00,4.1969449520111,6,versionA_stim.csv,IS_JOLVersionB.csv,"ITEM SPECIFIC Version B",OLD,SHELL,SHAKE,ON2,U,163,168,JOL,User,-,"How likely are you to correctly recall the second item in the pair?|Type your response on a scale from 0-100 and then press Enter.",Study/JOL,"Study Phase",4004,,,1290,1630,,,,80,1
W979583_jmw,q8go9c0vzl,Emily_Honors_Thesis_Part_2,1,83,2020-08-29T13:53:41-07:00,4.6633019447327,6,versionA_stim.csv,IS_JOLVersionB.csv,"ITEM SPECIFIC Version B",OLD,MAZE,ELECTION,ON2,U,159,102,JOL,User,-,"How likely are you to correctly recall the second item in the pair?|Type your response on a scale from 0-100 and then press Enter.",Study/JOL,"Study Phase",4468,,,1261,1733,,,,50,1
W979583_jmw,q8go9c0vzl,Emily_Honors_Thesis_Part_2,1,84,2020-08-29T13:53:46-07:00,4.3813791275024,6,versionA_stim.csv,IS_JOLVersionB.csv,"ITEM SPECIFIC Version B",OLD,FRUIT,STRAWBERRY,ON2,B,124,171,JOL,User,-,"How likely are you to correctly recall the second item in the pair?|Type your response on a scale from 0-100 and then press Enter.",Study/JOL,"Study Phase",4190,,,1141,1684,,,,40,1
W979583_jmw,q8go9c0vzl,Emily_Honors_Thesis_Part_2,1,85,2020-08-29T13:53:56-07:00,10.886183977127,6,versionA_stim.csv,IS_JOLVersionB.csv,"ITEM SPECIFIC Version B",OLD,FUZZY,BANG,ON2,U,168,165,JOL,User,-,"How likely are you to correctly recall the second item in the pair?|Type your response on a scale from 0-100 and then press Enter.",Study/JOL,"Study Phase",3599,,,1079,1654,,,,20,0.944
W979583_jmw,q8go9c0vzl,Emily_Honors_Thesis_Part_2,1,86,2020-08-29T13:54:12-07:00,15.152338981628,6,versionA_stim.csv,IS_JOLVersionB.csv,"ITEM SPECIFIC Version B",OLD,DETECTIVE,MYSTERY,ON2,F,100,141,JOL,User,-,"How likely are you to correctly recall the second item in the pair?|Type your response on a scale from 0-100 and then press Enter.",Study/JOL,"Study Phase",14948,,,12028,12410,,,,60,1
W979583_jmw,q8go9c0vzl,Emily_Honors_Thesis_Part_2,1,87,2020-08-29T13:54:44-07:00,32.070334911346,6,versionA_stim.csv,IS_JOLVersionB.csv,"ITEM SPECIFIC Version B",OLD,PLANE,AIRCRAFT,ON2,B,129,126,JOL,User,-,"How likely are you to correctly recall the second item in the pair?|Type your response on a scale from 0-100 and then press Enter.",Study/JOL,"Study Phase",11684,,,7675,8147,,,,50,0.983
W979583_jmw,q8go9c0vzl,Emily_Honors_Thesis_Part_2,1,88,2020-08-29T13:54:50-07:00,6.8620419502258,6,versionA_stim.csv,IS_JOLVersionB.csv,"ITEM SPECIFIC Version B",OLD,SAFETY,SEATBELT,ON2,S,147,103,JOL,User,-,"How likely are you to correctly recall the second item in the pair?|Type your response on a scale from 0-100 and then press Enter.",Study/JOL,"Study Phase",6662,,,2020,2477,,,,50,1
W979583_jmw,q8go9c0vzl,Emily_Honors_Thesis_Part_2,1,89,2020-08-29T13:54:59-07:00,8.7146952152252,6,versionA_stim.csv,IS_JOLVersionB.csv,"ITEM SPECIFIC Version B",OLD,INCENSE,SMELL,ON2,F,110,124,JOL,User,-,"How likely are you to correctly recall the second item in the pair?|Type your response on a scale from 0-100 and then press Enter.",Study/JOL,"Study Phase",8521,,,1321,1726,,,,80,1
W979583_jmw,q8go9c0vzl,Emily_Honors_Thesis_Part_2,1,90,2020-08-29T13:55:04-07:00,4.5485877990723,6,versionA_stim.csv,IS_JOLVersionB.csv,"ITEM SPECIFIC Version B",OLD,TURN,FLIP,ON2,B,116,150,JOL,User,-,"How likely are you to correctly recall the second item in the pair?|Type your response on a scale from 0-100 and then press Enter.",Study/JOL,"Study Phase",4358,,,1636,2056,,,,80,1
W979583_jmw,q8go9c0vzl,Emily_Honors_Thesis_Part_2,1,91,2020-08-29T13:55:44-07:00,40.526276111603,6,versionA_stim.csv,IS_JOLVersionB.csv,"ITEM SPECIFIC Version B",OLD,BAD,VILLAIN,ON2,B,118,147,JOL,User,-,"How likely are you to correctly recall the second item in the pair?|Type your response on a scale from 0-100 and then press Enter.",Study/JOL,"Study Phase",5277,,,3943,4191,,,,80,0.963
W979583_jmw,q8go9c0vzl,Emily_Honors_Thesis_Part_2,1,92,2020-08-29T13:55:51-07:00,6.6109609603882,6,versionA_stim.csv,IS_JOLVersionB.csv,"ITEM SPECIFIC Version B",OLD,SLEEP,NAP,ON2,B,134,176,JOL,User,-,"How likely are you to correctly recall the second item in the pair?|Type your response on a scale from 0-100 and then press Enter.",Study/JOL,"Study Phase",6416,,,4497,5193,,,,40,1
W979583_jmw,q8go9c0vzl,Emily_Honors_Thesis_Part_2,1,93,2020-08-29T13:55:59-07:00,8.5117869377136,6,versionA_stim.csv,IS_JOLVersionB.csv,"ITEM SPECIFIC Version B",OLD,MOAT,CLEAR,ON2,U,169,114,JOL,User,-,"How likely are you to correctly recall the second item in the pair?|Type your response on a scale from 0-100 and then press Enter.",Study/JOL,"Study Phase",2556,,,1109,1281,,,,10,0.923
W979583_jmw,q8go9c0vzl,Emily_Honors_Thesis_Part_2,1,94,2020-08-29T13:56:07-07:00,7.9812710285187,6,versionA_stim.csv,IS_JOLVersionB.csv,"ITEM SPECIFIC Version B",OLD,TEMPERATURE,MORNING,ON2,U,173,154,JOL,User,-,"How likely are you to correctly recall the second item in the pair?|Type your response on a scale from 0-100 and then press Enter.",Study/JOL,"Study Phase",7753,,,2141,2299,,,,10,1
W979583_jmw,q8go9c0vzl,Emily_Honors_Thesis_Part_2,1,95,2020-08-29T13:56:25-07:00,17.843308925629,6,versionA_stim.csv,IS_JOLVersionB.csv,"ITEM SPECIFIC Version B",OLD,FISH,SARDINE,ON2,B,130,112,JOL,User,-,"How likely are you to correctly recall the second item in the pair?|Type your response on a scale from 0-100 and then press Enter.",Study/JOL,"Study Phase",17648,,,10341,10536,,,,20,1
W979583_jmw,q8go9c0vzl,Emily_Honors_Thesis_Part_2,1,96,2020-08-29T13:56:30-07:00,5.058375120163,6,versionA_stim.csv,IS_JOLVersionB.csv,"ITEM SPECIFIC Version B",OLD,ROD,REEL,ON2,S,150,167,JOL,User,-,"How likely are you to correctly recall the second item in the pair?|Type your response on a scale from 0-100 and then press Enter.",Study/JOL,"Study Phase",4858,,,1410,1912,,,,40,1
W979583_jmw,q8go9c0vzl,Emily_Honors_Thesis_Part_2,1,97,2020-08-29T13:56:35-07:00,4.9178719520569,6,versionA_stim.csv,IS_JOLVersionB.csv,"ITEM SPECIFIC Version B",OLD,CAT,PANTHER,ON2,B,126,155,JOL,User,-,"How likely are you to correctly recall the second item in the pair?|Type your response on a scale from 0-100 and then press Enter.",Study/JOL,"Study Phase",4718,,,1148,1750,,,,40,1
W979583_jmw,q8go9c0vzl,Emily_Honors_Thesis_Part_2,1,98,2020-08-29T13:56:51-07:00,16.078393936157,6,versionA_stim.csv,IS_JOLVersionB.csv,"ITEM SPECIFIC Version B",OLD,ADJOURN,END,ON2,F,101,159,JOL,User,-,"How likely are you to correctly recall the second item in the pair?|Type your response on a scale from 0-100 and then press Enter.",Study/JOL,"Study Phase",1759,,,1067,1068,,,,3,0.889
W979583_jmw,q8go9c0vzl,Emily_Honors_Thesis_Part_2,1,99,2020-08-29T13:56:57-07:00,6.0406382083893,6,versionA_stim.csv,IS_JOLVersionB.csv,"ITEM SPECIFIC Version B",OLD,FEUD,FIGHT,ON2,F,113,131,JOL,User,-,"How likely are you to correctly recall the second item in the pair?|Type your response on a scale from 0-100 and then press Enter.",Study/JOL,"Study Phase",5848,,,1657,4836,,,,30,1
W979583_jmw,q8go9c0vzl,Emily_Honors_Thesis_Part_2,1,100,2020-08-29T13:57:03-07:00,5.5419700145721,6,versionA_stim.csv,IS_JOLVersionB.csv,"ITEM SPECIFIC Version B",OLD,MEAT,OBTAIN,ON2,U,161,144,JOL,User,-,"How likely are you to correctly recall the second item in the pair?|Type your response on a scale from 0-100 and then press Enter.",Study/JOL,"Study Phase",5342,,,1866,1866,,,,3,1
W979583_jmw,q8go9c0vzl,Emily_Honors_Thesis_Part_2,1,101,2020-08-29T13:57:13-07:00,10.61664390564,6,versionA_stim.csv,IS_JOLVersionB.csv,"ITEM SPECIFIC Version B",OLD,CAKE,CLOTHES,ON2,U,166,107,JOL,User,-,"How likely are you to correctly recall the second item in the pair?|Type your response on a scale from 0-100 and then press Enter.",Study/JOL,"Study Phase",3970,,,1453,1453,,,,7,0.95
W979583_jmw,q8go9c0vzl,Emily_Honors_Thesis_Part_2,1,102,2020-08-29T13:57:22-07:00,8.0765769481659,6,versionA_stim.csv,IS_JOLVersionB.csv,"ITEM SPECIFIC Version B",OLD,CLUE,GAME,ON2,F,97,120,JOL,User,-,"How likely are you to correctly recall the second item in the pair?|Type your response on a scale from 0-100 and then press Enter.",Study/JOL,"Study Phase",7793,,,3417,5772,,,,60,1
W979583_jmw,q8go9c0vzl,Emily_Honors_Thesis_Part_2,1,103,2020-08-29T13:57:25-07:00,3.5278589725494,6,versionA_stim.csv,IS_JOLVersionB.csv,"ITEM SPECIFIC Version B",OLD,CHERRY,RED,ON2,F,104,97,JOL,User,-,"How likely are you to correctly recall the second item in the pair?|Type your response on a scale from 0-100 and then press Enter.",Study/JOL,"Study Phase",3330,,,1312,1653,,,,70,1
W979583_jmw,q8go9c0vzl,Emily_Honors_Thesis_Part_2,1,104,2020-08-29T13:57:33-07:00,7.467297077179,6,versionA_stim.csv,IS_JOLVersionB.csv,"ITEM SPECIFIC Version B",OLD,POP,BALLOON,ON2,B,123,99,JOL,User,-,"How likely are you to correctly recall the second item in the pair?|Type your response on a scale from 0-100 and then press Enter.",Study/JOL,"Study Phase",7266,,,5082,5680,,,,50,1
W979583_jmw,q8go9c0vzl,Emily_Honors_Thesis_Part_2,1,105,2020-08-29T13:59:09-07:00,96.643946886063,6,versionA_stim.csv,IS_JOLVersionB.csv,"ITEM SPECIFIC Version B",OLD,SHRIMP,FISH,Buffer3,Buffer,93,178,JOL,User,-,"How likely are you to correctly recall the second item in the pair?|Type your response on a scale from 0-100 and then press Enter.",Study/JOL,BUFFER2,61905,,,61369,61512,,,,50,0.997
W979583_jmw,q8go9c0vzl,Emily_Honors_Thesis_Part_2,1,106,2020-08-29T13:59:16-07:00,7.2683551311493,6,versionA_stim.csv,IS_JOLVersionB.csv,"ITEM SPECIFIC Version B",OLD,DAYS,WEAKS,Buffer3,Buffer,176,177,JOL,User,-,"How likely are you to correctly recall the second item in the pair?|Type your response on a scale from 0-100 and then press Enter.",Study/JOL,BUFFER2,7068,,,1204,1399,,,,50,1
W979583_jmw,q8go9c0vzl,Emily_Honors_Thesis_Part_2,1,107,2020-08-29T13:59:21-07:00,4.1766679286957,6,versionA_stim.csv,IS_JOLVersionB.csv,"ITEM SPECIFIC Version B",OLD,MONTH,YEAR,Buffer3,Buffer,177,181,JOL,User,-,"How likely are you to correctly recall the second item in the pair?|Type your response on a scale from 0-100 and then press Enter.",Study/JOL,BUFFER2,3973,,,1259,1694,,,,70,1
W979583_jmw,q8go9c0vzl,Emily_Honors_Thesis_Part_2,1,108,2020-08-29T13:59:33-07:00,12.184432983398,6,versionA_stim.csv,IS_JOLVersionB.csv,"ITEM SPECIFIC Version B",OLD,CAMP,ADVENTURE,Buffer3,Buffer,95,179,JOL,User,-,"How likely are you to correctly recall the second item in the pair?|Type your response on a scale from 0-100 and then press Enter.",Study/JOL,BUFFER2,2234,,,1414,1880,,,,70,0.917
W979583_jmw,q8go9c0vzl,Emily_Honors_Thesis_Part_2,1,109,2020-08-29T14:00:06-07:00,32.694682121277,6,versionA_stim.csv,IS_JOLVersionB.csv,"ITEM SPECIFIC Version B",OLD,ICE,FROZEN,Buffer3,Buffer,94,180,JOL,User,-,"How likely are you to correctly recall the second item in the pair?|Type your response on a scale from 0-100 and then press Enter.",Study/JOL,BUFFER2,14389,,,13098,13505,,,,70,0.986
W979583_jmw,q8go9c0vzl,Emily_Honors_Thesis_Part_2,1,110,2020-08-29T14:00:48-07:00,42.590487957001,6,versionA_stim.csv,IS_JOLVersionB.csv,"ITEM SPECIFIC Version B",OLD,,,,,,0,Instruct,User,-,"You have completed this section. Please press Enter.",Filler_Instruction,Instruct5,37769,,,-1,-1,,,,,0.995
W979583_jmw,q8go9c0vzl,Emily_Honors_Thesis_Part_2,1,111,2020-08-29T14:01:15-07:00,26.819738864899,6,versionA_stim.csv,IS_JOLVersionB.csv,"ITEM SPECIFIC Version B",OLD,,,,,,0,FreeRecall,-,10,"What were you supposed to focus on while you studied each pair? (Hint: Think back to the instructions). Type your answer in the space below.",,CHECK3,26618,"second item",0,21114,25052,0,0,,,1
W979583_jmw,q8go9c0vzl,Emily_Honors_Thesis_Part_2,1,112,2020-08-29T14:01:16-07:00,1.3684341907501,6,versionA_stim.csv,IS_JOLVersionB.csv,"ITEM SPECIFIC Version B",OLD,,,,,,0,Instruct,User,-,"You have completed this section. Please press Enter.",Filler_Instruction,Instruct2,1212,,,-1,-1,,,,,1
W979583_jmw,q8go9c0vzl,Emily_Honors_Thesis_Part_2,1,113,2020-08-29T14:03:17-07:00,120.19998693466,6,versionA_stim.csv,IS_JOLVersionB.csv,"ITEM SPECIFIC Version B",OLD,,,,,,0,FreeRecall,120,120,"Please list the 50 US states in alphabetical order. The task will automatically advance to the next screen after two minutes.",,Filler1,120001,"Alabama Alaska Arizona Arkansas California Colorado Connecticut Delaware ",0,39691,113297,0,0,,,1
W979583_jmw,q8go9c0vzl,Emily_Honors_Thesis_Part_2,1,114,2020-08-29T14:03:42-07:00,25.32212305069,6,versionA_stim.csv,IS_JOLVersionB.csv,"ITEM SPECIFIC Version B",OLD,,,,,,0,Instruct,-,10,"You will now be presented with the first word from each of the previously studied item pairs. Please type the missing word. If you do not know the word, you may guess or press Enter to skip forward to the next pair.",,Instruct3,25125,,,-1,-1,,,,,1
W979583_jmw,q8go9c0vzl,Emily_Honors_Thesis_Part_2,1,115,2020-08-29T14:04:50-07:00,68.463729858398,6,versionA_stim.csv,IS_JOLVersionB.csv,"ITEM SPECIFIC Version B",OLD,STRETCH,CLOTH,ON2,U,157,162,Test,User,-,,Recall,Recall1,68236,Cloth,100,58900,60138,1,1,,,1
W979583_jmw,q8go9c0vzl,Emily_Honors_Thesis_Part_2,1,116,2020-08-29T14:05:54-07:00,63.273718118668,6,versionA_stim.csv,IS_JOLVersionB.csv,"ITEM SPECIFIC Version B",OLD,GONE,AWAY,ON2,S,142,148,Test,User,-,,Recall,Recall1,63074,Away,100,60710,61663,1,1,,,1
W979583_jmw,q8go9c0vzl,Emily_Honors_Thesis_Part_2,1,117,2020-08-29T14:07:40-07:00,106.36556100845,6,versionA_stim.csv,IS_JOLVersionB.csv,"ITEM SPECIFIC Version B",OLD,FLEA,TICK,ON2,S,151,108,Test,User,-,,Recall,Recall1,106164,Tick,100,10786,12098,1,1,,,1
W979583_jmw,q8go9c0vzl,Emily_Honors_Thesis_Part_2,1,118,2020-08-29T14:10:07-07:00,147.44751405716,6,versionA_stim.csv,IS_JOLVersionB.csv,"ITEM SPECIFIC Version B",OLD,MIRROR,CHILDREN,ON2,U,174,151,Test,User,-,,Recall,Recall1,147247,Children,100,128731,131283,1,1,,,1
W979583_jmw,q8go9c0vzl,Emily_Honors_Thesis_Part_2,1,119,2020-08-29T14:11:14-07:00,66.449772834778,6,versionA_stim.csv,IS_JOLVersionB.csv,"ITEM SPECIFIC Version B",OLD,VEHICLE,CHARM,ON2,U,160,117,Test,User,-,,Recall,Recall1,66249,charm,100,63853,64696,1,1,,,1
W979583_jmw,q8go9c0vzl,Emily_Honors_Thesis_Part_2,1,120,2020-08-29T14:14:24-07:00,189.67854499817,6,versionA_stim.csv,IS_JOLVersionB.csv,"ITEM SPECIFIC Version B",OLD,LISTEN,FICTION,ON2,U,164,127,Test,User,-,,Recall,Recall1,189476,fiction,100,186807,188098,1,1,,,1
W979583_jmw,q8go9c0vzl,Emily_Honors_Thesis_Part_2,1,121,2020-08-29T14:15:14-07:00,50.107048988342,6,versionA_stim.csv,IS_JOLVersionB.csv,"ITEM SPECIFIC Version B",OLD,RIGHTS,EQUAL,ON2,S,137,100,Test,User,-,,Recall,Recall1,49910,equal,100,46681,48568,1,1,,,1
W979583_jmw,q8go9c0vzl,Emily_Honors_Thesis_Part_2,1,122,2020-08-29T14:15:23-07:00,9.8837821483612,6,versionA_stim.csv,IS_JOLVersionB.csv,"ITEM SPECIFIC Version B",OLD,CANDLE,WAX,ON2,S,139,143,Test,User,-,,Recall,Recall1,9687,wax,100,7638,8675,1,1,,,1
W979583_jmw,q8go9c0vzl,Emily_Honors_Thesis_Part_2,1,123,2020-08-29T14:15:43-07:00,19.406293869019,6,versionA_stim.csv,IS_JOLVersionB.csv,"ITEM SPECIFIC Version B",OLD,PHONE,COMMUNICATION,ON2,S,149,129,Test,User,-,,Recall,Recall1,19208,communicaton,96,7269,14433,0,1,,,1
W979583_jmw,q8go9c0vzl,Emily_Honors_Thesis_Part_2,1,124,2020-08-29T14:17:29-07:00,105.7396171093,6,versionA_stim.csv,IS_JOLVersionB.csv,"ITEM SPECIFIC Version B",OLD,BEST,FAVORITE,ON2,B,125,118,Test,User,-,,Recall,Recall1,105540,"favorite ",100,101083,104428,1,1,,,1
W979583_jmw,q8go9c0vzl,Emily_Honors_Thesis_Part_2,1,125,2020-08-29T14:17:46-07:00,16.990828990936,6,versionA_stim.csv,IS_JOLVersionB.csv,"ITEM SPECIFIC Version B",OLD,ROD,REEL,ON2,S,150,167,Test,User,-,,Recall,Recall1,16788,reel,100,14875,15791,1,1,,,1
W979583_jmw,q8go9c0vzl,Emily_Honors_Thesis_Part_2,1,126,2020-08-29T14:18:39-07:00,53.563066005707,6,versionA_stim.csv,IS_JOLVersionB.csv,"ITEM SPECIFIC Version B",OLD,WATER,DRINK,ON2,S,143,163,Test,User,-,,Recall,Recall1,53362,drink,100,49796,52295,1,1,,,1
W979583_jmw,q8go9c0vzl,Emily_Honors_Thesis_Part_2,1,127,2020-08-29T14:18:59-07:00,19.539882898331,6,versionA_stim.csv,IS_JOLVersionB.csv,"ITEM SPECIFIC Version B",OLD,ADJOURN,END,ON2,F,101,159,Test,User,-,,Recall,Recall1,11662,end,100,9214,9959,1,1,,,0.983
W979583_jmw,q8go9c0vzl,Emily_Honors_Thesis_Part_2,1,128,2020-08-29T14:19:51-07:00,51.91598200798,6,versionA_stim.csv,IS_JOLVersionB.csv,"ITEM SPECIFIC Version B",OLD,EVEN,REVENGE,ON2,B,122,152,Test,User,-,,Recall,Recall1,51720,fair,18.181818181818,46837,49921,0,0,,,1
W979583_jmw,q8go9c0vzl,Emily_Honors_Thesis_Part_2,1,129,2020-08-29T14:20:47-07:00,56.621627092361,6,versionA_stim.csv,IS_JOLVersionB.csv,"ITEM SPECIFIC Version B",OLD,GIVE,STEAK,ON2,U,158,160,Test,User,-,,Recall,Recall1,56415,steak,100,53246,55159,1,1,,,1
W979583_jmw,q8go9c0vzl,Emily_Honors_Thesis_Part_2,1,130,2020-08-29T14:21:39-07:00,51.939990997314,6,versionA_stim.csv,IS_JOLVersionB.csv,"ITEM SPECIFIC Version B",OLD,MONEY,BANKER,ON2,B,132,134,Test,User,-,,Recall,Recall1,51738,banker,100,48574,50359,1,1,,,1
W979583_jmw,q8go9c0vzl,Emily_Honors_Thesis_Part_2,1,131,2020-08-29T14:22:07-07:00,27.430330038071,6,versionA_stim.csv,IS_JOLVersionB.csv,"ITEM SPECIFIC Version B",OLD,SCALP,HEAD,ON2,F,105,170,Test,User,-,,Recall,Recall1,27233,head,100,25301,26196,1,1,,,1
W979583_jmw,q8go9c0vzl,Emily_Honors_Thesis_Part_2,1,132,2020-08-29T14:22:24-07:00,17.033196926117,6,versionA_stim.csv,IS_JOLVersionB.csv,"ITEM SPECIFIC Version B",OLD,STAR,ACTRESS,ON2,B,120,119,Test,User,-,,Recall,Recall1,16831,actress,100,14362,15894,1,1,,,1
W979583_jmw,q8go9c0vzl,Emily_Honors_Thesis_Part_2,1,133,2020-08-29T14:22:53-07:00,28.935955047607,6,versionA_stim.csv,IS_JOLVersionB.csv,"ITEM SPECIFIC Version B",OLD,AFFECTION,LOVE,ON2,F,115,128,Test,User,-,,Recall,Recall1,3395,love,100,1059,2255,1,1,,,0.941
W979583_jmw,q8go9c0vzl,Emily_Honors_Thesis_Part_2,1,134,2020-08-29T14:23:13-07:00,20.835881948471,6,versionA_stim.csv,IS_JOLVersionB.csv,"ITEM SPECIFIC Version B",OLD,BOTH,OUNCE,ON2,U,172,172,Test,User,-,,Recall,Recall1,20609,,0,-1,-1,0,0,,,1
W979583_jmw,q8go9c0vzl,Emily_Honors_Thesis_Part_2,1,135,2020-08-29T14:23:49-07:00,35.409600019455,6,versionA_stim.csv,IS_JOLVersionB.csv,"ITEM SPECIFIC Version B",OLD,CHOP,CUT,ON2,F,107,115,Test,User,-,,Recall,Recall1,35170,cut,100,32767,33443,1,1,,,1
W979583_jmw,q8go9c0vzl,Emily_Honors_Thesis_Part_2,1,136,2020-08-29T14:24:01-07:00,11.925948858261,6,versionA_stim.csv,IS_JOLVersionB.csv,"ITEM SPECIFIC Version B",OLD,RAZOR,SHAVE,ON2,S,136,125,Test,User,-,,Recall,Recall1,11684,shave,100,8760,10279,1,1,,,1
W979583_jmw,q8go9c0vzl,Emily_Honors_Thesis_Part_2,1,137,2020-08-29T14:24:47-07:00,46.051660060883,6,versionA_stim.csv,IS_JOLVersionB.csv,"ITEM SPECIFIC Version B",OLD,SLEEP,NAP,ON2,B,134,176,Test,User,-,,Recall,Recall1,45855,nap,100,43540,44562,1,1,,,1
W979583_jmw,q8go9c0vzl,Emily_Honors_Thesis_Part_2,1,138,2020-08-29T14:25:15-07:00,27.865563154221,6,versionA_stim.csv,IS_JOLVersionB.csv,"ITEM SPECIFIC Version B",OLD,KEYS,JOKE,ON2,U,165,142,Test,User,-,,Recall,Recall1,27659,joke,100,25492,26482,1,1,,,1
W979583_jmw,q8go9c0vzl,Emily_Honors_Thesis_Part_2,1,139,2020-08-29T14:25:43-07:00,28.015740871429,6,versionA_stim.csv,IS_JOLVersionB.csv,"ITEM SPECIFIC Version B",OLD,PLANE,AIRCRAFT,ON2,B,129,126,Test,User,-,,Recall,Recall1,5627,aircraft,100,2046,4533,1,1,,,0.964
W979583_jmw,q8go9c0vzl,Emily_Honors_Thesis_Part_2,1,140,2020-08-29T14:25:56-07:00,13.227035045624,6,versionA_stim.csv,IS_JOLVersionB.csv,"ITEM SPECIFIC Version B",OLD,TEMPERATURE,MORNING,ON2,U,173,154,Test,User,-,,Recall,Recall1,13030,morning,100,9965,11821,1,1,,,1
W979583_jmw,q8go9c0vzl,Emily_Honors_Thesis_Part_2,1,141,2020-08-29T14:26:03-07:00,6.6044189929962,6,versionA_stim.csv,IS_JOLVersionB.csv,"ITEM SPECIFIC Version B",OLD,TANTRUM,TEMPER,ON2,S,154,140,Test,User,-,,Recall,Recall1,6402,temper,100,3369,5273,1,1,,,1
W979583_jmw,q8go9c0vzl,Emily_Honors_Thesis_Part_2,1,142,2020-08-29T14:27:25-07:00,82.637544870377,6,versionA_stim.csv,IS_JOLVersionB.csv,"ITEM SPECIFIC Version B",OLD,LITTER,TRASH,ON2,F,103,135,Test,User,-,,Recall,Recall1,82432,trash,100,80113,81296,1,1,,,1
W979583_jmw,q8go9c0vzl,Emily_Honors_Thesis_Part_2,1,143,2020-08-29T14:27:34-07:00,9.290708065033,6,versionA_stim.csv,IS_JOLVersionB.csv,"ITEM SPECIFIC Version B",OLD,HONEST,TRUTHFUL,ON2,B,133,113,Test,User,-,,Recall,Recall1,9094,truthful,100,5809,8076,1,1,,,1
W979583_jmw,q8go9c0vzl,Emily_Honors_Thesis_Part_2,1,144,2020-08-29T14:27:50-07:00,15.913068056107,6,versionA_stim.csv,IS_JOLVersionB.csv,"ITEM SPECIFIC Version B",OLD,DEAD,COFFIN,ON2,B,128,136,Test,User,-,,Recall,Recall1,15715,coffin,100,13040,14883,1,1,,,1
W979583_jmw,q8go9c0vzl,Emily_Honors_Thesis_Part_2,1,145,2020-08-29T14:28:05-07:00,14.884043931961,6,versionA_stim.csv,IS_JOLVersionB.csv,"ITEM SPECIFIC Version B",OLD,MAIN,SCAR,ON2,U,175,111,Test,User,-,,Recall,Recall1,14683,scar,100,12651,13645,1,1,,,1
W979583_jmw,q8go9c0vzl,Emily_Honors_Thesis_Part_2,1,146,2020-08-29T14:28:36-07:00,30.302227973938,6,versionA_stim.csv,IS_JOLVersionB.csv,"ITEM SPECIFIC Version B",OLD,CAT,PANTHER,ON2,B,126,155,Test,User,-,,Recall,Recall1,30101,panther,100,27047,29152,1,1,,,1
W979583_jmw,q8go9c0vzl,Emily_Honors_Thesis_Part_2,1,147,2020-08-29T14:29:00-07:00,24.632395982742,6,versionA_stim.csv,IS_JOLVersionB.csv,"ITEM SPECIFIC Version B",OLD,BIRD,PENGUIN,ON2,B,119,157,Test,User,-,,Recall,Recall1,24428,,0,20294,20738,0,0,,,1
W979583_jmw,q8go9c0vzl,Emily_Honors_Thesis_Part_2,1,148,2020-08-29T14:29:19-07:00,19.095028162003,6,versionA_stim.csv,IS_JOLVersionB.csv,"ITEM SPECIFIC Version B",OLD,FRUIT,STRAWBERRY,ON2,B,124,171,Test,User,-,,Recall,Recall1,18876,"strawberry ",100,13215,17953,1,1,,,1
W979583_jmw,q8go9c0vzl,Emily_Honors_Thesis_Part_2,1,149,2020-08-29T14:30:29-07:00,69.812343835831,6,versionA_stim.csv,IS_JOLVersionB.csv,"ITEM SPECIFIC Version B",OLD,SHELL,SHAKE,ON2,U,163,168,Test,User,-,,Recall,Recall1,69611,shake,100,66773,68627,1,1,,,1
W979583_jmw,q8go9c0vzl,Emily_Honors_Thesis_Part_2,1,150,2020-08-29T14:31:00-07:00,30.412155151367,6,versionA_stim.csv,IS_JOLVersionB.csv,"ITEM SPECIFIC Version B",OLD,DRIVER,CAR,ON2,F,106,105,Test,User,-,,Recall,Recall1,30211,car,100,28777,29430,1,1,,,1
W979583_jmw,q8go9c0vzl,Emily_Honors_Thesis_Part_2,1,151,2020-08-29T14:31:26-07:00,26.508883953094,6,versionA_stim.csv,IS_JOLVersionB.csv,"ITEM SPECIFIC Version B",OLD,MEAT,OBTAIN,ON2,U,161,144,Test,User,-,,Recall,Recall1,26310,obtain,100,18922,24883,1,1,,,1
W979583_jmw,q8go9c0vzl,Emily_Honors_Thesis_Part_2,1,152,2020-08-29T14:32:02-07:00,36.065804958344,6,versionA_stim.csv,IS_JOLVersionB.csv,"ITEM SPECIFIC Version B",OLD,GLASS,BREAKABLE,ON2,B,127,164,Test,User,-,,Recall,Recall1,35862,breakable,100,31606,34847,1,1,,,1
W979583_jmw,q8go9c0vzl,Emily_Honors_Thesis_Part_2,1,153,2020-08-29T14:32:13-07:00,10.658105134964,6,versionA_stim.csv,IS_JOLVersionB.csv,"ITEM SPECIFIC Version B",OLD,SHEARS,SCISSORS,ON2,F,112,122,Test,User,-,,Recall,Recall1,10463,scissors,100,5044,9155,1,1,,,1
W979583_jmw,q8go9c0vzl,Emily_Honors_Thesis_Part_2,1,154,2020-08-29T14:32:43-07:00,30.135015964508,6,versionA_stim.csv,IS_JOLVersionB.csv,"ITEM SPECIFIC Version B",OLD,JUSTICE,MAROON,ON2,U,156,133,Test,User,-,,Recall,Recall1,3629,maroon,100,1430,3162,1,1,,,0.944
W979583_jmw,q8go9c0vzl,Emily_Honors_Thesis_Part_2,1,155,2020-08-29T14:33:09-07:00,26.600564002991,6,versionA_stim.csv,IS_JOLVersionB.csv,"ITEM SPECIFIC Version B",OLD,CACTUS,PLANT,ON2,F,98,156,Test,User,-,,Recall,Recall1,26401,plant,100,23974,25309,1,1,,,1
W979583_jmw,q8go9c0vzl,Emily_Honors_Thesis_Part_2,1,156,2020-08-29T14:33:29-07:00,19.433389902115,6,versionA_stim.csv,IS_JOLVersionB.csv,"ITEM SPECIFIC Version B",OLD,DOCUMENT,PAPER,ON2,F,109,174,Test,User,-,,Recall,Recall1,19235,paper,100,16968,18586,1,1,,,1
W979583_jmw,q8go9c0vzl,Emily_Honors_Thesis_Part_2,1,157,2020-08-29T14:33:50-07:00,21.339193105698,6,versionA_stim.csv,IS_JOLVersionB.csv,"ITEM SPECIFIC Version B",OLD,NAME,HATE,ON2,U,167,175,Test,User,-,,Recall,Recall1,3010,hate,100,1215,2266,1,1,,,0.933
W979583_jmw,q8go9c0vzl,Emily_Honors_Thesis_Part_2,1,158,2020-08-29T14:34:34-07:00,44.041786909103,6,versionA_stim.csv,IS_JOLVersionB.csv,"ITEM SPECIFIC Version B",OLD,POP,BALLOON,ON2,B,123,99,Test,User,-,,Recall,Recall1,43844,balloon,100,38630,43062,1,1,,,1
W979583_jmw,q8go9c0vzl,Emily_Honors_Thesis_Part_2,1,159,2020-08-29T14:34:53-07:00,18.486819982529,6,versionA_stim.csv,IS_JOLVersionB.csv,"ITEM SPECIFIC Version B",OLD,ALONE,LONELY,ON2,S,145,98,Test,User,-,,Recall,Recall1,18290,lonely,100,15759,17549,1,1,,,1
W979583_jmw,q8go9c0vzl,Emily_Honors_Thesis_Part_2,1,160,2020-08-29T14:35:30-07:00,36.790967941284,6,versionA_stim.csv,IS_JOLVersionB.csv,"ITEM SPECIFIC Version B",OLD,TRUTH,LIE,ON2,S,148,169,Test,User,-,,Recall,Recall1,36592,lie,100,35171,35744,1,1,,,1
W979583_jmw,q8go9c0vzl,Emily_Honors_Thesis_Part_2,1,161,2020-08-29T14:35:48-07:00,18.423655033112,6,versionA_stim.csv,IS_JOLVersionB.csv,"ITEM SPECIFIC Version B",OLD,ELEMENT,CARBON,ON2,S,141,104,Test,User,-,,Recall,Recall1,3727,carbon,100,1156,3245,1,1,,,0.947
W979583_jmw,q8go9c0vzl,Emily_Honors_Thesis_Part_2,1,162,2020-08-29T14:35:58-07:00,10.448008060455,6,versionA_stim.csv,IS_JOLVersionB.csv,"ITEM SPECIFIC Version B",OLD,OWN,HAVE,ON2,S,153,153,Test,User,-,,Recall,Recall1,10254,have,100,8696,9730,1,1,,,1
W979583_jmw,q8go9c0vzl,Emily_Honors_Thesis_Part_2,1,163,2020-08-29T14:36:09-07:00,10.830425024033,6,versionA_stim.csv,IS_JOLVersionB.csv,"ITEM SPECIFIC Version B",OLD,CHERRY,RED,ON2,F,104,97,Test,User,-,,Recall,Recall1,10630,red,100,9078,9944,1,1,,,1
W979583_jmw,q8go9c0vzl,Emily_Honors_Thesis_Part_2,1,164,2020-08-29T14:36:33-07:00,24.060967922211,6,versionA_stim.csv,IS_JOLVersionB.csv,"ITEM SPECIFIC Version B",OLD,DINE,EAT,ON2,F,111,132,Test,User,-,,Recall,Recall1,23862,eat,100,22497,23188,1,1,,,1
W979583_jmw,q8go9c0vzl,Emily_Honors_Thesis_Part_2,1,165,2020-08-29T14:36:59-07:00,26.014966011047,6,versionA_stim.csv,IS_JOLVersionB.csv,"ITEM SPECIFIC Version B",OLD,SAFETY,SEATBELT,ON2,S,147,103,Test,User,-,,Recall,Recall1,25813,seatbelt,100,20621,25251,1,1,,,1
W979583_jmw,q8go9c0vzl,Emily_Honors_Thesis_Part_2,1,166,2020-08-29T14:37:25-07:00,25.367774009705,6,versionA_stim.csv,IS_JOLVersionB.csv,"ITEM SPECIFIC Version B",OLD,CRACKLE,ABLE,ON2,U,162,123,Test,User,-,,Recall,Recall1,2729,able,100,968,2175,1,1,,,0.929
W979583_jmw,q8go9c0vzl,Emily_Honors_Thesis_Part_2,1,167,2020-08-29T14:37:57-07:00,32.110199928284,6,versionA_stim.csv,IS_JOLVersionB.csv,"ITEM SPECIFIC Version B",OLD,DETECTIVE,MYSTERY,ON2,F,100,141,Test,User,-,,Recall,Recall1,28283,mystery,100,25991,27825,1,1,,,1
W979583_jmw,q8go9c0vzl,Emily_Honors_Thesis_Part_2,1,168,2020-08-29T14:38:07-07:00,10.383390188217,6,versionA_stim.csv,IS_JOLVersionB.csv,"ITEM SPECIFIC Version B",OLD,FEUD,FIGHT,ON2,F,113,131,Test,User,-,,Recall,Recall1,10181,fight,100,8653,9711,1,1,,,1
W979583_jmw,q8go9c0vzl,Emily_Honors_Thesis_Part_2,1,169,2020-08-29T14:38:21-07:00,14.085822820663,6,versionA_stim.csv,IS_JOLVersionB.csv,"ITEM SPECIFIC Version B",OLD,CAKE,CLOTHES,ON2,U,166,107,Test,User,-,,Recall,Recall1,3177,clothes,100,899,2596,1,1,,,0.938
W979583_jmw,q8go9c0vzl,Emily_Honors_Thesis_Part_2,1,170,2020-08-29T14:38:42-07:00,20.291050195694,6,versionA_stim.csv,IS_JOLVersionB.csv,"ITEM SPECIFIC Version B",OLD,FURRY,DOG,ON2,F,102,149,Test,User,-,,Recall,Recall1,20086,dog,100,18355,19240,1,1,,,1
W979583_jmw,q8go9c0vzl,Emily_Honors_Thesis_Part_2,1,171,2020-08-29T14:39:08-07:00,26.571827888489,6,versionA_stim.csv,IS_JOLVersionB.csv,"ITEM SPECIFIC Version B",OLD,SHOELACE,TIE,ON2,F,99,146,Test,User,-,,Recall,Recall1,26375,tie,100,24836,25631,1,1,,,1
W979583_jmw,q8go9c0vzl,Emily_Honors_Thesis_Part_2,1,172,2020-08-29T14:39:27-07:00,18.601329088211,6,versionA_stim.csv,IS_JOLVersionB.csv,"ITEM SPECIFIC Version B",OLD,INCENSE,SMELL,ON2,F,110,124,Test,User,-,,Recall,Recall1,3101,smell,100,1019,2693,1,1,,,0.938
W979583_jmw,q8go9c0vzl,Emily_Honors_Thesis_Part_2,1,173,2020-08-29T14:39:54-07:00,26.921115875244,6,versionA_stim.csv,IS_JOLVersionB.csv,"ITEM SPECIFIC Version B",OLD,BASEBALL,LEAGUE,ON2,B,131,101,Test,User,-,,Recall,Recall1,23610,league,100,20136,21947,1,1,,,1
W979583_jmw,q8go9c0vzl,Emily_Honors_Thesis_Part_2,1,174,2020-08-29T14:40:06-07:00,12.373001098633,6,versionA_stim.csv,IS_JOLVersionB.csv,"ITEM SPECIFIC Version B",OLD,FISH,SARDINE,ON2,B,130,112,Test,User,-,,Recall,Recall1,12174,sardine,100,9218,11365,1,1,,,1
W979583_jmw,q8go9c0vzl,Emily_Honors_Thesis_Part_2,1,175,2020-08-29T14:40:15-07:00,8.5862560272217,6,versionA_stim.csv,IS_JOLVersionB.csv,"ITEM SPECIFIC Version B",OLD,MOAT,CLEAR,ON2,U,169,114,Test,User,-,,Recall,Recall1,8386,clear,100,5916,7652,1,1,,,1
W979583_jmw,q8go9c0vzl,Emily_Honors_Thesis_Part_2,1,176,2020-08-29T14:40:33-07:00,17.869879007339,6,versionA_stim.csv,IS_JOLVersionB.csv,"ITEM SPECIFIC Version B",OLD,CAR,WINDSHIELD,ON2,B,117,116,Test,User,-,,Recall,Recall1,17673,windshield,100,12688,16669,1,1,,,1
W979583_jmw,q8go9c0vzl,Emily_Honors_Thesis_Part_2,1,177,2020-08-29T14:40:49-07:00,16.007280826569,6,versionA_stim.csv,IS_JOLVersionB.csv,"ITEM SPECIFIC Version B",OLD,LOUD,NOISE,ON2,S,152,173,Test,User,-,,Recall,Recall1,4572,noise,100,894,2247,1,1,,,0.957
W979583_jmw,q8go9c0vzl,Emily_Honors_Thesis_Part_2,1,178,2020-08-29T14:41:04-07:00,15.119468212128,6,versionA_stim.csv,IS_JOLVersionB.csv,"ITEM SPECIFIC Version B",OLD,THREAD,THIMBLE,ON2,B,121,109,Test,User,-,,Recall,Recall1,14923,thimble,100,10377,14035,1,1,,,1
W979583_jmw,q8go9c0vzl,Emily_Honors_Thesis_Part_2,1,179,2020-08-29T14:41:14-07:00,9.8433718681335,6,versionA_stim.csv,IS_JOLVersionB.csv,"ITEM SPECIFIC Version B",OLD,MULE,DONKEY,ON2,F,108,145,Test,User,-,,Recall,Recall1,9646,donkey,100,6927,8797,1,1,,,1
W979583_jmw,q8go9c0vzl,Emily_Honors_Thesis_Part_2,1,180,2020-08-29T14:41:40-07:00,26.569921016693,6,versionA_stim.csv,IS_JOLVersionB.csv,"ITEM SPECIFIC Version B",OLD,SUN,TAN,ON2,S,155,158,Test,User,-,,Recall,Recall1,26371,tan,100,24863,25639,1,1,,,1
W979583_jmw,q8go9c0vzl,Emily_Honors_Thesis_Part_2,1,181,2020-08-29T14:41:47-07:00,7.2952380180359,6,versionA_stim.csv,IS_JOLVersionB.csv,"ITEM SPECIFIC Version B",OLD,DRY,WET,ON2,S,146,121,Test,User,-,,Recall,Recall1,7098,wet,100,6090,6553,1,1,,,1
W979583_jmw,q8go9c0vzl,Emily_Honors_Thesis_Part_2,1,182,2020-08-29T14:42:02-07:00,14.598406076431,6,versionA_stim.csv,IS_JOLVersionB.csv,"ITEM SPECIFIC Version B",OLD,FIGHT,BRAWL,ON2,B,135,161,Test,User,-,,Recall,Recall1,4284,brawl,100,715,2803,1,1,,,0.955
W979583_jmw,q8go9c0vzl,Emily_Honors_Thesis_Part_2,1,183,2020-08-29T14:42:10-07:00,8.0251948833466,6,versionA_stim.csv,IS_JOLVersionB.csv,"ITEM SPECIFIC Version B",OLD,LOAN,SIGN,ON2,U,171,130,Test,User,-,,Recall,Recall1,7823,sign,100,5965,7108,1,1,,,1
W979583_jmw,q8go9c0vzl,Emily_Honors_Thesis_Part_2,1,184,2020-08-29T14:42:20-07:00,9.572781085968,6,versionA_stim.csv,IS_JOLVersionB.csv,"ITEM SPECIFIC Version B",OLD,CHILL,COLD,ON2,F,114,139,Test,User,-,,Recall,Recall1,9371,cold,100,7650,8832,1,1,,,1
W979583_jmw,q8go9c0vzl,Emily_Honors_Thesis_Part_2,1,185,2020-08-29T14:42:33-07:00,13.762951850891,6,versionA_stim.csv,IS_JOLVersionB.csv,"ITEM SPECIFIC Version B",OLD,LEASE,TOIL,ON2,U,170,106,Test,User,-,,Recall,Recall1,13559,toil,100,12213,13109,1,1,,,1
W979583_jmw,q8go9c0vzl,Emily_Honors_Thesis_Part_2,1,186,2020-08-29T14:42:51-07:00,17.934821128845,6,versionA_stim.csv,IS_JOLVersionB.csv,"ITEM SPECIFIC Version B",OLD,MAZE,ELECTION,ON2,U,159,102,Test,User,-,,Recall,Recall1,6472,election,100,924,3375,1,1,,,0.97
W979583_jmw,q8go9c0vzl,Emily_Honors_Thesis_Part_2,1,187,2020-08-29T14:42:59-07:00,7.5120179653168,6,versionA_stim.csv,IS_JOLVersionB.csv,"ITEM SPECIFIC Version B",OLD,TURN,FLIP,ON2,B,116,150,Test,User,-,,Recall,Recall1,7309,flip,100,5775,6920,1,1,,,1
W979583_jmw,q8go9c0vzl,Emily_Honors_Thesis_Part_2,1,188,2020-08-29T14:43:09-07:00,10.260751008987,6,versionA_stim.csv,IS_JOLVersionB.csv,"ITEM SPECIFIC Version B",OLD,EARTH,GROUND,ON2,S,144,110,Test,User,-,,Recall,Recall1,10062,ground,100,7733,9450,1,1,,,1
W979583_jmw,q8go9c0vzl,Emily_Honors_Thesis_Part_2,1,189,2020-08-29T14:44:03-07:00,54.090782880783,6,versionA_stim.csv,IS_JOLVersionB.csv,"ITEM SPECIFIC Version B",OLD,WRIST,BRACELET,ON2,S,140,138,Test,User,-,,Recall,Recall1,53889,bracelet,100,46421,51057,1,1,,,1
W979583_jmw,q8go9c0vzl,Emily_Honors_Thesis_Part_2,1,190,2020-08-29T14:44:26-07:00,22.746849060059,6,versionA_stim.csv,IS_JOLVersionB.csv,"ITEM SPECIFIC Version B",OLD,FUZZY,BANG,ON2,U,168,165,Test,User,-,,Recall,Recall1,22546,bang,100,20498,21665,1,1,,,1
W979583_jmw,q8go9c0vzl,Emily_Honors_Thesis_Part_2,1,191,2020-08-29T14:44:47-07:00,21.630031108856,6,versionA_stim.csv,IS_JOLVersionB.csv,"ITEM SPECIFIC Version B",OLD,BAD,VILLAIN,ON2,B,118,147,Test,User,-,,Recall,Recall1,10301,villain,100,1034,9317,1,1,,,0.981
W979583_jmw,q8go9c0vzl,Emily_Honors_Thesis_Part_2,1,192,2020-08-29T14:45:04-07:00,16.687285900116,6,versionA_stim.csv,IS_JOLVersionB.csv,"ITEM SPECIFIC Version B",OLD,EXTENSION,LONG,ON2,F,96,166,Test,User,-,,Recall,Recall1,16491,long,100,14068,15908,1,1,,,1
W979583_jmw,q8go9c0vzl,Emily_Honors_Thesis_Part_2,1,193,2020-08-29T14:45:08-07:00,4.2281091213226,6,versionA_stim.csv,IS_JOLVersionB.csv,"ITEM SPECIFIC Version B",OLD,MASON,JAR,ON2,S,138,137,Test,User,-,,Recall,Recall1,4031,jar,100,2540,3282,1,1,,,1
W979583_jmw,q8go9c0vzl,Emily_Honors_Thesis_Part_2,1,194,2020-08-29T14:45:28-07:00,20.077149868011,6,versionA_stim.csv,IS_JOLVersionB.csv,"ITEM SPECIFIC Version B",OLD,CLUE,GAME,ON2,F,97,120,Test,User,-,,Recall,Recall1,2734,game,100,964,2126,1,1,,,0.929
W979583_jmw,q8go9c0vzl,Emily_Honors_Thesis_Part_2,1,195,2020-08-29T14:45:52-07:00,23.072289943695,6,versionA_stim.csv,IS_JOLVersionB.csv,"ITEM SPECIFIC Version B",OLD,,,,,,0,Instruct,-,10,"You will now be presented with a new set of word pairs. Please study each pair. Remember that your memory will be tested! When finished, press Enter to move to the next pair.",Initial_Instruct,Instruct4,22876,,,-1,-1,,,,,1
W979583_jmw,q8go9c0vzl,Emily_Honors_Thesis_Part_2,1,196,2020-08-29T14:46:46-07:00,54.106348991394,6,versionA_stim.csv,IS_JOLVersionB.csv,"ITEM SPECIFIC Version B",OLD,,,,,,0,Instruct,,10,"You will again be asked to rate your ability to remember these items using a 0 to 100 scale. Remember to use the full range of the scale!",,Instruct10,53902,,,-1,-1,,,,,1
W979583_jmw,q8go9c0vzl,Emily_Honors_Thesis_Part_2,1,197,2020-08-29T14:47:06-07:00,20.803833007812,6,versionA_stim.csv,IS_JOLVersionB.csv,"ITEM SPECIFIC Version B",OLD,,,,,,0,Instruct,-,15,"As you study and make your ratings, please think about the unique featues of each item and how the two concepts are DIFFERENT from each other. For example, if you see the pair TURTLE-CAT, think about how TURTLES have shells and are reptiles, while CATS are mammals and have fur.",,Instruct20,20606,,,-1,-1,,,,,1
W979583_jmw,q8go9c0vzl,Emily_Honors_Thesis_Part_2,1,198,2020-08-29T14:47:32-07:00,25.442838191986,6,versionA_stim.csv,IS_JOLVersionB.csv,"ITEM SPECIFIC Version B",OLD,,,,,,0,FreeRecall,-,10,"What you should think about as you study each item pair? Type your response in the box below.",,CHECK4,10777,"differences ",0,1166,4316,0,0,,,0.981
W979583_jmw,q8go9c0vzl,Emily_Honors_Thesis_Part_2,1,199,2020-08-29T14:47:38-07:00,6.0315849781036,6,versionA_stim.csv,IS_JOLVersionB.csv,"ITEM SPECIFIC Version B",OLD,,,,,,0,Instruct,User,-,"Press Enter when you are readty to begin",,Instruct11,1392,,,-1,-1,,,,,0.857
W979583_jmw,q8go9c0vzl,Emily_Honors_Thesis_Part_2,1,200,2020-08-29T14:53:50-07:00,371.90312981606,6,versionA_stim.csv,IS_JOLVersionB.csv,"ITEM SPECIFIC Version B",OLD,SPACE,JAM,Buffer,Buffer,5,3,JOL,User,-,"How likely are you to correctly recall the second item in the pair?|Type your response on a scale from 0-100 and then press Enter.",Study/JOL,BUFFER3,370754,,,368544,369466,,,,10,0.993
W979583_jmw,q8go9c0vzl,Emily_Honors_Thesis_Part_2,1,201,2020-08-29T14:53:55-07:00,5.0574731826782,6,versionA_stim.csv,IS_JOLVersionB.csv,"ITEM SPECIFIC Version B",OLD,SCARE,HIDE,Buffer,Buffer,4,2,JOL,User,-,"How likely are you to correctly recall the second item in the pair?|Type your response on a scale from 0-100 and then press Enter.",Study/JOL,BUFFER3,4729,,,3019,3470,,,,20,1
W979583_jmw,q8go9c0vzl,Emily_Honors_Thesis_Part_2,1,202,2020-08-29T14:54:04-07:00,8.7930648326874,6,versionA_stim.csv,IS_JOLVersionB.csv,"ITEM SPECIFIC Version B",OLD,TREES,GREEN,Buffer,Buffer,1,6,JOL,User,-,"How likely are you to correctly recall the second item in the pair?|Type your response on a scale from 0-100 and then press Enter.",Study/JOL,BUFFER3,8366,,,2201,2850,,,,30,1
W979583_jmw,q8go9c0vzl,Emily_Honors_Thesis_Part_2,1,203,2020-08-29T14:54:12-07:00,8.3821661472321,6,versionA_stim.csv,IS_JOLVersionB.csv,"ITEM SPECIFIC Version B",OLD,PEANUT,BUTTER,Buffer,Buffer,3,4,JOL,User,-,"How likely are you to correctly recall the second item in the pair?|Type your response on a scale from 0-100 and then press Enter.",Study/JOL,BUFFER3,2376,,,1577,2008,,,,40,0.917
W979583_jmw,q8go9c0vzl,Emily_Honors_Thesis_Part_2,1,204,2020-08-29T14:54:17-07:00,4.6413459777832,6,versionA_stim.csv,IS_JOLVersionB.csv,"ITEM SPECIFIC Version B",OLD,BASEBALL,CATCHER,Buffer,Buffer,2,5,JOL,User,-,"How likely are you to correctly recall the second item in the pair?|Type your response on a scale from 0-100 and then press Enter.",Study/JOL,BUFFER3,4435,,,1430,1911,,,,50,1
W979583_jmw,q8go9c0vzl,Emily_Honors_Thesis_Part_2,1,205,2020-08-29T14:54:51-07:00,34.595202922821,6,versionA_stim.csv,IS_JOLVersionB.csv,"ITEM SPECIFIC Version B",OLD,CLOTHES,ATTIRE,ON,B,43,45,JOL,User,-,"How likely are you to correctly recall the second item in the pair?|Type your response on a scale from 0-100 and then press Enter.",Study/JOL,"Study Phase2",1742,,,853,1331,,,,60,0.889
W979583_jmw,q8go9c0vzl,Emily_Honors_Thesis_Part_2,1,206,2020-08-29T14:54:57-07:00,5.8932750225067,6,versionA_stim.csv,IS_JOLVersionB.csv,"ITEM SPECIFIC Version B",OLD,CIRCLE,ROUND,ON,S,65,18,JOL,User,-,"How likely are you to correctly recall the second item in the pair?|Type your response on a scale from 0-100 and then press Enter.",Study/JOL,"Study Phase2",5694,,,3877,4450,,,,50,1
W979583_jmw,q8go9c0vzl,Emily_Honors_Thesis_Part_2,1,207,2020-08-29T14:55:01-07:00,3.5331411361694,6,versionA_stim.csv,IS_JOLVersionB.csv,"ITEM SPECIFIC Version B",OLD,LIFT,WOMAN,ON,U,69,84,JOL,User,-,"How likely are you to correctly recall the second item in the pair?|Type your response on a scale from 0-100 and then press Enter.",Study/JOL,"Study Phase2",3332,,,1266,1757,,,,70,1
W979583_jmw,q8go9c0vzl,Emily_Honors_Thesis_Part_2,1,208,2020-08-29T14:55:05-07:00,4.1805739402771,6,versionA_stim.csv,IS_JOLVersionB.csv,"ITEM SPECIFIC Version B",OLD,DELINQUENT,BAD,ON,F,6,82,JOL,User,-,"How likely are you to correctly recall the second item in the pair?|Type your response on a scale from 0-100 and then press Enter.",Study/JOL,"Study Phase2",3978,,,1720,2264,,,,50,1
W979583_jmw,q8go9c0vzl,Emily_Honors_Thesis_Part_2,1,209,2020-08-29T14:55:18-07:00,12.807229995728,6,versionA_stim.csv,IS_JOLVersionB.csv,"ITEM SPECIFIC Version B",OLD,GREAT,FANTASTIC,ON,B,35,53,JOL,User,-,"How likely are you to correctly recall the second item in the pair?|Type your response on a scale from 0-100 and then press Enter.",Study/JOL,"Study Phase2",2328,,,1120,1859,,,,40,0.917
W979583_jmw,q8go9c0vzl,Emily_Honors_Thesis_Part_2,1,210,2020-08-29T14:55:21-07:00,3.4559779167175,6,versionA_stim.csv,IS_JOLVersionB.csv,"ITEM SPECIFIC Version B",OLD,TRIAL,JURY,ON,S,50,12,JOL,User,-,"How likely are you to correctly recall the second item in the pair?|Type your response on a scale from 0-100 and then press Enter.",Study/JOL,"Study Phase2",3251,,,2335,2825,,,,40,1
W979583_jmw,q8go9c0vzl,Emily_Honors_Thesis_Part_2,1,211,2020-08-29T14:55:29-07:00,7.4080691337585,6,versionA_stim.csv,IS_JOLVersionB.csv,"ITEM SPECIFIC Version B",OLD,HONEY,BEE,ON,S,63,9,JOL,User,-,"How likely are you to correctly recall the second item in the pair?|Type your response on a scale from 0-100 and then press Enter.",Study/JOL,"Study Phase2",1446,,,683,937,,,,80,0.875
W979583_jmw,q8go9c0vzl,Emily_Honors_Thesis_Part_2,1,212,2020-08-29T14:55:34-07:00,5.7569448947906,6,versionA_stim.csv,IS_JOLVersionB.csv,"ITEM SPECIFIC Version B",OLD,TAKE,SEIZE,ON,B,29,24,JOL,User,-,"How likely are you to correctly recall the second item in the pair?|Type your response on a scale from 0-100 and then press Enter.",Study/JOL,"Study Phase2",5543,,,2762,3189,,,,70,1
W979583_jmw,q8go9c0vzl,Emily_Honors_Thesis_Part_2,1,213,2020-08-29T14:55:44-07:00,9.5140709877014,6,versionA_stim.csv,IS_JOLVersionB.csv,"ITEM SPECIFIC Version B",OLD,DARK,CAVE,ON,B,28,21,JOL,User,-,"How likely are you to correctly recall the second item in the pair?|Type your response on a scale from 0-100 and then press Enter.",Study/JOL,"Study Phase2",1738,,,998,1402,,,,60,0.889
W979583_jmw,q8go9c0vzl,Emily_Honors_Thesis_Part_2,1,214,2020-08-29T14:55:47-07:00,2.9777851104736,6,versionA_stim.csv,IS_JOLVersionB.csv,"ITEM SPECIFIC Version B",OLD,DISCUSSION,TALK,ON,F,21,47,JOL,User,-,"How likely are you to correctly recall the second item in the pair?|Type your response on a scale from 0-100 and then press Enter.",Study/JOL,"Study Phase2",2736,,,1814,2258,,,,40,1
W979583_jmw,q8go9c0vzl,Emily_Honors_Thesis_Part_2,1,215,2020-08-29T14:55:58-07:00,11.274092912674,6,versionA_stim.csv,IS_JOLVersionB.csv,"ITEM SPECIFIC Version B",OLD,HOT,CHILI,ON,B,37,72,JOL,User,-,"How likely are you to correctly recall the second item in the pair?|Type your response on a scale from 0-100 and then press Enter.",Study/JOL,"Study Phase2",1701,,,742,1286,,,,80,0.889
W979583_jmw,q8go9c0vzl,Emily_Honors_Thesis_Part_2,1,216,2020-08-29T14:56:01-07:00,2.8948059082031,6,versionA_stim.csv,IS_JOLVersionB.csv,"ITEM SPECIFIC Version B",OLD,SLEEP,DROWSY,ON,B,41,38,JOL,User,-,"How likely are you to correctly recall the second item in the pair?|Type your response on a scale from 0-100 and then press Enter.",Study/JOL,"Study Phase2",2695,,,1782,2119,,,,80,1
W979583_jmw,q8go9c0vzl,Emily_Honors_Thesis_Part_2,1,217,2020-08-29T14:56:12-07:00,10.908197164536,6,versionA_stim.csv,IS_JOLVersionB.csv,"ITEM SPECIFIC Version B",OLD,BUG,WASP,ON,B,32,64,JOL,User,-,"How likely are you to correctly recall the second item in the pair?|Type your response on a scale from 0-100 and then press Enter.",Study/JOL,"Study Phase2",5409,,,4234,4708,,,,70,0.963
W979583_jmw,q8go9c0vzl,Emily_Honors_Thesis_Part_2,1,218,2020-08-29T14:56:15-07:00,3.1691000461578,6,versionA_stim.csv,IS_JOLVersionB.csv,"ITEM SPECIFIC Version B",OLD,BRIDGE,WATER,ON,F,18,40,JOL,User,-,"How likely are you to correctly recall the second item in the pair?|Type your response on a scale from 0-100 and then press Enter.",Study/JOL,"Study Phase2",2970,,,1072,1435,,,,70,1
W979583_jmw,q8go9c0vzl,Emily_Honors_Thesis_Part_2,1,219,2020-08-29T14:56:18-07:00,3.0567419528961,6,versionA_stim.csv,IS_JOLVersionB.csv,"ITEM SPECIFIC Version B",OLD,WORK,CHORE,ON,B,39,22,JOL,User,-,"How likely are you to correctly recall the second item in the pair?|Type your response on a scale from 0-100 and then press Enter.",Study/JOL,"Study Phase2",2855,,,1212,1640,,,,60,1
W979583_jmw,q8go9c0vzl,Emily_Honors_Thesis_Part_2,1,220,2020-08-29T14:56:37-07:00,18.587402820587,6,versionA_stim.csv,IS_JOLVersionB.csv,"ITEM SPECIFIC Version B",OLD,CASH,WOULD,ON,U,83,79,JOL,User,-,"How likely are you to correctly recall the second item in the pair?|Type your response on a scale from 0-100 and then press Enter.",Study/JOL,"Study Phase2",1462,,,368,1056,,,,40,0.875
W979583_jmw,q8go9c0vzl,Emily_Honors_Thesis_Part_2,1,221,2020-08-29T14:56:53-07:00,15.797296047211,6,versionA_stim.csv,IS_JOLVersionB.csv,"ITEM SPECIFIC Version B",OLD,SWAN,BIRD,ON,F,14,69,JOL,User,-,"How likely are you to correctly recall the second item in the pair?|Type your response on a scale from 0-100 and then press Enter.",Study/JOL,"Study Phase2",1670,,,984,1343,,,,70,0.889
W979583_jmw,q8go9c0vzl,Emily_Honors_Thesis_Part_2,1,222,2020-08-29T14:56:56-07:00,3.2131700515747,6,versionA_stim.csv,IS_JOLVersionB.csv,"ITEM SPECIFIC Version B",OLD,SENTENCE,WORD,ON,B,31,62,JOL,User,-,"How likely are you to correctly recall the second item in the pair?|Type your response on a scale from 0-100 and then press Enter.",Study/JOL,"Study Phase2",3008,,,2453,2600,,,,90,1
W979583_jmw,q8go9c0vzl,Emily_Honors_Thesis_Part_2,1,223,2020-08-29T14:57:01-07:00,5.6765999794006,6,versionA_stim.csv,IS_JOLVersionB.csv,"ITEM SPECIFIC Version B",OLD,HEIGHT,GROWTH,ON,B,30,80,JOL,User,-,"How likely are you to correctly recall the second item in the pair?|Type your response on a scale from 0-100 and then press Enter.",Study/JOL,"Study Phase2",1284,,,561,927,,,,70,0.857
W979583_jmw,q8go9c0vzl,Emily_Honors_Thesis_Part_2,1,224,2020-08-29T14:57:10-07:00,8.5642030239105,6,versionA_stim.csv,IS_JOLVersionB.csv,"ITEM SPECIFIC Version B",OLD,BLOW,WIND,ON,S,55,41,JOL,User,-,"How likely are you to correctly recall the second item in the pair?|Type your response on a scale from 0-100 and then press Enter.",Study/JOL,"Study Phase2",3204,,,1367,1895,,,,30,0.938
W979583_jmw,q8go9c0vzl,Emily_Honors_Thesis_Part_2,1,225,2020-08-29T14:57:20-07:00,9.8454101085663,6,versionA_stim.csv,IS_JOLVersionB.csv,"ITEM SPECIFIC Version B",OLD,DIETARY,SACKING,ON,U,67,58,JOL,User,-,"How likely are you to correctly recall the second item in the pair?|Type your response on a scale from 0-100 and then press Enter.",Study/JOL,"Study Phase2",1161,,,523,642,,,,10,0.833
W979583_jmw,q8go9c0vzl,Emily_Honors_Thesis_Part_2,1,226,2020-08-29T14:57:25-07:00,4.7029099464417,6,versionA_stim.csv,IS_JOLVersionB.csv,"ITEM SPECIFIC Version B",OLD,HORNET,STING,ON,F,11,15,JOL,User,-,"How likely are you to correctly recall the second item in the pair?|Type your response on a scale from 0-100 and then press Enter.",Study/JOL,"Study Phase2",4498,,,3793,4049,,,,50,1
W979583_jmw,q8go9c0vzl,Emily_Honors_Thesis_Part_2,1,227,2020-08-29T14:57:30-07:00,5.0649468898773,6,versionA_stim.csv,IS_JOLVersionB.csv,"ITEM SPECIFIC Version B",OLD,GEOLOGY,ROCK,ON,F,19,70,JOL,User,-,"How likely are you to correctly recall the second item in the pair?|Type your response on a scale from 0-100 and then press Enter.",Study/JOL,"Study Phase2",4864,,,3340,3806,,,,20,1
W979583_jmw,q8go9c0vzl,Emily_Honors_Thesis_Part_2,1,228,2020-08-29T14:57:34-07:00,4.1458160877228,6,versionA_stim.csv,IS_JOLVersionB.csv,"ITEM SPECIFIC Version B",OLD,DUMP,WASTE,ON,S,49,29,JOL,User,-,"How likely are you to correctly recall the second item in the pair?|Type your response on a scale from 0-100 and then press Enter.",Study/JOL,"Study Phase2",3942,,,1480,1902,,,,80,1
W979583_jmw,q8go9c0vzl,Emily_Honors_Thesis_Part_2,1,229,2020-08-29T14:57:40-07:00,6.2723159790039,6,versionA_stim.csv,IS_JOLVersionB.csv,"ITEM SPECIFIC Version B",OLD,CHISEL,HAMMER,ON,F,9,67,JOL,User,-,"How likely are you to correctly recall the second item in the pair?|Type your response on a scale from 0-100 and then press Enter.",Study/JOL,"Study Phase2",6071,,,1712,3063,,,,12,1
W979583_jmw,q8go9c0vzl,Emily_Honors_Thesis_Part_2,1,230,2020-08-29T14:57:48-07:00,7.5092129707336,6,versionA_stim.csv,IS_JOLVersionB.csv,"ITEM SPECIFIC Version B",OLD,MATH,DIVISION,ON,B,33,27,JOL,User,-,"How likely are you to correctly recall the second item in the pair?|Type your response on a scale from 0-100 and then press Enter.",Study/JOL,"Study Phase2",1653,,,898,1260,,,,70,0.889
W979583_jmw,q8go9c0vzl,Emily_Honors_Thesis_Part_2,1,231,2020-08-29T14:57:51-07:00,3.8510329723358,6,versionA_stim.csv,IS_JOLVersionB.csv,"ITEM SPECIFIC Version B",OLD,WAGE,MONEY,ON,F,8,19,JOL,User,-,"How likely are you to correctly recall the second item in the pair?|Type your response on a scale from 0-100 and then press Enter.",Study/JOL,"Study Phase2",3647,,,2473,3040,,,,40,1
W979583_jmw,q8go9c0vzl,Emily_Honors_Thesis_Part_2,1,232,2020-08-29T14:57:57-07:00,5.9370081424713,6,versionA_stim.csv,IS_JOLVersionB.csv,"ITEM SPECIFIC Version B",OLD,LOCATION,SITE,ON,S,48,37,JOL,User,-,"How likely are you to correctly recall the second item in the pair?|Type your response on a scale from 0-100 and then press Enter.",Study/JOL,"Study Phase2",1265,,,430,801,,,,80,0.857
W979583_jmw,q8go9c0vzl,Emily_Honors_Thesis_Part_2,1,233,2020-08-29T14:58:04-07:00,6.9245707988739,6,versionA_stim.csv,IS_JOLVersionB.csv,"ITEM SPECIFIC Version B",OLD,ART,LION,ON,U,79,48,JOL,User,-,"How likely are you to correctly recall the second item in the pair?|Type your response on a scale from 0-100 and then press Enter.",Study/JOL,"Study Phase2",1305,,,546,677,,,,22,0.857
W979583_jmw,q8go9c0vzl,Emily_Honors_Thesis_Part_2,1,234,2020-08-29T14:58:15-07:00,10.399826049805,6,versionA_stim.csv,IS_JOLVersionB.csv,"ITEM SPECIFIC Version B",OLD,DEATH,BUSINESS,ON,U,72,17,JOL,User,-,"How likely are you to correctly recall the second item in the pair?|Type your response on a scale from 0-100 and then press Enter.",Study/JOL,"Study Phase2",1124,,,424,787,,,,30,0.833
W979583_jmw,q8go9c0vzl,Emily_Honors_Thesis_Part_2,1,235,2020-08-29T14:58:23-07:00,8.4282081127167,6,versionA_stim.csv,IS_JOLVersionB.csv,"ITEM SPECIFIC Version B",OLD,PAST,FUTURE,ON,S,61,20,JOL,User,-,"How likely are you to correctly recall the second item in the pair?|Type your response on a scale from 0-100 and then press Enter.",Study/JOL,"Study Phase2",1570,,,1026,1179,,,,98,0.875
W979583_jmw,q8go9c0vzl,Emily_Honors_Thesis_Part_2,1,236,2020-08-29T14:58:27-07:00,3.8002178668976,6,versionA_stim.csv,IS_JOLVersionB.csv,"ITEM SPECIFIC Version B",OLD,SHOE,FOOT,ON,S,60,60,JOL,User,-,"How likely are you to correctly recall the second item in the pair?|Type your response on a scale from 0-100 and then press Enter.",Study/JOL,"Study Phase2",3596,,,1512,2129,,,,40,1
W979583_jmw,q8go9c0vzl,Emily_Honors_Thesis_Part_2,1,237,2020-08-29T14:58:31-07:00,4.1601941585541,6,versionA_stim.csv,IS_JOLVersionB.csv,"ITEM SPECIFIC Version B",OLD,VALLEY,ADD,ON,U,82,34,JOL,User,-,"How likely are you to correctly recall the second item in the pair?|Type your response on a scale from 0-100 and then press Enter.",Study/JOL,"Study Phase2",3954,,,1066,1226,,,,44,1
W979583_jmw,q8go9c0vzl,Emily_Honors_Thesis_Part_2,1,238,2020-08-29T14:58:41-07:00,9.4769868850708,6,versionA_stim.csv,IS_JOLVersionB.csv,"ITEM SPECIFIC Version B",OLD,FIX,HAND,ON,U,75,46,JOL,User,-,"How likely are you to correctly recall the second item in the pair?|Type your response on a scale from 0-100 and then press Enter.",Study/JOL,"Study Phase2",9250,,,2769,3162,,,,80,1
W979583_jmw,q8go9c0vzl,Emily_Honors_Thesis_Part_2,1,239,2020-08-29T14:58:46-07:00,5.1000881195068,6,versionA_stim.csv,IS_JOLVersionB.csv,"ITEM SPECIFIC Version B",OLD,PLANE,PILOT,ON,B,44,61,JOL,User,-,"How likely are you to correctly recall the second item in the pair?|Type your response on a scale from 0-100 and then press Enter.",Study/JOL,"Study Phase2",4899,,,2652,3244,,,,40,1
W979583_jmw,q8go9c0vzl,Emily_Honors_Thesis_Part_2,1,240,2020-08-29T14:58:54-07:00,8.6964149475098,6,versionA_stim.csv,IS_JOLVersionB.csv,"ITEM SPECIFIC Version B",OLD,,,,,,0,Instruct,-,3,"Remember to focus on how the two items are unique while you study and make your ratings!",,CHECK5,8492,,,-1,-1,,,,,1
W979583_jmw,q8go9c0vzl,Emily_Honors_Thesis_Part_2,1,241,2020-08-29T14:59:17-07:00,22.266573905945,6,versionA_stim.csv,IS_JOLVersionB.csv,"ITEM SPECIFIC Version B",OLD,LETTUCE,SALAD,ON,S,59,71,JOL,User,-,"How likely are you to correctly recall the second item in the pair?|Type your response on a scale from 0-100 and then press Enter.",Study/JOL,"Study Phase2",1679,,,863,1264,,,,70,0.889
W979583_jmw,q8go9c0vzl,Emily_Honors_Thesis_Part_2,1,242,2020-08-29T14:59:20-07:00,3.1534581184387,6,versionA_stim.csv,IS_JOLVersionB.csv,"ITEM SPECIFIC Version B",OLD,BATHROOM,TOILET,ON,S,58,36,JOL,User,-,"How likely are you to correctly recall the second item in the pair?|Type your response on a scale from 0-100 and then press Enter.",Study/JOL,"Study Phase2",2952,,,2144,2493,,,,70,1
W979583_jmw,q8go9c0vzl,Emily_Honors_Thesis_Part_2,1,243,2020-08-29T14:59:26-07:00,6.5948579311371,6,versionA_stim.csv,IS_JOLVersionB.csv,"ITEM SPECIFIC Version B",OLD,DEBATE,SIGHT,ON,U,73,57,JOL,User,-,"How likely are you to correctly recall the second item in the pair?|Type your response on a scale from 0-100 and then press Enter.",Study/JOL,"Study Phase2",1731,,,1010,1416,,,,50,0.889
W979583_jmw,q8go9c0vzl,Emily_Honors_Thesis_Part_2,1,244,2020-08-29T14:59:39-07:00,12.331665039062,6,versionA_stim.csv,IS_JOLVersionB.csv,"ITEM SPECIFIC Version B",OLD,KIDNEY,LIVER,ON,S,53,28,JOL,User,-,"How likely are you to correctly recall the second item in the pair?|Type your response on a scale from 0-100 and then press Enter.",Study/JOL,"Study Phase2",3189,,,1803,2352,,,,40,0.938
W979583_jmw,q8go9c0vzl,Emily_Honors_Thesis_Part_2,1,245,2020-08-29T14:59:42-07:00,3.6405429840088,6,versionA_stim.csv,IS_JOLVersionB.csv,"ITEM SPECIFIC Version B",OLD,ARTERY,BRONZE,ON,U,74,23,JOL,User,-,"How likely are you to correctly recall the second item in the pair?|Type your response on a scale from 0-100 and then press Enter.",Study/JOL,"Study Phase2",3431,,,2341,2941,,,,30,1
W979583_jmw,q8go9c0vzl,Emily_Honors_Thesis_Part_2,1,246,2020-08-29T14:59:50-07:00,7.4275860786438,6,versionA_stim.csv,IS_JOLVersionB.csv,"ITEM SPECIFIC Version B",OLD,SUGAR,RIDDLE,ON,U,81,43,JOL,User,-,"How likely are you to correctly recall the second item in the pair?|Type your response on a scale from 0-100 and then press Enter.",Study/JOL,"Study Phase2",1070,,,361,682,,,,70,0.833
W979583_jmw,q8go9c0vzl,Emily_Honors_Thesis_Part_2,1,247,2020-08-29T14:59:53-07:00,3.5965309143066,6,versionA_stim.csv,IS_JOLVersionB.csv,"ITEM SPECIFIC Version B",OLD,REVOLUTION,WAR,ON,F,20,7,JOL,User,-,"How likely are you to correctly recall the second item in the pair?|Type your response on a scale from 0-100 and then press Enter.",Study/JOL,"Study Phase2",3394,,,1017,1610,,,,23,1
W979583_jmw,q8go9c0vzl,Emily_Honors_Thesis_Part_2,1,248,2020-08-29T15:00:00-07:00,6.49573802948,6,versionA_stim.csv,IS_JOLVersionB.csv,"ITEM SPECIFIC Version B",OLD,MACHINE,POSITION,ON,U,76,49,JOL,User,-,"How likely are you to correctly recall the second item in the pair?|Type your response on a scale from 0-100 and then press Enter.",Study/JOL,"Study Phase2",6297,,,2325,2930,,,,20,1
W979583_jmw,q8go9c0vzl,Emily_Honors_Thesis_Part_2,1,249,2020-08-29T15:00:03-07:00,3.3749039173126,6,versionA_stim.csv,IS_JOLVersionB.csv,"ITEM SPECIFIC Version B",OLD,GRILL,BAR,ON,S,52,56,JOL,User,-,"How likely are you to correctly recall the second item in the pair?|Type your response on a scale from 0-100 and then press Enter.",Study/JOL,"Study Phase2",3171,,,1324,1763,,,,20,1
W979583_jmw,q8go9c0vzl,Emily_Honors_Thesis_Part_2,1,250,2020-08-29T15:00:07-07:00,4.1561291217804,6,versionA_stim.csv,IS_JOLVersionB.csv,"ITEM SPECIFIC Version B",OLD,BEGIN,END,ON,S,54,42,JOL,User,-,"How likely are you to correctly recall the second item in the pair?|Type your response on a scale from 0-100 and then press Enter.",Study/JOL,"Study Phase2",3955,,,1617,1970,,,,90,1
W979583_jmw,q8go9c0vzl,Emily_Honors_Thesis_Part_2,1,251,2020-08-29T15:00:14-07:00,6.2016808986664,6,versionA_stim.csv,IS_JOLVersionB.csv,"ITEM SPECIFIC Version B",OLD,BABY,CHILD,ON,S,64,81,JOL,User,-,"How likely are you to correctly recall the second item in the pair?|Type your response on a scale from 0-100 and then press Enter.",Study/JOL,"Study Phase2",1543,,,607,764,,,,90,0.875
W979583_jmw,q8go9c0vzl,Emily_Honors_Thesis_Part_2,1,252,2020-08-29T15:00:19-07:00,5.4506299495697,6,versionA_stim.csv,IS_JOLVersionB.csv,"ITEM SPECIFIC Version B",OLD,HAPPY,CAR,ON,U,77,13,JOL,User,-,"How likely are you to correctly recall the second item in the pair?|Type your response on a scale from 0-100 and then press Enter.",Study/JOL,"Study Phase2",5194,,,3070,3455,,,,60,1
W979583_jmw,q8go9c0vzl,Emily_Honors_Thesis_Part_2,1,253,2020-08-29T15:00:24-07:00,4.712081193924,6,versionA_stim.csv,IS_JOLVersionB.csv,"ITEM SPECIFIC Version B",OLD,CREDIT,CARD,ON,F,23,55,JOL,User,-,"How likely are you to correctly recall the second item in the pair?|Type your response on a scale from 0-100 and then press Enter.",Study/JOL,"Study Phase2",4506,,,1004,1377,,,,70,1
W979583_jmw,q8go9c0vzl,Emily_Honors_Thesis_Part_2,1,254,2020-08-29T15:00:32-07:00,8.6245257854462,6,versionA_stim.csv,IS_JOLVersionB.csv,"ITEM SPECIFIC Version B",OLD,EDITOR,NEWS,ON,F,10,35,JOL,User,-,"How likely are you to correctly recall the second item in the pair?|Type your response on a scale from 0-100 and then press Enter.",Study/JOL,"Study Phase2",1278,,,412,540,,,,55,0.857
W979583_jmw,q8go9c0vzl,Emily_Honors_Thesis_Part_2,1,255,2020-08-29T15:00:37-07:00,5.1055312156677,6,versionA_stim.csv,IS_JOLVersionB.csv,"ITEM SPECIFIC Version B",OLD,WINE,CHEESE,ON,S,57,14,JOL,User,-,"How likely are you to correctly recall the second item in the pair?|Type your response on a scale from 0-100 and then press Enter.",Study/JOL,"Study Phase2",4899,,,1855,2526,,,,97,1
W979583_jmw,q8go9c0vzl,Emily_Honors_Thesis_Part_2,1,256,2020-08-29T15:00:41-07:00,3.5407769680023,6,versionA_stim.csv,IS_JOLVersionB.csv,"ITEM SPECIFIC Version B",OLD,PARK,HUNGRY,ON,U,68,50,JOL,User,-,"How likely are you to correctly recall the second item in the pair?|Type your response on a scale from 0-100 and then press Enter.",Study/JOL,"Study Phase2",3336,,,1055,1442,,,,70,1
W979583_jmw,q8go9c0vzl,Emily_Honors_Thesis_Part_2,1,257,2020-08-29T15:00:44-07:00,3.4480559825897,6,versionA_stim.csv,IS_JOLVersionB.csv,"ITEM SPECIFIC Version B",OLD,ALLOW,TUCK,ON,U,78,54,JOL,User,-,"How likely are you to correctly recall the second item in the pair?|Type your response on a scale from 0-100 and then press Enter.",Study/JOL,"Study Phase2",3219,,,1081,1480,,,,50,1
W979583_jmw,q8go9c0vzl,Emily_Honors_Thesis_Part_2,1,258,2020-08-29T15:00:50-07:00,5.8468909263611,6,versionA_stim.csv,IS_JOLVersionB.csv,"ITEM SPECIFIC Version B",OLD,KING,VASE,ON,U,85,30,JOL,User,-,"How likely are you to correctly recall the second item in the pair?|Type your response on a scale from 0-100 and then press Enter.",Study/JOL,"Study Phase2",5637,,,1520,3548,,,,56,1
W979583_jmw,q8go9c0vzl,Emily_Honors_Thesis_Part_2,1,259,2020-08-29T15:00:54-07:00,3.7012190818787,6,versionA_stim.csv,IS_JOLVersionB.csv,"ITEM SPECIFIC Version B",OLD,ARCHITECTURE,DESIGN,ON,S,51,10,JOL,User,-,"How likely are you to correctly recall the second item in the pair?|Type your response on a scale from 0-100 and then press Enter.",Study/JOL,"Study Phase2",3498,,,1382,1932,,,,30,1
W979583_jmw,q8go9c0vzl,Emily_Honors_Thesis_Part_2,1,260,2020-08-29T15:01:00-07:00,6.1805820465088,6,versionA_stim.csv,IS_JOLVersionB.csv,"ITEM SPECIFIC Version B",OLD,FULL,ENOUGH,ON,B,26,8,JOL,User,-,"How likely are you to correctly recall the second item in the pair?|Type your response on a scale from 0-100 and then press Enter.",Study/JOL,"Study Phase2",1578,,,419,971,,,,40,0.875
W979583_jmw,q8go9c0vzl,Emily_Honors_Thesis_Part_2,1,261,2020-08-29T15:01:04-07:00,3.7280168533325,6,versionA_stim.csv,IS_JOLVersionB.csv,"ITEM SPECIFIC Version B",OLD,STRONG,ACCIDENT,ON,U,80,52,JOL,User,-,"How likely are you to correctly recall the second item in the pair?|Type your response on a scale from 0-100 and then press Enter.",Study/JOL,"Study Phase2",3523,,,1354,1806,,,,50,1
W979583_jmw,q8go9c0vzl,Emily_Honors_Thesis_Part_2,1,262,2020-08-29T15:01:08-07:00,4.0621991157532,6,versionA_stim.csv,IS_JOLVersionB.csv,"ITEM SPECIFIC Version B",OLD,BITTER,COLD,ON,F,12,25,JOL,User,-,"How likely are you to correctly recall the second item in the pair?|Type your response on a scale from 0-100 and then press Enter.",Study/JOL,"Study Phase2",3860,,,1289,1555,,,,88,1
W979583_jmw,q8go9c0vzl,Emily_Honors_Thesis_Part_2,1,263,2020-08-29T15:01:14-07:00,5.9419419765472,6,versionA_stim.csv,IS_JOLVersionB.csv,"ITEM SPECIFIC Version B",OLD,ROOT,PLANT,ON,F,13,66,JOL,User,-,"How likely are you to correctly recall the second item in the pair?|Type your response on a scale from 0-100 and then press Enter.",Study/JOL,"Study Phase2",1381,,,293,719,,,,60,0.857
W979583_jmw,q8go9c0vzl,Emily_Honors_Thesis_Part_2,1,264,2020-08-29T15:01:21-07:00,7.4136428833008,6,versionA_stim.csv,IS_JOLVersionB.csv,"ITEM SPECIFIC Version B",OLD,ORCHID,FLOWER,ON,F,24,11,JOL,User,-,"How likely are you to correctly recall the second item in the pair?|Type your response on a scale from 0-100 and then press Enter.",Study/JOL,"Study Phase2",1113,,,484,790,,,,70,0.833
W979583_jmw,q8go9c0vzl,Emily_Honors_Thesis_Part_2,1,265,2020-08-29T15:01:26-07:00,4.2103681564331,6,versionA_stim.csv,IS_JOLVersionB.csv,"ITEM SPECIFIC Version B",OLD,DISCOVER,FLOOR,ON,U,71,59,JOL,User,-,"How likely are you to correctly recall the second item in the pair?|Type your response on a scale from 0-100 and then press Enter.",Study/JOL,"Study Phase2",4007,,,1211,1849,,,,20,1
W979583_jmw,q8go9c0vzl,Emily_Honors_Thesis_Part_2,1,266,2020-08-29T15:01:31-07:00,5.282007932663,6,versionA_stim.csv,IS_JOLVersionB.csv,"ITEM SPECIFIC Version B",OLD,SOON,BELT,ON,U,70,83,JOL,User,-,"How likely are you to correctly recall the second item in the pair?|Type your response on a scale from 0-100 and then press Enter.",Study/JOL,"Study Phase2",5075,,,1195,3403,,,,40,1
W979583_jmw,q8go9c0vzl,Emily_Honors_Thesis_Part_2,1,267,2020-08-29T15:01:35-07:00,4.0473959445953,6,versionA_stim.csv,IS_JOLVersionB.csv,"ITEM SPECIFIC Version B",OLD,NUMBER,AMOUNT,ON,S,47,39,JOL,User,-,"How likely are you to correctly recall the second item in the pair?|Type your response on a scale from 0-100 and then press Enter.",Study/JOL,"Study Phase2",3843,,,1479,2438,,,,35,1
W979583_jmw,q8go9c0vzl,Emily_Honors_Thesis_Part_2,1,268,2020-08-29T15:01:39-07:00,4.3436949253082,6,versionA_stim.csv,IS_JOLVersionB.csv,"ITEM SPECIFIC Version B",OLD,PAW,DOG,ON,F,15,78,JOL,User,-,"How likely are you to correctly recall the second item in the pair?|Type your response on a scale from 0-100 and then press Enter.",Study/JOL,"Study Phase2",4142,,,1105,2011,,,,70,1
W979583_jmw,q8go9c0vzl,Emily_Honors_Thesis_Part_2,1,269,2020-08-29T15:01:45-07:00,5.7218790054321,6,versionA_stim.csv,IS_JOLVersionB.csv,"ITEM SPECIFIC Version B",OLD,HIDE,SICK,ON,U,84,16,JOL,User,-,"How likely are you to correctly recall the second item in the pair?|Type your response on a scale from 0-100 and then press Enter.",Study/JOL,"Study Phase2",1035,,,223,646,,,,70,0.833
W979583_jmw,q8go9c0vzl,Emily_Honors_Thesis_Part_2,1,270,2020-08-29T15:01:49-07:00,3.6365370750427,6,versionA_stim.csv,IS_JOLVersionB.csv,"ITEM SPECIFIC Version B",OLD,DIGESTION,STOMACH,ON,F,7,32,JOL,User,-,"How likely are you to correctly recall the second item in the pair?|Type your response on a scale from 0-100 and then press Enter.",Study/JOL,"Study Phase2",3433,,,1590,2016,,,,10,1
W979583_jmw,q8go9c0vzl,Emily_Honors_Thesis_Part_2,1,271,2020-08-29T15:01:55-07:00,6.6709909439087,6,versionA_stim.csv,IS_JOLVersionB.csv,"ITEM SPECIFIC Version B",OLD,DUE,ASSIGNMENT,ON,S,46,65,JOL,User,-,"How likely are you to correctly recall the second item in the pair?|Type your response on a scale from 0-100 and then press Enter.",Study/JOL,"Study Phase2",1545,,,591,1117,,,,20,0.875
W979583_jmw,q8go9c0vzl,Emily_Honors_Thesis_Part_2,1,272,2020-08-29T15:02:00-07:00,4.7035250663757,6,versionA_stim.csv,IS_JOLVersionB.csv,"ITEM SPECIFIC Version B",OLD,HYGIENE,CLEAN,ON,F,17,76,JOL,User,-,"How likely are you to correctly recall the second item in the pair?|Type your response on a scale from 0-100 and then press Enter.",Study/JOL,"Study Phase2",4438,,,2043,2876,,,,75,1
W979583_jmw,q8go9c0vzl,Emily_Honors_Thesis_Part_2,1,273,2020-08-29T15:02:07-07:00,7.374883890152,6,versionA_stim.csv,IS_JOLVersionB.csv,"ITEM SPECIFIC Version B",OLD,LAW,ATTORNEY,ON,B,34,74,JOL,User,-,"How likely are you to correctly recall the second item in the pair?|Type your response on a scale from 0-100 and then press Enter.",Study/JOL,"Study Phase2",1388,,,567,785,,,,75,0.857
W979583_jmw,q8go9c0vzl,Emily_Honors_Thesis_Part_2,1,274,2020-08-29T15:02:13-07:00,5.8881151676178,6,versionA_stim.csv,IS_JOLVersionB.csv,"ITEM SPECIFIC Version B",OLD,POP,SODA,ON,S,56,26,JOL,User,-,"How likely are you to correctly recall the second item in the pair?|Type your response on a scale from 0-100 and then press Enter.",Study/JOL,"Study Phase2",1076,,,348,503,,,,65,0.833
W979583_jmw,q8go9c0vzl,Emily_Honors_Thesis_Part_2,1,275,2020-08-29T15:02:21-07:00,7.8118488788605,6,versionA_stim.csv,IS_JOLVersionB.csv,"ITEM SPECIFIC Version B",OLD,KEY,LATCH,ON,B,36,33,JOL,User,-,"How likely are you to correctly recall the second item in the pair?|Type your response on a scale from 0-100 and then press Enter.",Study/JOL,"Study Phase2",7603,,,1861,2494,,,,60,1
W979583_jmw,q8go9c0vzl,Emily_Honors_Thesis_Part_2,1,276,2020-08-29T15:02:25-07:00,3.9443130493164,6,versionA_stim.csv,IS_JOLVersionB.csv,"ITEM SPECIFIC Version B",OLD,BALL,RACKET,ON,B,38,63,JOL,User,-,"How likely are you to correctly recall the second item in the pair?|Type your response on a scale from 0-100 and then press Enter.",Study/JOL,"Study Phase2",3741,,,1561,1798,,,,80,1
W979583_jmw,q8go9c0vzl,Emily_Honors_Thesis_Part_2,1,277,2020-08-29T15:02:29-07:00,4.3544859886169,6,versionA_stim.csv,IS_JOLVersionB.csv,"ITEM SPECIFIC Version B",OLD,MEANING,DEFINITION,ON,S,62,77,JOL,User,-,"How likely are you to correctly recall the second item in the pair?|Type your response on a scale from 0-100 and then press Enter.",Study/JOL,"Study Phase2",4148,,,1333,2551,,,,80,1
W979583_jmw,q8go9c0vzl,Emily_Honors_Thesis_Part_2,1,278,2020-08-29T15:02:39-07:00,10.124351978302,6,versionA_stim.csv,IS_JOLVersionB.csv,"ITEM SPECIFIC Version B",OLD,HERD,COW,ON,F,22,51,JOL,User,-,"How likely are you to correctly recall the second item in the pair?|Type your response on a scale from 0-100 and then press Enter.",Study/JOL,"Study Phase2",1262,,,519,881,,,,40,0.857
W979583_jmw,q8go9c0vzl,Emily_Honors_Thesis_Part_2,1,279,2020-08-29T15:02:43-07:00,3.807765007019,6,versionA_stim.csv,IS_JOLVersionB.csv,"ITEM SPECIFIC Version B",OLD,DRINK,SIP,ON,B,27,85,JOL,User,-,"How likely are you to correctly recall the second item in the pair?|Type your response on a scale from 0-100 and then press Enter.",Study/JOL,"Study Phase2",3601,,,1891,2051,,,,90,1
W979583_jmw,q8go9c0vzl,Emily_Honors_Thesis_Part_2,1,280,2020-08-29T15:03:19-07:00,35.964879989624,6,versionA_stim.csv,IS_JOLVersionB.csv,"ITEM SPECIFIC Version B",OLD,HUNGER,FAMINE,ON,B,40,31,JOL,User,-,"How likely are you to correctly recall the second item in the pair?|Type your response on a scale from 0-100 and then press Enter.",Study/JOL,"Study Phase2",10632,,,9730,9803,,,,90,0.981
W979583_jmw,q8go9c0vzl,Emily_Honors_Thesis_Part_2,1,281,2020-08-29T15:03:35-07:00,15.980436086655,6,versionA_stim.csv,IS_JOLVersionB.csv,"ITEM SPECIFIC Version B",OLD,SMELL,STENCH,ON,B,42,68,JOL,User,-,"How likely are you to correctly recall the second item in the pair?|Type your response on a scale from 0-100 and then press Enter.",Study/JOL,"Study Phase2",1749,,,670,1113,,,,70,0.889
W979583_jmw,q8go9c0vzl,Emily_Honors_Thesis_Part_2,1,282,2020-08-29T15:03:39-07:00,4.0474698543549,6,versionA_stim.csv,IS_JOLVersionB.csv,"ITEM SPECIFIC Version B",OLD,TUNA,FISH,ON,F,25,86,JOL,User,-,"How likely are you to correctly recall the second item in the pair?|Type your response on a scale from 0-100 and then press Enter.",Study/JOL,"Study Phase2",3836,,,2940,3446,,,,30,1
W979583_jmw,q8go9c0vzl,Emily_Honors_Thesis_Part_2,1,283,2020-08-29T15:03:46-07:00,6.4288461208344,6,versionA_stim.csv,IS_JOLVersionB.csv,"ITEM SPECIFIC Version B",OLD,FIRE,BLAZE,ON,B,45,44,JOL,User,-,"How likely are you to correctly recall the second item in the pair?|Type your response on a scale from 0-100 and then press Enter.",Study/JOL,"Study Phase2",1363,,,336,774,,,,50,0.857
W979583_jmw,q8go9c0vzl,Emily_Honors_Thesis_Part_2,1,284,2020-08-29T15:03:51-07:00,5.2094039916992,6,versionA_stim.csv,IS_JOLVersionB.csv,"ITEM SPECIFIC Version B",OLD,WAY,OUT,ON,F,16,73,JOL,User,-,"How likely are you to correctly recall the second item in the pair?|Type your response on a scale from 0-100 and then press Enter.",Study/JOL,"Study Phase2",4989,,,3736,4127,,,,25,1
