Username,ID,ExperimentName,Session,Trial,Date,TimeDif,"Condition Number","Stimuli File","Order File","Condition Description","Condition Notes",Stimuli*Cue,Stimuli*Answer,Stimuli*Shuffle,"Stimuli*Stimuli Notes",Stimuli*Value,Procedure*Item,"Procedure*Trial Type","Procedure*Max Time","Procedure*Min Time",Procedure*Text,"Procedure*Procedure Notes",Procedure*Shuffle,Response*RT,Response*Response,Response*Accuracy,Response*RTfirst,Response*RTlast,Response*strictAcc,Response*lenientAcc,Response*focus,Response*JOL,Response*Focus
w10056018mw,u9hwjmbwdc,Emily_Honors_Thesis_Part_2,1,1,2020-08-19T09:50:34-07:00,36.163059949875,23,versionC_stim_BACKWARD.csv,BACKWARD_RL_JOLVersionD.csv,"BACKWARD RL VERSION C",NEW,,,,,,0,Instruct,-,10,"In this section, you will be presented with a series of word pairs. As you study, you will be asked to rate your ability to remember the second item in the pair if you were only shown the first at test. You will make these ratings using a 0 to 100 Scale.",,Instruct13,35934,,,-1,-1,,,,,1
w10056018mw,u9hwjmbwdc,Emily_Honors_Thesis_Part_2,1,2,2020-08-19T09:50:46-07:00,11.223886013031,23,versionC_stim_BACKWARD.csv,BACKWARD_RL_JOLVersionD.csv,"BACKWARD RL VERSION C",NEW,,,,,,0,Instruct,-,10,"For example, if you are given the pair CAT - DOG, a rating of 0 indicates that you would not remember DOG at test, while a rating of 100 indicates full certainty that you would remember the word DOG at test.",,Instruct14,10966,,,-1,-1,,,,,1
w10056018mw,u9hwjmbwdc,Emily_Honors_Thesis_Part_2,1,3,2020-08-19T09:50:59-07:00,13.729001998901,23,versionC_stim_BACKWARD.csv,BACKWARD_RL_JOLVersionD.csv,"BACKWARD RL VERSION C",NEW,,,,,,0,Instruct,-,10,"When making these ratings, it is criticial that you use the full range of the scale. You will be disqualified for only giving ratings of 0 or 100! After making your rating, press Enter to advance to the next pair.",,Instruct15,13474,,,-1,-1,,,,,1
w10056018mw,u9hwjmbwdc,Emily_Honors_Thesis_Part_2,1,4,2020-08-19T09:51:16-07:00,16.445805072784,23,versionC_stim_BACKWARD.csv,BACKWARD_RL_JOLVersionD.csv,"BACKWARD RL VERSION C",NEW,,,,,,0,Instruct,-,15,"As you study and make your ratings, please think about how the two concepts are RELATED to each other. For example, if you see the pair TURTLE-CAT, think about how both are alive, they are both animals, and both can be kept as pets.",,Instruct19,16191,,,-1,-1,,,,,1
w10056018mw,u9hwjmbwdc,Emily_Honors_Thesis_Part_2,1,5,2020-08-19T09:51:52-07:00,36.086198091507,23,versionC_stim_BACKWARD.csv,BACKWARD_RL_JOLVersionD.csv,"BACKWARD RL VERSION C",NEW,,,,,,0,FreeRecall,-,10,"What you should think about as you study each item pair? Type your response in the box below.",,CHECK1,35802,"how they relate to each other",0,13057,29225,0,0,,,1
w10056018mw,u9hwjmbwdc,Emily_Honors_Thesis_Part_2,1,6,2020-08-19T09:52:02-07:00,9.990110874176,23,versionC_stim_BACKWARD.csv,BACKWARD_RL_JOLVersionD.csv,"BACKWARD RL VERSION C",NEW,,,,,,0,Instruct,-,5,"You will now complete a practice session. Please study the following items and rate your ability to remember them. Remember to think about how the two items are similiar!",,Instruct17,9741,,,-1,-1,,,,,1
w10056018mw,u9hwjmbwdc,Emily_Honors_Thesis_Part_2,1,7,2020-08-19T09:52:37-07:00,35.255300998688,23,versionC_stim_BACKWARD.csv,BACKWARD_RL_JOLVersionD.csv,"BACKWARD RL VERSION C",NEW,BEHAVIOR,SOCIAL,PRACTICE,PRACTICE,189,187,JOL,User,-,"How likely are you to correctly recall the second item in the pair?|Type your response on a scale from 0-100 and then press Enter.",Study/JOL,PRACTICE,34963,,,32188,32313,,,,89,1
w10056018mw,u9hwjmbwdc,Emily_Honors_Thesis_Part_2,1,8,2020-08-19T09:52:51-07:00,13.533554077148,23,versionC_stim_BACKWARD.csv,BACKWARD_RL_JOLVersionD.csv,"BACKWARD RL VERSION C",NEW,HAM,BONE,PRACTICE,PRACTICE,183,182,JOL,User,-,"How likely are you to correctly recall the second item in the pair?|Type your response on a scale from 0-100 and then press Enter.",Study/JOL,PRACTICE,13066,,,10940,11794,,,,100,1
w10056018mw,u9hwjmbwdc,Emily_Honors_Thesis_Part_2,1,9,2020-08-19T09:53:00-07:00,9.442076921463,23,versionC_stim_BACKWARD.csv,BACKWARD_RL_JOLVersionD.csv,"BACKWARD RL VERSION C",NEW,FASHION,MODEL,PRACTICE,PRACTICE,190,184,JOL,User,-,"How likely are you to correctly recall the second item in the pair?|Type your response on a scale from 0-100 and then press Enter.",Study/JOL,PRACTICE,9043,,,7110,7860,,,,100,1
w10056018mw,u9hwjmbwdc,Emily_Honors_Thesis_Part_2,1,10,2020-08-19T09:53:19-07:00,19.233798980713,23,versionC_stim_BACKWARD.csv,BACKWARD_RL_JOLVersionD.csv,"BACKWARD RL VERSION C",NEW,AARDVARK,ZOO,PRACTICE,PRACTICE,181,186,JOL,User,-,"How likely are you to correctly recall the second item in the pair?|Type your response on a scale from 0-100 and then press Enter.",Study/JOL,PRACTICE,18881,,,16096,16430,,,,50,1
w10056018mw,u9hwjmbwdc,Emily_Honors_Thesis_Part_2,1,11,2020-08-19T09:53:30-07:00,10.763822078705,23,versionC_stim_BACKWARD.csv,BACKWARD_RL_JOLVersionD.csv,"BACKWARD RL VERSION C",NEW,CHIME,MUSIC,PRACTICE,PRACTICE,188,189,JOL,User,-,"How likely are you to correctly recall the second item in the pair?|Type your response on a scale from 0-100 and then press Enter.",Study/JOL,PRACTICE,10482,,,8294,9022,,,,100,1
w10056018mw,u9hwjmbwdc,Emily_Honors_Thesis_Part_2,1,12,2020-08-19T09:53:44-07:00,13.540036916733,23,versionC_stim_BACKWARD.csv,BACKWARD_RL_JOLVersionD.csv,"BACKWARD RL VERSION C",NEW,PADDLE,ROW,PRACTICE,PRACTICE,184,188,JOL,User,-,"How likely are you to correctly recall the second item in the pair?|Type your response on a scale from 0-100 and then press Enter.",Study/JOL,PRACTICE,13289,,,11086,11798,,,,100,1
w10056018mw,u9hwjmbwdc,Emily_Honors_Thesis_Part_2,1,13,2020-08-19T09:53:50-07:00,6.7507650852203,23,versionC_stim_BACKWARD.csv,BACKWARD_RL_JOLVersionD.csv,"BACKWARD RL VERSION C",NEW,DEAF,MUTE,PRACTICE,PRACTICE,182,185,JOL,User,-,"How likely are you to correctly recall the second item in the pair?|Type your response on a scale from 0-100 and then press Enter.",Study/JOL,PRACTICE,6482,,,4624,5346,,,,100,1
w10056018mw,u9hwjmbwdc,Emily_Honors_Thesis_Part_2,1,14,2020-08-19T09:53:56-07:00,5.5515289306641,23,versionC_stim_BACKWARD.csv,BACKWARD_RL_JOLVersionD.csv,"BACKWARD RL VERSION C",NEW,HINGE,SWING,PRACTICE,PRACTICE,185,191,JOL,User,-,"How likely are you to correctly recall the second item in the pair?|Type your response on a scale from 0-100 and then press Enter.",Study/JOL,PRACTICE,5293,,,3456,4097,,,,100,1
w10056018mw,u9hwjmbwdc,Emily_Honors_Thesis_Part_2,1,15,2020-08-19T09:54:03-07:00,6.9494440555573,23,versionC_stim_BACKWARD.csv,BACKWARD_RL_JOLVersionD.csv,"BACKWARD RL VERSION C",NEW,DISBELIEVE,SKEPTIC,PRACTICE,PRACTICE,186,183,JOL,User,-,"How likely are you to correctly recall the second item in the pair?|Type your response on a scale from 0-100 and then press Enter.",Study/JOL,PRACTICE,6687,,,5114,5651,,,,75,1
w10056018mw,u9hwjmbwdc,Emily_Honors_Thesis_Part_2,1,16,2020-08-19T09:54:07-07:00,4.5062780380249,23,versionC_stim_BACKWARD.csv,BACKWARD_RL_JOLVersionD.csv,"BACKWARD RL VERSION C",NEW,CHOCOLATE,BAR,PRACTICE,PRACTICE,187,190,JOL,User,-,"How likely are you to correctly recall the second item in the pair?|Type your response on a scale from 0-100 and then press Enter.",Study/JOL,PRACTICE,4249,,,2134,2779,,,,100,1
w10056018mw,u9hwjmbwdc,Emily_Honors_Thesis_Part_2,1,17,2020-08-19T09:54:11-07:00,3.9450280666351,23,versionC_stim_BACKWARD.csv,BACKWARD_RL_JOLVersionD.csv,"BACKWARD RL VERSION C",NEW,,,,,,0,Instruct,User,-,"You have completed this section. Please press Enter to continue.",,Instruct18,3690,,,-1,-1,,,,,1
w10056018mw,u9hwjmbwdc,Emily_Honors_Thesis_Part_2,1,18,2020-08-19T09:54:17-07:00,5.5120828151703,23,versionC_stim_BACKWARD.csv,BACKWARD_RL_JOLVersionD.csv,"BACKWARD RL VERSION C",NEW,,,,,,0,Instruct,User,-,"You will now begin the study. Press Enter when you are ready to begin.",,Instruct16,5256,,,-1,-1,,,,,1
w10056018mw,u9hwjmbwdc,Emily_Honors_Thesis_Part_2,1,19,2020-08-19T09:54:27-07:00,9.9200041294098,23,versionC_stim_BACKWARD.csv,BACKWARD_RL_JOLVersionD.csv,"BACKWARD RL VERSION C",NEW,STRING,NOODLE,Buffer3,Buffer,92,94,JOL,User,-,"How likely are you to correctly recall the second item in the pair?|Type your response on a scale from 0-100 and then press Enter.",Study/JOL,BUFFER,9662,,,6795,7276,,,,100,1
w10056018mw,u9hwjmbwdc,Emily_Honors_Thesis_Part_2,1,20,2020-08-19T09:54:31-07:00,4.1587688922882,23,versionC_stim_BACKWARD.csv,BACKWARD_RL_JOLVersionD.csv,"BACKWARD RL VERSION C",NEW,FROZEN,ICE,Buffer3,Buffer,94,92,JOL,User,-,"How likely are you to correctly recall the second item in the pair?|Type your response on a scale from 0-100 and then press Enter.",Study/JOL,BUFFER,3898,,,1865,2270,,,,100,1
w10056018mw,u9hwjmbwdc,Emily_Honors_Thesis_Part_2,1,21,2020-08-19T09:54:35-07:00,3.8189470767975,23,versionC_stim_BACKWARD.csv,BACKWARD_RL_JOLVersionD.csv,"BACKWARD RL VERSION C",NEW,SPOOKY,OCTOBER,Buffer3,Buffer,180,95,JOL,User,-,"How likely are you to correctly recall the second item in the pair?|Type your response on a scale from 0-100 and then press Enter.",Study/JOL,BUFFER,3554,,,1844,2278,,,,100,1
w10056018mw,u9hwjmbwdc,Emily_Honors_Thesis_Part_2,1,22,2020-08-19T09:54:41-07:00,6.4290220737457,23,versionC_stim_BACKWARD.csv,BACKWARD_RL_JOLVersionD.csv,"BACKWARD RL VERSION C",NEW,POTATO,CARROT,Buffer3,Buffer,91,93,JOL,User,-,"How likely are you to correctly recall the second item in the pair?|Type your response on a scale from 0-100 and then press Enter.",Study/JOL,BUFFER,6160,,,4347,4542,,,,90,1
w10056018mw,u9hwjmbwdc,Emily_Honors_Thesis_Part_2,1,23,2020-08-19T09:54:47-07:00,5.9657108783722,23,versionC_stim_BACKWARD.csv,BACKWARD_RL_JOLVersionD.csv,"BACKWARD RL VERSION C",NEW,MARCH,SPRING,Buffer3,Buffer,179,96,JOL,User,-,"How likely are you to correctly recall the second item in the pair?|Type your response on a scale from 0-100 and then press Enter.",Study/JOL,BUFFER,5705,,,3467,4336,,,,100,1
w10056018mw,u9hwjmbwdc,Emily_Honors_Thesis_Part_2,1,24,2020-08-19T09:54:52-07:00,4.787043094635,23,versionC_stim_BACKWARD.csv,BACKWARD_RL_JOLVersionD.csv,"BACKWARD RL VERSION C",NEW,GAME,CLUE,ON2,B,97,165,JOL,User,-,"How likely are you to correctly recall the second item in the pair?|Type your response on a scale from 0-100 and then press Enter.",Study/JOL,"Study Phase",4532,,,2958,3136,,,,90,1
w10056018mw,u9hwjmbwdc,Emily_Honors_Thesis_Part_2,1,25,2020-08-19T09:54:56-07:00,3.8010108470917,23,versionC_stim_BACKWARD.csv,BACKWARD_RL_JOLVersionD.csv,"BACKWARD RL VERSION C",NEW,EAT,DINE,ON2,B,111,157,JOL,User,-,"How likely are you to correctly recall the second item in the pair?|Type your response on a scale from 0-100 and then press Enter.",Study/JOL,"Study Phase",3544,,,1902,2472,,,,100,1
w10056018mw,u9hwjmbwdc,Emily_Honors_Thesis_Part_2,1,26,2020-08-19T09:55:01-07:00,5.4712960720062,23,versionC_stim_BACKWARD.csv,BACKWARD_RL_JOLVersionD.csv,"BACKWARD RL VERSION C",NEW,CARBON,ELEMENT,ON2,S,141,114,JOL,User,-,"How likely are you to correctly recall the second item in the pair?|Type your response on a scale from 0-100 and then press Enter.",Study/JOL,"Study Phase",5212,,,3859,4060,,,,80,1
w10056018mw,u9hwjmbwdc,Emily_Honors_Thesis_Part_2,1,27,2020-08-19T09:55:06-07:00,4.9961259365082,23,versionC_stim_BACKWARD.csv,BACKWARD_RL_JOLVersionD.csv,"BACKWARD RL VERSION C",NEW,CLEAR,MOAT,ON2,U,169,108,JOL,User,-,"How likely are you to correctly recall the second item in the pair?|Type your response on a scale from 0-100 and then press Enter.",Study/JOL,"Study Phase",4744,,,3370,3561,,,,80,1
w10056018mw,u9hwjmbwdc,Emily_Honors_Thesis_Part_2,1,28,2020-08-19T09:55:10-07:00,4.1378200054169,23,versionC_stim_BACKWARD.csv,BACKWARD_RL_JOLVersionD.csv,"BACKWARD RL VERSION C",NEW,CAR,DRIVER,ON2,B,106,130,JOL,User,-,"How likely are you to correctly recall the second item in the pair?|Type your response on a scale from 0-100 and then press Enter.",Study/JOL,"Study Phase",3878,,,2326,2848,,,,100,1
w10056018mw,u9hwjmbwdc,Emily_Honors_Thesis_Part_2,1,29,2020-08-19T09:55:19-07:00,8.5514740943909,23,versionC_stim_BACKWARD.csv,BACKWARD_RL_JOLVersionD.csv,"BACKWARD RL VERSION C",NEW,TAN,SUN,ON2,S,155,123,JOL,User,-,"How likely are you to correctly recall the second item in the pair?|Type your response on a scale from 0-100 and then press Enter.",Study/JOL,"Study Phase",8294,,,6690,7076,,,,100,1
w10056018mw,u9hwjmbwdc,Emily_Honors_Thesis_Part_2,1,30,2020-08-19T09:55:25-07:00,6.0298690795898,23,versionC_stim_BACKWARD.csv,BACKWARD_RL_JOLVersionD.csv,"BACKWARD RL VERSION C",NEW,ELECTION,MAZE,ON2,U,159,116,JOL,User,-,"How likely are you to correctly recall the second item in the pair?|Type your response on a scale from 0-100 and then press Enter.",Study/JOL,"Study Phase",5773,,,4012,4200,,,,80,1
w10056018mw,u9hwjmbwdc,Emily_Honors_Thesis_Part_2,1,31,2020-08-19T09:55:28-07:00,3.4676098823547,23,versionC_stim_BACKWARD.csv,BACKWARD_RL_JOLVersionD.csv,"BACKWARD RL VERSION C",NEW,TRASH,LITTER,ON2,B,103,163,JOL,User,-,"How likely are you to correctly recall the second item in the pair?|Type your response on a scale from 0-100 and then press Enter.",Study/JOL,"Study Phase",3212,,,1792,2239,,,,100,1
w10056018mw,u9hwjmbwdc,Emily_Honors_Thesis_Part_2,1,32,2020-08-19T09:55:33-07:00,4.1947929859161,23,versionC_stim_BACKWARD.csv,BACKWARD_RL_JOLVersionD.csv,"BACKWARD RL VERSION C",NEW,MORNING,TEMPERATURE,ON2,U,173,113,JOL,User,-,"How likely are you to correctly recall the second item in the pair?|Type your response on a scale from 0-100 and then press Enter.",Study/JOL,"Study Phase",3931,,,2459,2633,,,,90,1
w10056018mw,u9hwjmbwdc,Emily_Honors_Thesis_Part_2,1,33,2020-08-19T09:55:38-07:00,5.798152923584,23,versionC_stim_BACKWARD.csv,BACKWARD_RL_JOLVersionD.csv,"BACKWARD RL VERSION C",NEW,DRINK,WATER,ON2,S,143,128,JOL,User,-,"How likely are you to correctly recall the second item in the pair?|Type your response on a scale from 0-100 and then press Enter.",Study/JOL,"Study Phase",5539,,,1944,4351,,,,100,1
w10056018mw,u9hwjmbwdc,Emily_Honors_Thesis_Part_2,1,34,2020-08-19T09:55:43-07:00,4.393748998642,23,versionC_stim_BACKWARD.csv,BACKWARD_RL_JOLVersionD.csv,"BACKWARD RL VERSION C",NEW,SEATBELT,SAFETY,ON2,S,147,102,JOL,User,-,"How likely are you to correctly recall the second item in the pair?|Type your response on a scale from 0-100 and then press Enter.",Study/JOL,"Study Phase",4137,,,2414,3023,,,,100,1
w10056018mw,u9hwjmbwdc,Emily_Honors_Thesis_Part_2,1,35,2020-08-19T09:55:47-07:00,4.1412200927734,23,versionC_stim_BACKWARD.csv,BACKWARD_RL_JOLVersionD.csv,"BACKWARD RL VERSION C",NEW,TICK,FLEA,ON2,S,151,161,JOL,User,-,"How likely are you to correctly recall the second item in the pair?|Type your response on a scale from 0-100 and then press Enter.",Study/JOL,"Study Phase",3881,,,2089,2626,,,,100,1
w10056018mw,u9hwjmbwdc,Emily_Honors_Thesis_Part_2,1,36,2020-08-19T09:55:53-07:00,6.5319519042969,23,versionC_stim_BACKWARD.csv,BACKWARD_RL_JOLVersionD.csv,"BACKWARD RL VERSION C",NEW,REVENGE,EVEN,ON2,F,122,174,JOL,User,-,"How likely are you to correctly recall the second item in the pair?|Type your response on a scale from 0-100 and then press Enter.",Study/JOL,"Study Phase",6271,,,4928,5107,,,,90,1
w10056018mw,u9hwjmbwdc,Emily_Honors_Thesis_Part_2,1,37,2020-08-19T09:55:58-07:00,5.0129070281982,23,versionC_stim_BACKWARD.csv,BACKWARD_RL_JOLVersionD.csv,"BACKWARD RL VERSION C",NEW,FLIP,TURN,ON2,F,116,99,JOL,User,-,"How likely are you to correctly recall the second item in the pair?|Type your response on a scale from 0-100 and then press Enter.",Study/JOL,"Study Phase",4757,,,3150,3298,,,,90,1
w10056018mw,u9hwjmbwdc,Emily_Honors_Thesis_Part_2,1,38,2020-08-19T09:56:03-07:00,4.6610469818115,23,versionC_stim_BACKWARD.csv,BACKWARD_RL_JOLVersionD.csv,"BACKWARD RL VERSION C",NEW,FIGHT,FEUD,ON2,B,113,173,JOL,User,-,"How likely are you to correctly recall the second item in the pair?|Type your response on a scale from 0-100 and then press Enter.",Study/JOL,"Study Phase",4402,,,2956,3298,,,,100,1
w10056018mw,u9hwjmbwdc,Emily_Honors_Thesis_Part_2,1,39,2020-08-19T09:56:08-07:00,4.9120790958405,23,versionC_stim_BACKWARD.csv,BACKWARD_RL_JOLVersionD.csv,"BACKWARD RL VERSION C",NEW,MYSTERY,DETECTIVE,ON2,B,100,146,JOL,User,-,"How likely are you to correctly recall the second item in the pair?|Type your response on a scale from 0-100 and then press Enter.",Study/JOL,"Study Phase",4642,,,3453,3577,,,,90,1
w10056018mw,u9hwjmbwdc,Emily_Honors_Thesis_Part_2,1,40,2020-08-19T09:56:14-07:00,6.2606589794159,23,versionC_stim_BACKWARD.csv,BACKWARD_RL_JOLVersionD.csv,"BACKWARD RL VERSION C",NEW,END,ADJOURN,ON2,B,101,162,JOL,User,-,"How likely are you to correctly recall the second item in the pair?|Type your response on a scale from 0-100 and then press Enter.",Study/JOL,"Study Phase",6010,,,4516,4875,,,,75,1
w10056018mw,u9hwjmbwdc,Emily_Honors_Thesis_Part_2,1,41,2020-08-19T09:56:23-07:00,8.2975480556488,23,versionC_stim_BACKWARD.csv,BACKWARD_RL_JOLVersionD.csv,"BACKWARD RL VERSION C",NEW,OUNCE,BOTH,ON2,U,172,164,JOL,User,-,"How likely are you to correctly recall the second item in the pair?|Type your response on a scale from 0-100 and then press Enter.",Study/JOL,"Study Phase",8011,,,6019,6166,,,,80,1
w10056018mw,u9hwjmbwdc,Emily_Honors_Thesis_Part_2,1,42,2020-08-19T09:56:27-07:00,4.1221189498901,23,versionC_stim_BACKWARD.csv,BACKWARD_RL_JOLVersionD.csv,"BACKWARD RL VERSION C",NEW,EQUAL,RIGHTS,ON2,S,137,111,JOL,User,-,"How likely are you to correctly recall the second item in the pair?|Type your response on a scale from 0-100 and then press Enter.",Study/JOL,"Study Phase",3749,,,2299,2456,,,,90,1
w10056018mw,u9hwjmbwdc,Emily_Honors_Thesis_Part_2,1,43,2020-08-19T09:56:30-07:00,3.7382369041443,23,versionC_stim_BACKWARD.csv,BACKWARD_RL_JOLVersionD.csv,"BACKWARD RL VERSION C",NEW,RED,CHERRY,ON2,B,104,143,JOL,User,-,"How likely are you to correctly recall the second item in the pair?|Type your response on a scale from 0-100 and then press Enter.",Study/JOL,"Study Phase",3430,,,1613,2263,,,,100,1
w10056018mw,u9hwjmbwdc,Emily_Honors_Thesis_Part_2,1,44,2020-08-19T09:56:36-07:00,5.3222579956055,23,versionC_stim_BACKWARD.csv,BACKWARD_RL_JOLVersionD.csv,"BACKWARD RL VERSION C",NEW,GROUND,EARTH,ON2,S,144,127,JOL,User,-,"How likely are you to correctly recall the second item in the pair?|Type your response on a scale from 0-100 and then press Enter.",Study/JOL,"Study Phase",5042,,,3194,3917,,,,100,1
w10056018mw,u9hwjmbwdc,Emily_Honors_Thesis_Part_2,1,45,2020-08-19T09:56:40-07:00,4.3377740383148,23,versionC_stim_BACKWARD.csv,BACKWARD_RL_JOLVersionD.csv,"BACKWARD RL VERSION C",NEW,STRAWBERRY,FRUIT,ON2,F,124,149,JOL,User,-,"How likely are you to correctly recall the second item in the pair?|Type your response on a scale from 0-100 and then press Enter.",Study/JOL,"Study Phase",3760,,,1902,2603,,,,100,1
w10056018mw,u9hwjmbwdc,Emily_Honors_Thesis_Part_2,1,46,2020-08-19T09:56:44-07:00,3.5769560337067,23,versionC_stim_BACKWARD.csv,BACKWARD_RL_JOLVersionD.csv,"BACKWARD RL VERSION C",NEW,LOVE,AFFECTION,ON2,B,115,119,JOL,User,-,"How likely are you to correctly recall the second item in the pair?|Type your response on a scale from 0-100 and then press Enter.",Study/JOL,"Study Phase",3275,,,1342,2014,,,,100,1
w10056018mw,u9hwjmbwdc,Emily_Honors_Thesis_Part_2,1,47,2020-08-19T09:56:48-07:00,4.3778710365295,23,versionC_stim_BACKWARD.csv,BACKWARD_RL_JOLVersionD.csv,"BACKWARD RL VERSION C",NEW,WINDSHIELD,CAR,ON2,F,117,166,JOL,User,-,"How likely are you to correctly recall the second item in the pair?|Type your response on a scale from 0-100 and then press Enter.",Study/JOL,"Study Phase",4126,,,2313,2986,,,,100,1
w10056018mw,u9hwjmbwdc,Emily_Honors_Thesis_Part_2,1,48,2020-08-19T09:56:53-07:00,4.5488579273224,23,versionC_stim_BACKWARD.csv,BACKWARD_RL_JOLVersionD.csv,"BACKWARD RL VERSION C",NEW,CHARM,VEHICLE,ON2,U,160,171,JOL,User,-,"How likely are you to correctly recall the second item in the pair?|Type your response on a scale from 0-100 and then press Enter.",Study/JOL,"Study Phase",4153,,,2471,2614,,,,90,1
w10056018mw,u9hwjmbwdc,Emily_Honors_Thesis_Part_2,1,49,2020-08-19T09:56:56-07:00,3.5894691944122,23,versionC_stim_BACKWARD.csv,BACKWARD_RL_JOLVersionD.csv,"BACKWARD RL VERSION C",NEW,BRAWL,FIGHT,ON2,F,135,139,JOL,User,-,"How likely are you to correctly recall the second item in the pair?|Type your response on a scale from 0-100 and then press Enter.",Study/JOL,"Study Phase",3306,,,1975,2135,,,,90,1
w10056018mw,u9hwjmbwdc,Emily_Honors_Thesis_Part_2,1,50,2020-08-19T09:56:59-07:00,3.3477168083191,23,versionC_stim_BACKWARD.csv,BACKWARD_RL_JOLVersionD.csv,"BACKWARD RL VERSION C",NEW,ACTRESS,STAR,ON2,F,120,100,JOL,User,-,"How likely are you to correctly recall the second item in the pair?|Type your response on a scale from 0-100 and then press Enter.",Study/JOL,"Study Phase",3092,,,1637,1784,,,,90,1
w10056018mw,u9hwjmbwdc,Emily_Honors_Thesis_Part_2,1,51,2020-08-19T09:57:03-07:00,3.693510055542,23,versionC_stim_BACKWARD.csv,BACKWARD_RL_JOLVersionD.csv,"BACKWARD RL VERSION C",NEW,COFFIN,DEAD,ON2,F,128,151,JOL,User,-,"How likely are you to correctly recall the second item in the pair?|Type your response on a scale from 0-100 and then press Enter.",Study/JOL,"Study Phase",3433,,,2357,2487,,,,90,1
w10056018mw,u9hwjmbwdc,Emily_Honors_Thesis_Part_2,1,52,2020-08-19T09:57:07-07:00,4.2256979942322,23,versionC_stim_BACKWARD.csv,BACKWARD_RL_JOLVersionD.csv,"BACKWARD RL VERSION C",NEW,PAPER,DOCUMENT,ON2,B,109,134,JOL,User,-,"How likely are you to correctly recall the second item in the pair?|Type your response on a scale from 0-100 and then press Enter.",Study/JOL,"Study Phase",3966,,,2315,3018,,,,100,1
w10056018mw,u9hwjmbwdc,Emily_Honors_Thesis_Part_2,1,53,2020-08-19T09:57:12-07:00,4.5613090991974,23,versionC_stim_BACKWARD.csv,BACKWARD_RL_JOLVersionD.csv,"BACKWARD RL VERSION C",NEW,SIGN,LOAN,ON2,U,171,104,JOL,User,-,"How likely are you to correctly recall the second item in the pair?|Type your response on a scale from 0-100 and then press Enter.",Study/JOL,"Study Phase",4303,,,3548,3684,,,,90,1
w10056018mw,u9hwjmbwdc,Emily_Honors_Thesis_Part_2,1,54,2020-08-19T09:57:15-07:00,2.6254918575287,23,versionC_stim_BACKWARD.csv,BACKWARD_RL_JOLVersionD.csv,"BACKWARD RL VERSION C",NEW,DOG,FURRY,ON2,B,102,107,JOL,User,-,"How likely are you to correctly recall the second item in the pair?|Type your response on a scale from 0-100 and then press Enter.",Study/JOL,"Study Phase",2367,,,1447,1841,,,,100,1
w10056018mw,u9hwjmbwdc,Emily_Honors_Thesis_Part_2,1,55,2020-08-19T09:57:21-07:00,6.4560871124268,23,versionC_stim_BACKWARD.csv,BACKWARD_RL_JOLVersionD.csv,"BACKWARD RL VERSION C",NEW,SARDINE,FISH,ON2,F,130,98,JOL,User,-,"How likely are you to correctly recall the second item in the pair?|Type your response on a scale from 0-100 and then press Enter.",Study/JOL,"Study Phase",6191,,,2014,5591,,,,100,1
w10056018mw,u9hwjmbwdc,Emily_Honors_Thesis_Part_2,1,56,2020-08-19T09:57:28-07:00,6.7025189399719,23,versionC_stim_BACKWARD.csv,BACKWARD_RL_JOLVersionD.csv,"BACKWARD RL VERSION C",NEW,SMELL,INCENSE,ON2,B,110,137,JOL,User,-,"How likely are you to correctly recall the second item in the pair?|Type your response on a scale from 0-100 and then press Enter.",Study/JOL,"Study Phase",5632,,,3848,5091,,,,90,1
w10056018mw,u9hwjmbwdc,Emily_Honors_Thesis_Part_2,1,57,2020-08-19T09:57:32-07:00,4.400053024292,23,versionC_stim_BACKWARD.csv,BACKWARD_RL_JOLVersionD.csv,"BACKWARD RL VERSION C",NEW,PENGUIN,BIRD,ON2,F,119,156,JOL,User,-,"How likely are you to correctly recall the second item in the pair?|Type your response on a scale from 0-100 and then press Enter.",Study/JOL,"Study Phase",4059,,,3347,3500,,,,90,1
w10056018mw,u9hwjmbwdc,Emily_Honors_Thesis_Part_2,1,58,2020-08-19T09:57:38-07:00,5.5118939876556,23,versionC_stim_BACKWARD.csv,BACKWARD_RL_JOLVersionD.csv,"BACKWARD RL VERSION C",NEW,STEAK,GIVE,ON2,U,158,126,JOL,User,-,"How likely are you to correctly recall the second item in the pair?|Type your response on a scale from 0-100 and then press Enter.",Study/JOL,"Study Phase",5255,,,4571,4698,,,,90,1
w10056018mw,u9hwjmbwdc,Emily_Honors_Thesis_Part_2,1,59,2020-08-19T09:57:43-07:00,5.2400069236755,23,versionC_stim_BACKWARD.csv,BACKWARD_RL_JOLVersionD.csv,"BACKWARD RL VERSION C",NEW,,,,,,0,Instruct,-,3,"Remember to focus on how the two items are similiar while you study and make your ratings!",,CHECK2,4990,,,-1,-1,,,,,1
w10056018mw,u9hwjmbwdc,Emily_Honors_Thesis_Part_2,1,60,2020-08-19T09:57:50-07:00,7.4850430488586,23,versionC_stim_BACKWARD.csv,BACKWARD_RL_JOLVersionD.csv,"BACKWARD RL VERSION C",NEW,WAX,CANDLE,ON2,S,139,129,JOL,User,-,"How likely are you to correctly recall the second item in the pair?|Type your response on a scale from 0-100 and then press Enter.",Study/JOL,"Study Phase",7232,,,5749,6508,,,,100,1
w10056018mw,u9hwjmbwdc,Emily_Honors_Thesis_Part_2,1,61,2020-08-19T09:57:57-07:00,6.6092209815979,23,versionC_stim_BACKWARD.csv,BACKWARD_RL_JOLVersionD.csv,"BACKWARD RL VERSION C",NEW,FICTION,LISTEN,ON2,U,164,136,JOL,User,-,"How likely are you to correctly recall the second item in the pair?|Type your response on a scale from 0-100 and then press Enter.",Study/JOL,"Study Phase",6350,,,2893,5570,,,,90,1
w10056018mw,u9hwjmbwdc,Emily_Honors_Thesis_Part_2,1,62,2020-08-19T09:58:03-07:00,6.2727661132812,23,versionC_stim_BACKWARD.csv,BACKWARD_RL_JOLVersionD.csv,"BACKWARD RL VERSION C",NEW,TIE,SHOELACE,ON2,B,99,172,JOL,User,-,"How likely are you to correctly recall the second item in the pair?|Type your response on a scale from 0-100 and then press Enter.",Study/JOL,"Study Phase",6013,,,4136,5245,,,,100,1
w10056018mw,u9hwjmbwdc,Emily_Honors_Thesis_Part_2,1,63,2020-08-19T09:58:10-07:00,7.1575169563293,23,versionC_stim_BACKWARD.csv,BACKWARD_RL_JOLVersionD.csv,"BACKWARD RL VERSION C",NEW,JOKE,KEYS,ON2,U,165,152,JOL,User,-,"How likely are you to correctly recall the second item in the pair?|Type your response on a scale from 0-100 and then press Enter.",Study/JOL,"Study Phase",6905,,,4737,6182,,,,80,1
w10056018mw,u9hwjmbwdc,Emily_Honors_Thesis_Part_2,1,64,2020-08-19T09:58:15-07:00,4.5155100822449,23,versionC_stim_BACKWARD.csv,BACKWARD_RL_JOLVersionD.csv,"BACKWARD RL VERSION C",NEW,NOISE,LOUD,ON2,S,152,138,JOL,User,-,"How likely are you to correctly recall the second item in the pair?|Type your response on a scale from 0-100 and then press Enter.",Study/JOL,"Study Phase",4090,,,3095,3495,,,,100,1
w10056018mw,u9hwjmbwdc,Emily_Honors_Thesis_Part_2,1,65,2020-08-19T09:58:19-07:00,3.9815678596497,23,versionC_stim_BACKWARD.csv,BACKWARD_RL_JOLVersionD.csv,"BACKWARD RL VERSION C",NEW,CUT,CHOP,ON2,B,107,132,JOL,User,-,"How likely are you to correctly recall the second item in the pair?|Type your response on a scale from 0-100 and then press Enter.",Study/JOL,"Study Phase",3518,,,2537,2907,,,,100,1
w10056018mw,u9hwjmbwdc,Emily_Honors_Thesis_Part_2,1,66,2020-08-19T09:58:23-07:00,4.136883020401,23,versionC_stim_BACKWARD.csv,BACKWARD_RL_JOLVersionD.csv,"BACKWARD RL VERSION C",NEW,NAP,SLEEP,ON2,F,134,101,JOL,User,-,"How likely are you to correctly recall the second item in the pair?|Type your response on a scale from 0-100 and then press Enter.",Study/JOL,"Study Phase",3879,,,2793,3129,,,,100,1
w10056018mw,u9hwjmbwdc,Emily_Honors_Thesis_Part_2,1,67,2020-08-19T09:58:29-07:00,6.1961560249329,23,versionC_stim_BACKWARD.csv,BACKWARD_RL_JOLVersionD.csv,"BACKWARD RL VERSION C",NEW,LEAGUE,BASEBALL,ON2,F,131,135,JOL,User,-,"How likely are you to correctly recall the second item in the pair?|Type your response on a scale from 0-100 and then press Enter.",Study/JOL,"Study Phase",5926,,,4756,5113,,,,100,1
w10056018mw,u9hwjmbwdc,Emily_Honors_Thesis_Part_2,1,68,2020-08-19T09:58:33-07:00,3.501785993576,23,versionC_stim_BACKWARD.csv,BACKWARD_RL_JOLVersionD.csv,"BACKWARD RL VERSION C",NEW,TOIL,LEASE,ON2,U,170,112,JOL,User,-,"How likely are you to correctly recall the second item in the pair?|Type your response on a scale from 0-100 and then press Enter.",Study/JOL,"Study Phase",3241,,,2459,2649,,,,80,1
w10056018mw,u9hwjmbwdc,Emily_Honors_Thesis_Part_2,1,69,2020-08-19T09:58:36-07:00,2.9861669540405,23,versionC_stim_BACKWARD.csv,BACKWARD_RL_JOLVersionD.csv,"BACKWARD RL VERSION C",NEW,SCISSORS,SHEARS,ON2,B,112,155,JOL,User,-,"How likely are you to correctly recall the second item in the pair?|Type your response on a scale from 0-100 and then press Enter.",Study/JOL,"Study Phase",2729,,,1569,2117,,,,100,1
w10056018mw,u9hwjmbwdc,Emily_Honors_Thesis_Part_2,1,70,2020-08-19T09:58:39-07:00,3.5023331642151,23,versionC_stim_BACKWARD.csv,BACKWARD_RL_JOLVersionD.csv,"BACKWARD RL VERSION C",NEW,AWAY,GONE,ON2,S,142,170,JOL,User,-,"How likely are you to correctly recall the second item in the pair?|Type your response on a scale from 0-100 and then press Enter.",Study/JOL,"Study Phase",3238,,,1494,2544,,,,100,1
w10056018mw,u9hwjmbwdc,Emily_Honors_Thesis_Part_2,1,71,2020-08-19T09:58:44-07:00,4.5169289112091,23,versionC_stim_BACKWARD.csv,BACKWARD_RL_JOLVersionD.csv,"BACKWARD RL VERSION C",NEW,THIMBLE,THREAD,ON2,F,121,175,JOL,User,-,"How likely are you to correctly recall the second item in the pair?|Type your response on a scale from 0-100 and then press Enter.",Study/JOL,"Study Phase",4256,,,3465,3648,,,,80,1
w10056018mw,u9hwjmbwdc,Emily_Honors_Thesis_Part_2,1,72,2020-08-19T09:58:48-07:00,4.5628108978271,23,versionC_stim_BACKWARD.csv,BACKWARD_RL_JOLVersionD.csv,"BACKWARD RL VERSION C",NEW,TEMPER,TANTRUM,ON2,S,154,160,JOL,User,-,"How likely are you to correctly recall the second item in the pair?|Type your response on a scale from 0-100 and then press Enter.",Study/JOL,"Study Phase",4303,,,2268,3629,,,,100,1
w10056018mw,u9hwjmbwdc,Emily_Honors_Thesis_Part_2,1,73,2020-08-19T09:58:53-07:00,5.0270340442657,23,versionC_stim_BACKWARD.csv,BACKWARD_RL_JOLVersionD.csv,"BACKWARD RL VERSION C",NEW,BANKER,MONEY,ON2,F,132,118,JOL,User,-,"How likely are you to correctly recall the second item in the pair?|Type your response on a scale from 0-100 and then press Enter.",Study/JOL,"Study Phase",4762,,,3837,4163,,,,100,1
w10056018mw,u9hwjmbwdc,Emily_Honors_Thesis_Part_2,1,74,2020-08-19T09:59:01-07:00,7.3721539974213,23,versionC_stim_BACKWARD.csv,BACKWARD_RL_JOLVersionD.csv,"BACKWARD RL VERSION C",NEW,HATE,NAME,ON2,U,167,106,JOL,User,-,"How likely are you to correctly recall the second item in the pair?|Type your response on a scale from 0-100 and then press Enter.",Study/JOL,"Study Phase",7117,,,5291,6466,,,,100,1
w10056018mw,u9hwjmbwdc,Emily_Honors_Thesis_Part_2,1,75,2020-08-19T09:59:07-07:00,6.2838549613953,23,versionC_stim_BACKWARD.csv,BACKWARD_RL_JOLVersionD.csv,"BACKWARD RL VERSION C",NEW,CHILDREN,MIRROR,ON2,U,174,120,JOL,User,-,"How likely are you to correctly recall the second item in the pair?|Type your response on a scale from 0-100 and then press Enter.",Study/JOL,"Study Phase",6030,,,4882,5063,,,,70,1
w10056018mw,u9hwjmbwdc,Emily_Honors_Thesis_Part_2,1,76,2020-08-19T09:59:14-07:00,6.6966090202332,23,versionC_stim_BACKWARD.csv,BACKWARD_RL_JOLVersionD.csv,"BACKWARD RL VERSION C",NEW,CLOTHES,CAKE,ON2,U,166,109,JOL,User,-,"How likely are you to correctly recall the second item in the pair?|Type your response on a scale from 0-100 and then press Enter.",Study/JOL,"Study Phase",6421,,,3648,4552,,,,80,1
w10056018mw,u9hwjmbwdc,Emily_Honors_Thesis_Part_2,1,77,2020-08-19T09:59:19-07:00,5.5435380935669,23,versionC_stim_BACKWARD.csv,BACKWARD_RL_JOLVersionD.csv,"BACKWARD RL VERSION C",NEW,DONKEY,MULE,ON2,B,108,153,JOL,User,-,"How likely are you to correctly recall the second item in the pair?|Type your response on a scale from 0-100 and then press Enter.",Study/JOL,"Study Phase",5074,,,2133,4477,,,,100,1
w10056018mw,u9hwjmbwdc,Emily_Honors_Thesis_Part_2,1,78,2020-08-19T09:59:22-07:00,3.2419879436493,23,versionC_stim_BACKWARD.csv,BACKWARD_RL_JOLVersionD.csv,"BACKWARD RL VERSION C",NEW,PLANT,CACTUS,ON2,B,98,103,JOL,User,-,"How likely are you to correctly recall the second item in the pair?|Type your response on a scale from 0-100 and then press Enter.",Study/JOL,"Study Phase",2950,,,1646,2433,,,,100,1
w10056018mw,u9hwjmbwdc,Emily_Honors_Thesis_Part_2,1,79,2020-08-19T09:59:28-07:00,5.3592550754547,23,versionC_stim_BACKWARD.csv,BACKWARD_RL_JOLVersionD.csv,"BACKWARD RL VERSION C",NEW,VILLAIN,BAD,ON2,F,118,168,JOL,User,-,"How likely are you to correctly recall the second item in the pair?|Type your response on a scale from 0-100 and then press Enter.",Study/JOL,"Study Phase",4900,,,3538,4208,,,,100,1
w10056018mw,u9hwjmbwdc,Emily_Honors_Thesis_Part_2,1,80,2020-08-19T09:59:38-07:00,10.281169891357,23,versionC_stim_BACKWARD.csv,BACKWARD_RL_JOLVersionD.csv,"BACKWARD RL VERSION C",NEW,HEAD,SCALP,ON2,B,105,144,JOL,User,-,"How likely are you to correctly recall the second item in the pair?|Type your response on a scale from 0-100 and then press Enter.",Study/JOL,"Study Phase",9955,,,8544,9323,,,,100,1
w10056018mw,u9hwjmbwdc,Emily_Honors_Thesis_Part_2,1,81,2020-08-19T09:59:42-07:00,3.5894019603729,23,versionC_stim_BACKWARD.csv,BACKWARD_RL_JOLVersionD.csv,"BACKWARD RL VERSION C",NEW,BALLOON,POP,ON2,F,123,105,JOL,User,-,"How likely are you to correctly recall the second item in the pair?|Type your response on a scale from 0-100 and then press Enter.",Study/JOL,"Study Phase",3179,,,1907,2566,,,,100,1
w10056018mw,u9hwjmbwdc,Emily_Honors_Thesis_Part_2,1,82,2020-08-19T09:59:49-07:00,7.6624331474304,23,versionC_stim_BACKWARD.csv,BACKWARD_RL_JOLVersionD.csv,"BACKWARD RL VERSION C",NEW,LIE,TRUTH,ON2,S,148,97,JOL,User,-,"How likely are you to correctly recall the second item in the pair?|Type your response on a scale from 0-100 and then press Enter.",Study/JOL,"Study Phase",7369,,,5650,6724,,,,100,1
w10056018mw,u9hwjmbwdc,Emily_Honors_Thesis_Part_2,1,83,2020-08-19T09:59:53-07:00,3.7526779174805,23,versionC_stim_BACKWARD.csv,BACKWARD_RL_JOLVersionD.csv,"BACKWARD RL VERSION C",NEW,SHAVE,RAZOR,ON2,S,136,131,JOL,User,-,"How likely are you to correctly recall the second item in the pair?|Type your response on a scale from 0-100 and then press Enter.",Study/JOL,"Study Phase",3309,,,2017,2694,,,,100,1
w10056018mw,u9hwjmbwdc,Emily_Honors_Thesis_Part_2,1,84,2020-08-19T09:59:57-07:00,3.9829521179199,23,versionC_stim_BACKWARD.csv,BACKWARD_RL_JOLVersionD.csv,"BACKWARD RL VERSION C",NEW,CLOTH,STRETCH,ON2,U,157,110,JOL,User,-,"How likely are you to correctly recall the second item in the pair?|Type your response on a scale from 0-100 and then press Enter.",Study/JOL,"Study Phase",3671,,,1971,2118,,,,90,1
w10056018mw,u9hwjmbwdc,Emily_Honors_Thesis_Part_2,1,85,2020-08-19T10:00:05-07:00,7.6331570148468,23,versionC_stim_BACKWARD.csv,BACKWARD_RL_JOLVersionD.csv,"BACKWARD RL VERSION C",NEW,MAROON,JUSTICE,ON2,U,156,121,JOL,User,-,"How likely are you to correctly recall the second item in the pair?|Type your response on a scale from 0-100 and then press Enter.",Study/JOL,"Study Phase",7327,,,6495,6662,,,,80,1
w10056018mw,u9hwjmbwdc,Emily_Honors_Thesis_Part_2,1,86,2020-08-19T10:00:14-07:00,9.0137310028076,23,versionC_stim_BACKWARD.csv,BACKWARD_RL_JOLVersionD.csv,"BACKWARD RL VERSION C",NEW,TRUTHFUL,HONEST,ON2,F,133,154,JOL,User,-,"How likely are you to correctly recall the second item in the pair?|Type your response on a scale from 0-100 and then press Enter.",Study/JOL,"Study Phase",8760,,,7759,8185,,,,100,1
w10056018mw,u9hwjmbwdc,Emily_Honors_Thesis_Part_2,1,87,2020-08-19T10:00:17-07:00,3.4962179660797,23,versionC_stim_BACKWARD.csv,BACKWARD_RL_JOLVersionD.csv,"BACKWARD RL VERSION C",NEW,FAVORITE,BEST,ON2,F,125,145,JOL,User,-,"How likely are you to correctly recall the second item in the pair?|Type your response on a scale from 0-100 and then press Enter.",Study/JOL,"Study Phase",3235,,,2197,2626,,,,100,1
w10056018mw,u9hwjmbwdc,Emily_Honors_Thesis_Part_2,1,88,2020-08-19T10:00:23-07:00,5.361496925354,23,versionC_stim_BACKWARD.csv,BACKWARD_RL_JOLVersionD.csv,"BACKWARD RL VERSION C",NEW,BANG,FUZZY,ON2,U,168,167,JOL,User,-,"How likely are you to correctly recall the second item in the pair?|Type your response on a scale from 0-100 and then press Enter.",Study/JOL,"Study Phase",5107,,,4178,4413,,,,80,1
w10056018mw,u9hwjmbwdc,Emily_Honors_Thesis_Part_2,1,89,2020-08-19T10:00:26-07:00,2.8946409225464,23,versionC_stim_BACKWARD.csv,BACKWARD_RL_JOLVersionD.csv,"BACKWARD RL VERSION C",NEW,AIRCRAFT,PLANE,ON2,F,129,115,JOL,User,-,"How likely are you to correctly recall the second item in the pair?|Type your response on a scale from 0-100 and then press Enter.",Study/JOL,"Study Phase",2612,,,1555,2089,,,,100,1
w10056018mw,u9hwjmbwdc,Emily_Honors_Thesis_Part_2,1,90,2020-08-19T10:00:29-07:00,3.4300200939178,23,versionC_stim_BACKWARD.csv,BACKWARD_RL_JOLVersionD.csv,"BACKWARD RL VERSION C",NEW,REEL,ROD,ON2,S,150,125,JOL,User,-,"How likely are you to correctly recall the second item in the pair?|Type your response on a scale from 0-100 and then press Enter.",Study/JOL,"Study Phase",3165,,,2091,2515,,,,100,1
w10056018mw,u9hwjmbwdc,Emily_Honors_Thesis_Part_2,1,91,2020-08-19T10:00:38-07:00,9.429141998291,23,versionC_stim_BACKWARD.csv,BACKWARD_RL_JOLVersionD.csv,"BACKWARD RL VERSION C",NEW,SHAKE,SHELL,ON2,U,163,133,JOL,User,-,"How likely are you to correctly recall the second item in the pair?|Type your response on a scale from 0-100 and then press Enter.",Study/JOL,"Study Phase",9174,,,5800,7892,,,,80,1
w10056018mw,u9hwjmbwdc,Emily_Honors_Thesis_Part_2,1,92,2020-08-19T10:00:43-07:00,4.1403419971466,23,versionC_stim_BACKWARD.csv,BACKWARD_RL_JOLVersionD.csv,"BACKWARD RL VERSION C",NEW,PANTHER,CAT,ON2,F,126,150,JOL,User,-,"How likely are you to correctly recall the second item in the pair?|Type your response on a scale from 0-100 and then press Enter.",Study/JOL,"Study Phase",3883,,,1859,2307,,,,100,1
w10056018mw,u9hwjmbwdc,Emily_Honors_Thesis_Part_2,1,93,2020-08-19T10:00:46-07:00,3.6624369621277,23,versionC_stim_BACKWARD.csv,BACKWARD_RL_JOLVersionD.csv,"BACKWARD RL VERSION C",NEW,LONELY,ALONE,ON2,S,145,124,JOL,User,-,"How likely are you to correctly recall the second item in the pair?|Type your response on a scale from 0-100 and then press Enter.",Study/JOL,"Study Phase",3398,,,2198,2808,,,,100,1
w10056018mw,u9hwjmbwdc,Emily_Honors_Thesis_Part_2,1,94,2020-08-19T10:00:50-07:00,3.6132459640503,23,versionC_stim_BACKWARD.csv,BACKWARD_RL_JOLVersionD.csv,"BACKWARD RL VERSION C",NEW,LONG,EXTENSION,ON2,B,96,169,JOL,User,-,"How likely are you to correctly recall the second item in the pair?|Type your response on a scale from 0-100 and then press Enter.",Study/JOL,"Study Phase",3361,,,2204,2660,,,,100,1
w10056018mw,u9hwjmbwdc,Emily_Honors_Thesis_Part_2,1,95,2020-08-19T10:00:57-07:00,6.9819691181183,23,versionC_stim_BACKWARD.csv,BACKWARD_RL_JOLVersionD.csv,"BACKWARD RL VERSION C",NEW,OBTAIN,MEAT,ON2,U,161,117,JOL,User,-,"How likely are you to correctly recall the second item in the pair?|Type your response on a scale from 0-100 and then press Enter.",Study/JOL,"Study Phase",6723,,,2989,5996,,,,80,1
w10056018mw,u9hwjmbwdc,Emily_Honors_Thesis_Part_2,1,96,2020-08-19T10:01:05-07:00,8.6932249069214,23,versionC_stim_BACKWARD.csv,BACKWARD_RL_JOLVersionD.csv,"BACKWARD RL VERSION C",NEW,WET,DRY,ON2,S,146,148,JOL,User,-,"How likely are you to correctly recall the second item in the pair?|Type your response on a scale from 0-100 and then press Enter.",Study/JOL,"Study Phase",8433,,,6796,7568,,,,100,1
w10056018mw,u9hwjmbwdc,Emily_Honors_Thesis_Part_2,1,97,2020-08-19T10:01:09-07:00,3.5370271205902,23,versionC_stim_BACKWARD.csv,BACKWARD_RL_JOLVersionD.csv,"BACKWARD RL VERSION C",NEW,BREAKABLE,GLASS,ON2,F,127,142,JOL,User,-,"How likely are you to correctly recall the second item in the pair?|Type your response on a scale from 0-100 and then press Enter.",Study/JOL,"Study Phase",3276,,,1817,2614,,,,100,1
w10056018mw,u9hwjmbwdc,Emily_Honors_Thesis_Part_2,1,98,2020-08-19T10:01:13-07:00,4.4945788383484,23,versionC_stim_BACKWARD.csv,BACKWARD_RL_JOLVersionD.csv,"BACKWARD RL VERSION C",NEW,BRACELET,WRIST,ON2,S,140,158,JOL,User,-,"How likely are you to correctly recall the second item in the pair?|Type your response on a scale from 0-100 and then press Enter.",Study/JOL,"Study Phase",4235,,,2283,3812,,,,100,1
w10056018mw,u9hwjmbwdc,Emily_Honors_Thesis_Part_2,1,99,2020-08-19T10:01:18-07:00,4.520250082016,23,versionC_stim_BACKWARD.csv,BACKWARD_RL_JOLVersionD.csv,"BACKWARD RL VERSION C",NEW,SCAR,MAIN,ON2,U,175,140,JOL,User,-,"How likely are you to correctly recall the second item in the pair?|Type your response on a scale from 0-100 and then press Enter.",Study/JOL,"Study Phase",4259,,,3364,3571,,,,80,1
w10056018mw,u9hwjmbwdc,Emily_Honors_Thesis_Part_2,1,100,2020-08-19T10:01:22-07:00,3.5163390636444,23,versionC_stim_BACKWARD.csv,BACKWARD_RL_JOLVersionD.csv,"BACKWARD RL VERSION C",NEW,COLD,CHILL,ON2,B,114,159,JOL,User,-,"How likely are you to correctly recall the second item in the pair?|Type your response on a scale from 0-100 and then press Enter.",Study/JOL,"Study Phase",3260,,,1850,2559,,,,100,1
w10056018mw,u9hwjmbwdc,Emily_Honors_Thesis_Part_2,1,101,2020-08-19T10:01:25-07:00,3.6271908283234,23,versionC_stim_BACKWARD.csv,BACKWARD_RL_JOLVersionD.csv,"BACKWARD RL VERSION C",NEW,HAVE,OWN,ON2,S,153,176,JOL,User,-,"How likely are you to correctly recall the second item in the pair?|Type your response on a scale from 0-100 and then press Enter.",Study/JOL,"Study Phase",3364,,,2588,2758,,,,90,1
w10056018mw,u9hwjmbwdc,Emily_Honors_Thesis_Part_2,1,102,2020-08-19T10:01:29-07:00,3.4960269927979,23,versionC_stim_BACKWARD.csv,BACKWARD_RL_JOLVersionD.csv,"BACKWARD RL VERSION C",NEW,COMMUNICATION,PHONE,ON2,S,149,122,JOL,User,-,"How likely are you to correctly recall the second item in the pair?|Type your response on a scale from 0-100 and then press Enter.",Study/JOL,"Study Phase",3233,,,1893,2615,,,,100,1
w10056018mw,u9hwjmbwdc,Emily_Honors_Thesis_Part_2,1,103,2020-08-19T10:01:32-07:00,3.3479030132294,23,versionC_stim_BACKWARD.csv,BACKWARD_RL_JOLVersionD.csv,"BACKWARD RL VERSION C",NEW,JAR,MASON,ON2,S,138,141,JOL,User,-,"How likely are you to correctly recall the second item in the pair?|Type your response on a scale from 0-100 and then press Enter.",Study/JOL,"Study Phase",3091,,,1603,2312,,,,100,1
w10056018mw,u9hwjmbwdc,Emily_Honors_Thesis_Part_2,1,104,2020-08-19T10:01:38-07:00,6.1347851753235,23,versionC_stim_BACKWARD.csv,BACKWARD_RL_JOLVersionD.csv,"BACKWARD RL VERSION C",NEW,ABLE,CRACKLE,ON2,U,162,147,JOL,User,-,"How likely are you to correctly recall the second item in the pair?|Type your response on a scale from 0-100 and then press Enter.",Study/JOL,"Study Phase",5872,,,4992,5154,,,,80,1
w10056018mw,u9hwjmbwdc,Emily_Honors_Thesis_Part_2,1,105,2020-08-19T10:01:45-07:00,6.940584897995,23,versionC_stim_BACKWARD.csv,BACKWARD_RL_JOLVersionD.csv,"BACKWARD RL VERSION C",NEW,WEAKS,DAYS,Buffer3,Buffer,176,181,JOL,User,-,"How likely are you to correctly recall the second item in the pair?|Type your response on a scale from 0-100 and then press Enter.",Study/JOL,BUFFER2,6682,,,5889,6036,,,,90,1
w10056018mw,u9hwjmbwdc,Emily_Honors_Thesis_Part_2,1,106,2020-08-19T10:01:50-07:00,5.0035679340363,23,versionC_stim_BACKWARD.csv,BACKWARD_RL_JOLVersionD.csv,"BACKWARD RL VERSION C",NEW,ADVENTURE,CAMP,Buffer3,Buffer,95,178,JOL,User,-,"How likely are you to correctly recall the second item in the pair?|Type your response on a scale from 0-100 and then press Enter.",Study/JOL,BUFFER2,4742,,,3318,4069,,,,100,1
w10056018mw,u9hwjmbwdc,Emily_Honors_Thesis_Part_2,1,107,2020-08-19T10:01:53-07:00,3.3145651817322,23,versionC_stim_BACKWARD.csv,BACKWARD_RL_JOLVersionD.csv,"BACKWARD RL VERSION C",NEW,SHED,TOOL,Buffer3,Buffer,178,177,JOL,User,-,"How likely are you to correctly recall the second item in the pair?|Type your response on a scale from 0-100 and then press Enter.",Study/JOL,BUFFER2,3054,,,1715,2447,,,,100,1
w10056018mw,u9hwjmbwdc,Emily_Honors_Thesis_Part_2,1,108,2020-08-19T10:01:57-07:00,3.5201289653778,23,versionC_stim_BACKWARD.csv,BACKWARD_RL_JOLVersionD.csv,"BACKWARD RL VERSION C",NEW,FISH,SHRIMP,Buffer3,Buffer,93,179,JOL,User,-,"How likely are you to correctly recall the second item in the pair?|Type your response on a scale from 0-100 and then press Enter.",Study/JOL,BUFFER2,3263,,,1824,2580,,,,100,1
w10056018mw,u9hwjmbwdc,Emily_Honors_Thesis_Part_2,1,109,2020-08-19T10:02:00-07:00,2.96830701828,23,versionC_stim_BACKWARD.csv,BACKWARD_RL_JOLVersionD.csv,"BACKWARD RL VERSION C",NEW,YEAR,MONTH,Buffer3,Buffer,177,180,JOL,User,-,"How likely are you to correctly recall the second item in the pair?|Type your response on a scale from 0-100 and then press Enter.",Study/JOL,BUFFER2,2709,,,1393,2112,,,,100,1
w10056018mw,u9hwjmbwdc,Emily_Honors_Thesis_Part_2,1,110,2020-08-19T10:03:09-07:00,69.061733961105,23,versionC_stim_BACKWARD.csv,BACKWARD_RL_JOLVersionD.csv,"BACKWARD RL VERSION C",NEW,,,,,,0,Instruct,User,-,"You have completed this section. Please press Enter.",Filler_Instruction,Instruct5,68803,,,-1,-1,,,,,1
w10056018mw,u9hwjmbwdc,Emily_Honors_Thesis_Part_2,1,111,2020-08-19T10:03:33-07:00,24.286368846893,23,versionC_stim_BACKWARD.csv,BACKWARD_RL_JOLVersionD.csv,"BACKWARD RL VERSION C",NEW,,,,,,0,FreeRecall,-,10,"What were you supposed to focus on while you studied each pair? (Hint: Think back to the instructions). Type your answer in the space below.",,CHECK3,24026,"how they were related",0,13929,21816,0,0,,,1
w10056018mw,u9hwjmbwdc,Emily_Honors_Thesis_Part_2,1,112,2020-08-19T10:03:36-07:00,2.7352271080017,23,versionC_stim_BACKWARD.csv,BACKWARD_RL_JOLVersionD.csv,"BACKWARD RL VERSION C",NEW,,,,,,0,Instruct,User,-,"You have completed this section. Please press Enter.",Filler_Instruction,Instruct2,2490,,,-1,-1,,,,,1
w10056018mw,u9hwjmbwdc,Emily_Honors_Thesis_Part_2,1,113,2020-08-19T10:05:36-07:00,120.23073792458,23,versionC_stim_BACKWARD.csv,BACKWARD_RL_JOLVersionD.csv,"BACKWARD RL VERSION C",NEW,,,,,,0,FreeRecall,120,120,"Please list the 50 US states in alphabetical order. The task will automatically advance to the next screen after two minutes.",,Filler1,120001,"arazona Arkansas alabama californiana colorado Delaware florida ",0,16735,95545,0,0,,,1
w10056018mw,u9hwjmbwdc,Emily_Honors_Thesis_Part_2,1,114,2020-08-19T10:05:53-07:00,16.793313980103,23,versionC_stim_BACKWARD.csv,BACKWARD_RL_JOLVersionD.csv,"BACKWARD RL VERSION C",NEW,,,,,,0,Instruct,-,10,"You will now be presented with the first word from each of the previously studied item pairs. Please type the missing word. If you do not know the word, you may guess or press Enter to skip forward to the next pair.",,Instruct3,16449,,,-1,-1,,,,,1
w10056018mw,u9hwjmbwdc,Emily_Honors_Thesis_Part_2,1,115,2020-08-19T10:06:03-07:00,10.148732185364,23,versionC_stim_BACKWARD.csv,BACKWARD_RL_JOLVersionD.csv,"BACKWARD RL VERSION C",NEW,NAP,SLEEP,ON2,F,134,101,Test,User,-,,Recall,Recall1,9864,sleep,100,2821,8945,1,1,,,1
w10056018mw,u9hwjmbwdc,Emily_Honors_Thesis_Part_2,1,116,2020-08-19T10:06:07-07:00,3.6761260032654,23,versionC_stim_BACKWARD.csv,BACKWARD_RL_JOLVersionD.csv,"BACKWARD RL VERSION C",NEW,BANKER,MONEY,ON2,F,132,118,Test,User,-,,Recall,Recall1,3312,money,100,1716,2549,1,1,,,1
w10056018mw,u9hwjmbwdc,Emily_Honors_Thesis_Part_2,1,117,2020-08-19T10:06:09-07:00,2.5581347942352,23,versionC_stim_BACKWARD.csv,BACKWARD_RL_JOLVersionD.csv,"BACKWARD RL VERSION C",NEW,PANTHER,CAT,ON2,F,126,150,Test,User,-,,Recall,Recall1,2193,cat,100,1467,1726,1,1,,,1
w10056018mw,u9hwjmbwdc,Emily_Honors_Thesis_Part_2,1,118,2020-08-19T10:06:14-07:00,4.8297770023346,23,versionC_stim_BACKWARD.csv,BACKWARD_RL_JOLVersionD.csv,"BACKWARD RL VERSION C",NEW,AIRCRAFT,PLANE,ON2,F,129,115,Test,User,-,,Recall,Recall1,4527,plaine,90.909090909091,1438,3763,0,1,,,1
w10056018mw,u9hwjmbwdc,Emily_Honors_Thesis_Part_2,1,119,2020-08-19T10:06:19-07:00,4.8008780479431,23,versionC_stim_BACKWARD.csv,BACKWARD_RL_JOLVersionD.csv,"BACKWARD RL VERSION C",NEW,WAX,CANDLE,ON2,S,139,129,Test,User,-,,Recall,Recall1,4308,candle,100,1631,3568,1,1,,,1
w10056018mw,u9hwjmbwdc,Emily_Honors_Thesis_Part_2,1,120,2020-08-19T10:06:23-07:00,3.6120290756226,23,versionC_stim_BACKWARD.csv,BACKWARD_RL_JOLVersionD.csv,"BACKWARD RL VERSION C",NEW,LONELY,ALONE,ON2,S,145,124,Test,User,-,,Recall,Recall1,3309,alone,100,1329,2567,1,1,,,1
w10056018mw,u9hwjmbwdc,Emily_Honors_Thesis_Part_2,1,121,2020-08-19T10:06:30-07:00,7.5532069206238,23,versionC_stim_BACKWARD.csv,BACKWARD_RL_JOLVersionD.csv,"BACKWARD RL VERSION C",NEW,TIE,SHOELACE,ON2,B,99,172,Test,User,-,,Recall,Recall1,7289,"shoe lace",94.117647058824,3090,6524,0,1,,,1
w10056018mw,u9hwjmbwdc,Emily_Honors_Thesis_Part_2,1,122,2020-08-19T10:06:35-07:00,4.8721451759338,23,versionC_stim_BACKWARD.csv,BACKWARD_RL_JOLVersionD.csv,"BACKWARD RL VERSION C",NEW,SIGN,LOAN,ON2,U,171,104,Test,User,-,,Recall,Recall1,4607,,0,-1,-1,0,0,,,1
w10056018mw,u9hwjmbwdc,Emily_Honors_Thesis_Part_2,1,123,2020-08-19T10:06:38-07:00,2.7260718345642,23,versionC_stim_BACKWARD.csv,BACKWARD_RL_JOLVersionD.csv,"BACKWARD RL VERSION C",NEW,END,ADJOURN,ON2,B,101,162,Test,User,-,,Recall,Recall1,2471,,0,-1,-1,0,0,,,1
w10056018mw,u9hwjmbwdc,Emily_Honors_Thesis_Part_2,1,124,2020-08-19T10:06:42-07:00,3.9712181091309,23,versionC_stim_BACKWARD.csv,BACKWARD_RL_JOLVersionD.csv,"BACKWARD RL VERSION C",NEW,ELECTION,MAZE,ON2,U,159,116,Test,User,-,,Recall,Recall1,3710,,0,-1,-1,0,0,,,1
w10056018mw,u9hwjmbwdc,Emily_Honors_Thesis_Part_2,1,125,2020-08-19T10:06:47-07:00,5.112380027771,23,versionC_stim_BACKWARD.csv,BACKWARD_RL_JOLVersionD.csv,"BACKWARD RL VERSION C",NEW,MAROON,JUSTICE,ON2,U,156,121,Test,User,-,,Recall,Recall1,4857,,0,-1,-1,0,0,,,1
w10056018mw,u9hwjmbwdc,Emily_Honors_Thesis_Part_2,1,126,2020-08-19T10:06:52-07:00,5.6217060089111,23,versionC_stim_BACKWARD.csv,BACKWARD_RL_JOLVersionD.csv,"BACKWARD RL VERSION C",NEW,LEAGUE,BASEBALL,ON2,F,131,135,Test,User,-,,Recall,Recall1,5359,baseball,100,2013,4701,1,1,,,1
w10056018mw,u9hwjmbwdc,Emily_Honors_Thesis_Part_2,1,127,2020-08-19T10:06:56-07:00,3.7550039291382,23,versionC_stim_BACKWARD.csv,BACKWARD_RL_JOLVersionD.csv,"BACKWARD RL VERSION C",NEW,HATE,NAME,ON2,U,167,106,Test,User,-,,Recall,Recall1,3490,name,100,2191,2737,1,1,,,1
w10056018mw,u9hwjmbwdc,Emily_Honors_Thesis_Part_2,1,128,2020-08-19T10:07:01-07:00,4.9101469516754,23,versionC_stim_BACKWARD.csv,BACKWARD_RL_JOLVersionD.csv,"BACKWARD RL VERSION C",NEW,DOG,FURRY,ON2,B,102,107,Test,User,-,,Recall,Recall1,4644,cat,0,3082,3796,0,0,,,1
w10056018mw,u9hwjmbwdc,Emily_Honors_Thesis_Part_2,1,129,2020-08-19T10:07:03-07:00,2.0831401348114,23,versionC_stim_BACKWARD.csv,BACKWARD_RL_JOLVersionD.csv,"BACKWARD RL VERSION C",NEW,TOIL,LEASE,ON2,U,170,112,Test,User,-,,Recall,Recall1,1822,,0,-1,-1,0,0,,,1
w10056018mw,u9hwjmbwdc,Emily_Honors_Thesis_Part_2,1,130,2020-08-19T10:07:06-07:00,2.9396698474884,23,versionC_stim_BACKWARD.csv,BACKWARD_RL_JOLVersionD.csv,"BACKWARD RL VERSION C",NEW,BALLOON,POP,ON2,F,123,105,Test,User,-,,Recall,Recall1,2672,pop,100,1708,2044,1,1,,,1
w10056018mw,u9hwjmbwdc,Emily_Honors_Thesis_Part_2,1,131,2020-08-19T10:07:11-07:00,4.7000739574432,23,versionC_stim_BACKWARD.csv,BACKWARD_RL_JOLVersionD.csv,"BACKWARD RL VERSION C",NEW,SARDINE,FISH,ON2,F,130,98,Test,User,-,,Recall,Recall1,4442,fish,100,2241,3599,1,1,,,1
w10056018mw,u9hwjmbwdc,Emily_Honors_Thesis_Part_2,1,132,2020-08-19T10:07:21-07:00,9.741455078125,23,versionC_stim_BACKWARD.csv,BACKWARD_RL_JOLVersionD.csv,"BACKWARD RL VERSION C",NEW,SHAKE,SHELL,ON2,U,163,133,Test,User,-,,Recall,Recall1,9465,,0,-1,-1,0,0,,,1
w10056018mw,u9hwjmbwdc,Emily_Honors_Thesis_Part_2,1,133,2020-08-19T10:07:38-07:00,17.879770994186,23,versionC_stim_BACKWARD.csv,BACKWARD_RL_JOLVersionD.csv,"BACKWARD RL VERSION C",NEW,CLOTHES,CAKE,ON2,U,166,109,Test,User,-,,Recall,Recall1,17497,"stretch ",18.181818181818,5043,16764,0,0,,,1
w10056018mw,u9hwjmbwdc,Emily_Honors_Thesis_Part_2,1,134,2020-08-19T10:07:43-07:00,4.234039068222,23,versionC_stim_BACKWARD.csv,BACKWARD_RL_JOLVersionD.csv,"BACKWARD RL VERSION C",NEW,NOISE,LOUD,ON2,S,152,138,Test,User,-,,Recall,Recall1,3787,loud,100,2162,3137,1,1,,,1
w10056018mw,u9hwjmbwdc,Emily_Honors_Thesis_Part_2,1,135,2020-08-19T10:07:48-07:00,5.7567009925842,23,versionC_stim_BACKWARD.csv,BACKWARD_RL_JOLVersionD.csv,"BACKWARD RL VERSION C",NEW,REEL,ROD,ON2,S,150,125,Test,User,-,,Recall,Recall1,5423,rod,100,2957,4700,1,1,,,1
w10056018mw,u9hwjmbwdc,Emily_Honors_Thesis_Part_2,1,136,2020-08-19T10:07:53-07:00,4.6419959068298,23,versionC_stim_BACKWARD.csv,BACKWARD_RL_JOLVersionD.csv,"BACKWARD RL VERSION C",NEW,AWAY,GONE,ON2,S,142,170,Test,User,-,,Recall,Recall1,4338,,0,-1,-1,0,0,,,1
w10056018mw,u9hwjmbwdc,Emily_Honors_Thesis_Part_2,1,137,2020-08-19T10:07:57-07:00,3.7393901348114,23,versionC_stim_BACKWARD.csv,BACKWARD_RL_JOLVersionD.csv,"BACKWARD RL VERSION C",NEW,HAVE,OWN,ON2,S,153,176,Test,User,-,,Recall,Recall1,3466,,0,-1,-1,0,0,,,1
w10056018mw,u9hwjmbwdc,Emily_Honors_Thesis_Part_2,1,138,2020-08-19T10:08:00-07:00,3.2709558010101,23,versionC_stim_BACKWARD.csv,BACKWARD_RL_JOLVersionD.csv,"BACKWARD RL VERSION C",NEW,LOVE,AFFECTION,ON2,B,115,119,Test,User,-,,Recall,Recall1,3006,,0,-1,-1,0,0,,,1
w10056018mw,u9hwjmbwdc,Emily_Honors_Thesis_Part_2,1,139,2020-08-19T10:08:04-07:00,3.6913850307465,23,versionC_stim_BACKWARD.csv,BACKWARD_RL_JOLVersionD.csv,"BACKWARD RL VERSION C",NEW,FICTION,LISTEN,ON2,U,164,136,Test,User,-,,Recall,Recall1,3335,read,20,1905,2511,0,0,,,1
w10056018mw,u9hwjmbwdc,Emily_Honors_Thesis_Part_2,1,140,2020-08-19T10:08:13-07:00,8.930967092514,23,versionC_stim_BACKWARD.csv,BACKWARD_RL_JOLVersionD.csv,"BACKWARD RL VERSION C",NEW,DONKEY,MULE,ON2,B,108,153,Test,User,-,,Recall,Recall1,8653,mule,100,6910,7953,1,1,,,1
w10056018mw,u9hwjmbwdc,Emily_Honors_Thesis_Part_2,1,141,2020-08-19T10:08:17-07:00,4.1910030841827,23,versionC_stim_BACKWARD.csv,BACKWARD_RL_JOLVersionD.csv,"BACKWARD RL VERSION C",NEW,TRASH,LITTER,ON2,B,103,163,Test,User,-,,Recall,Recall1,3910,litter,100,1803,3104,1,1,,,1
w10056018mw,u9hwjmbwdc,Emily_Honors_Thesis_Part_2,1,142,2020-08-19T10:08:24-07:00,6.776515007019,23,versionC_stim_BACKWARD.csv,BACKWARD_RL_JOLVersionD.csv,"BACKWARD RL VERSION C",NEW,REVENGE,EVEN,ON2,F,122,174,Test,User,-,,Recall,Recall1,6421,even,100,3384,5678,1,1,,,1
w10056018mw,u9hwjmbwdc,Emily_Honors_Thesis_Part_2,1,143,2020-08-19T10:08:26-07:00,2.5133409500122,23,versionC_stim_BACKWARD.csv,BACKWARD_RL_JOLVersionD.csv,"BACKWARD RL VERSION C",NEW,SCAR,MAIN,ON2,U,175,140,Test,User,-,,Recall,Recall1,2245,,0,-1,-1,0,0,,,1
w10056018mw,u9hwjmbwdc,Emily_Honors_Thesis_Part_2,1,144,2020-08-19T10:08:31-07:00,4.3706560134888,23,versionC_stim_BACKWARD.csv,BACKWARD_RL_JOLVersionD.csv,"BACKWARD RL VERSION C",NEW,VILLAIN,BAD,ON2,F,118,168,Test,User,-,,Recall,Recall1,4108,evil,0,2340,3388,0,0,,,1
w10056018mw,u9hwjmbwdc,Emily_Honors_Thesis_Part_2,1,145,2020-08-19T10:08:32-07:00,1.8789420127869,23,versionC_stim_BACKWARD.csv,BACKWARD_RL_JOLVersionD.csv,"BACKWARD RL VERSION C",NEW,THIMBLE,THREAD,ON2,F,121,175,Test,User,-,,Recall,Recall1,1617,,0,-1,-1,0,0,,,1
w10056018mw,u9hwjmbwdc,Emily_Honors_Thesis_Part_2,1,146,2020-08-19T10:08:38-07:00,5.4570899009705,23,versionC_stim_BACKWARD.csv,BACKWARD_RL_JOLVersionD.csv,"BACKWARD RL VERSION C",NEW,GROUND,EARTH,ON2,S,144,127,Test,User,-,,Recall,Recall1,5190,earth,100,1639,4392,1,1,,,1
w10056018mw,u9hwjmbwdc,Emily_Honors_Thesis_Part_2,1,147,2020-08-19T10:08:42-07:00,3.577700138092,23,versionC_stim_BACKWARD.csv,BACKWARD_RL_JOLVersionD.csv,"BACKWARD RL VERSION C",NEW,PENGUIN,BIRD,ON2,F,119,156,Test,User,-,,Recall,Recall1,3309,bird,100,1614,2501,1,1,,,1
w10056018mw,u9hwjmbwdc,Emily_Honors_Thesis_Part_2,1,148,2020-08-19T10:08:45-07:00,3.6949138641357,23,versionC_stim_BACKWARD.csv,BACKWARD_RL_JOLVersionD.csv,"BACKWARD RL VERSION C",NEW,WET,DRY,ON2,S,146,148,Test,User,-,,Recall,Recall1,3420,dry,100,1895,2609,1,1,,,1
w10056018mw,u9hwjmbwdc,Emily_Honors_Thesis_Part_2,1,149,2020-08-19T10:08:49-07:00,3.4044370651245,23,versionC_stim_BACKWARD.csv,BACKWARD_RL_JOLVersionD.csv,"BACKWARD RL VERSION C",NEW,SCISSORS,SHEARS,ON2,B,112,155,Test,User,-,,Recall,Recall1,3145,cut,0,1777,2445,0,0,,,1
w10056018mw,u9hwjmbwdc,Emily_Honors_Thesis_Part_2,1,150,2020-08-19T10:08:52-07:00,3.5064208507538,23,versionC_stim_BACKWARD.csv,BACKWARD_RL_JOLVersionD.csv,"BACKWARD RL VERSION C",NEW,SHAVE,RAZOR,ON2,S,136,131,Test,User,-,,Recall,Recall1,3241,,0,-1,-1,0,0,,,1
w10056018mw,u9hwjmbwdc,Emily_Honors_Thesis_Part_2,1,151,2020-08-19T10:08:57-07:00,5.2772610187531,23,versionC_stim_BACKWARD.csv,BACKWARD_RL_JOLVersionD.csv,"BACKWARD RL VERSION C",NEW,HEAD,SCALP,ON2,B,105,144,Test,User,-,,Recall,Recall1,5017,scalp,100,2199,4074,1,1,,,1
w10056018mw,u9hwjmbwdc,Emily_Honors_Thesis_Part_2,1,152,2020-08-19T10:09:02-07:00,4.7569570541382,23,versionC_stim_BACKWARD.csv,BACKWARD_RL_JOLVersionD.csv,"BACKWARD RL VERSION C",NEW,WINDSHIELD,CAR,ON2,F,117,166,Test,User,-,,Recall,Recall1,4491,car,100,2666,2944,1,1,,,1
w10056018mw,u9hwjmbwdc,Emily_Honors_Thesis_Part_2,1,153,2020-08-19T10:09:11-07:00,8.9546420574188,23,versionC_stim_BACKWARD.csv,BACKWARD_RL_JOLVersionD.csv,"BACKWARD RL VERSION C",NEW,COMMUNICATION,PHONE,ON2,S,149,122,Test,User,-,,Recall,Recall1,8691,phone,100,7067,8293,1,1,,,1
w10056018mw,u9hwjmbwdc,Emily_Honors_Thesis_Part_2,1,154,2020-08-19T10:09:21-07:00,9.7591359615326,23,versionC_stim_BACKWARD.csv,BACKWARD_RL_JOLVersionD.csv,"BACKWARD RL VERSION C",NEW,TEMPER,TANTRUM,ON2,S,154,160,Test,User,-,,Recall,Recall1,8444,"tantrum ",100,2496,7512,1,1,,,1
w10056018mw,u9hwjmbwdc,Emily_Honors_Thesis_Part_2,1,155,2020-08-19T10:09:24-07:00,3.5071649551392,23,versionC_stim_BACKWARD.csv,BACKWARD_RL_JOLVersionD.csv,"BACKWARD RL VERSION C",NEW,GAME,CLUE,ON2,B,97,165,Test,User,-,,Recall,Recall1,3160,,0,-1,-1,0,0,,,1
w10056018mw,u9hwjmbwdc,Emily_Honors_Thesis_Part_2,1,156,2020-08-19T10:09:33-07:00,8.9721231460571,23,versionC_stim_BACKWARD.csv,BACKWARD_RL_JOLVersionD.csv,"BACKWARD RL VERSION C",NEW,BANG,FUZZY,ON2,U,168,167,Test,User,-,,Recall,Recall1,8687,fuzzy,100,4644,7954,1,1,,,1
w10056018mw,u9hwjmbwdc,Emily_Honors_Thesis_Part_2,1,157,2020-08-19T10:09:38-07:00,4.3746869564056,23,versionC_stim_BACKWARD.csv,BACKWARD_RL_JOLVersionD.csv,"BACKWARD RL VERSION C",NEW,BRACELET,WRIST,ON2,S,140,158,Test,User,-,,Recall,Recall1,4103,wrist,100,2021,3480,1,1,,,1
w10056018mw,u9hwjmbwdc,Emily_Honors_Thesis_Part_2,1,158,2020-08-19T10:09:41-07:00,3.771931886673,23,versionC_stim_BACKWARD.csv,BACKWARD_RL_JOLVersionD.csv,"BACKWARD RL VERSION C",NEW,FLIP,TURN,ON2,F,116,99,Test,User,-,,Recall,Recall1,3506,flop,0,2060,2722,0,0,,,1
w10056018mw,u9hwjmbwdc,Emily_Honors_Thesis_Part_2,1,159,2020-08-19T10:09:47-07:00,5.9302899837494,23,versionC_stim_BACKWARD.csv,BACKWARD_RL_JOLVersionD.csv,"BACKWARD RL VERSION C",NEW,TRUTHFUL,HONEST,ON2,F,133,154,Test,User,-,,Recall,Recall1,5663,lie,22.222222222222,4088,5004,0,0,,,1
w10056018mw,u9hwjmbwdc,Emily_Honors_Thesis_Part_2,1,160,2020-08-19T10:09:50-07:00,2.1972291469574,23,versionC_stim_BACKWARD.csv,BACKWARD_RL_JOLVersionD.csv,"BACKWARD RL VERSION C",NEW,JOKE,KEYS,ON2,U,165,152,Test,User,-,,Recall,Recall1,1937,,0,-1,-1,0,0,,,1
w10056018mw,u9hwjmbwdc,Emily_Honors_Thesis_Part_2,1,161,2020-08-19T10:09:53-07:00,3.6587178707123,23,versionC_stim_BACKWARD.csv,BACKWARD_RL_JOLVersionD.csv,"BACKWARD RL VERSION C",NEW,JAR,MASON,ON2,S,138,141,Test,User,-,,Recall,Recall1,3387,mason,100,1666,2709,1,1,,,1
w10056018mw,u9hwjmbwdc,Emily_Honors_Thesis_Part_2,1,162,2020-08-19T10:09:56-07:00,2.7528820037842,23,versionC_stim_BACKWARD.csv,BACKWARD_RL_JOLVersionD.csv,"BACKWARD RL VERSION C",NEW,TAN,SUN,ON2,S,155,123,Test,User,-,,Recall,Recall1,2492,sun,100,1301,2042,1,1,,,1
w10056018mw,u9hwjmbwdc,Emily_Honors_Thesis_Part_2,1,163,2020-08-19T10:10:07-07:00,11.010107040405,23,versionC_stim_BACKWARD.csv,BACKWARD_RL_JOLVersionD.csv,"BACKWARD RL VERSION C",NEW,PLANT,CACTUS,ON2,B,98,103,Test,User,-,,Recall,Recall1,10560,catus,90.909090909091,1948,8534,0,1,,,1
w10056018mw,u9hwjmbwdc,Emily_Honors_Thesis_Part_2,1,164,2020-08-19T10:10:16-07:00,8.9232759475708,23,versionC_stim_BACKWARD.csv,BACKWARD_RL_JOLVersionD.csv,"BACKWARD RL VERSION C",NEW,PAPER,DOCUMENT,ON2,B,109,134,Test,User,-,,Recall,Recall1,8484,,0,-1,-1,0,0,,,1
w10056018mw,u9hwjmbwdc,Emily_Honors_Thesis_Part_2,1,165,2020-08-19T10:10:20-07:00,4.1930031776428,23,versionC_stim_BACKWARD.csv,BACKWARD_RL_JOLVersionD.csv,"BACKWARD RL VERSION C",NEW,LIE,TRUTH,ON2,S,148,97,Test,User,-,,Recall,Recall1,3779,true,66.666666666667,1878,2749,0,0,,,1
w10056018mw,u9hwjmbwdc,Emily_Honors_Thesis_Part_2,1,166,2020-08-19T10:10:31-07:00,10.677401781082,23,versionC_stim_BACKWARD.csv,BACKWARD_RL_JOLVersionD.csv,"BACKWARD RL VERSION C",NEW,COLD,CHILL,ON2,B,114,159,Test,User,-,,Recall,Recall1,10398,chill,100,4903,9266,1,1,,,1
w10056018mw,u9hwjmbwdc,Emily_Honors_Thesis_Part_2,1,167,2020-08-19T10:10:36-07:00,5.0457010269165,23,versionC_stim_BACKWARD.csv,BACKWARD_RL_JOLVersionD.csv,"BACKWARD RL VERSION C",NEW,EQUAL,RIGHTS,ON2,S,137,111,Test,User,-,,Recall,Recall1,4458,rights,100,2429,4146,1,1,,,1
w10056018mw,u9hwjmbwdc,Emily_Honors_Thesis_Part_2,1,168,2020-08-19T10:10:39-07:00,3.3983809947968,23,versionC_stim_BACKWARD.csv,BACKWARD_RL_JOLVersionD.csv,"BACKWARD RL VERSION C",NEW,FAVORITE,BEST,ON2,F,125,145,Test,User,-,,Recall,Recall1,3123,best,100,1441,2358,1,1,,,1
w10056018mw,u9hwjmbwdc,Emily_Honors_Thesis_Part_2,1,169,2020-08-19T10:10:43-07:00,3.2637600898743,23,versionC_stim_BACKWARD.csv,BACKWARD_RL_JOLVersionD.csv,"BACKWARD RL VERSION C",NEW,CLEAR,MOAT,ON2,U,169,108,Test,User,-,,Recall,Recall1,2997,,0,-1,-1,0,0,,,1
w10056018mw,u9hwjmbwdc,Emily_Honors_Thesis_Part_2,1,170,2020-08-19T10:10:48-07:00,4.9946959018707,23,versionC_stim_BACKWARD.csv,BACKWARD_RL_JOLVersionD.csv,"BACKWARD RL VERSION C",NEW,CLOTH,STRETCH,ON2,U,157,110,Test,User,-,,Recall,Recall1,4736,stretch,100,1519,3811,1,1,,,1
w10056018mw,u9hwjmbwdc,Emily_Honors_Thesis_Part_2,1,171,2020-08-19T10:10:51-07:00,3.7043740749359,23,versionC_stim_BACKWARD.csv,BACKWARD_RL_JOLVersionD.csv,"BACKWARD RL VERSION C",NEW,EAT,DINE,ON2,B,111,157,Test,User,-,,Recall,Recall1,3436,diner,88.888888888889,1603,2780,0,1,,,1
w10056018mw,u9hwjmbwdc,Emily_Honors_Thesis_Part_2,1,172,2020-08-19T10:10:53-07:00,1.9651939868927,23,versionC_stim_BACKWARD.csv,BACKWARD_RL_JOLVersionD.csv,"BACKWARD RL VERSION C",NEW,ABLE,CRACKLE,ON2,U,162,147,Test,User,-,,Recall,Recall1,1694,,0,-1,-1,0,0,,,1
w10056018mw,u9hwjmbwdc,Emily_Honors_Thesis_Part_2,1,173,2020-08-19T10:10:57-07:00,3.8309600353241,23,versionC_stim_BACKWARD.csv,BACKWARD_RL_JOLVersionD.csv,"BACKWARD RL VERSION C",NEW,BREAKABLE,GLASS,ON2,F,127,142,Test,User,-,,Recall,Recall1,3561,glass,100,1677,2909,1,1,,,1
w10056018mw,u9hwjmbwdc,Emily_Honors_Thesis_Part_2,1,174,2020-08-19T10:11:03-07:00,6.3793039321899,23,versionC_stim_BACKWARD.csv,BACKWARD_RL_JOLVersionD.csv,"BACKWARD RL VERSION C",NEW,COFFIN,DEAD,ON2,F,128,151,Test,User,-,,Recall,Recall1,6116,dead,100,2894,5397,1,1,,,1
w10056018mw,u9hwjmbwdc,Emily_Honors_Thesis_Part_2,1,175,2020-08-19T10:11:07-07:00,3.6369180679321,23,versionC_stim_BACKWARD.csv,BACKWARD_RL_JOLVersionD.csv,"BACKWARD RL VERSION C",NEW,OBTAIN,MEAT,ON2,U,161,117,Test,User,-,,Recall,Recall1,3367,,0,-1,-1,0,0,,,1
w10056018mw,u9hwjmbwdc,Emily_Honors_Thesis_Part_2,1,176,2020-08-19T10:11:11-07:00,4.409068107605,23,versionC_stim_BACKWARD.csv,BACKWARD_RL_JOLVersionD.csv,"BACKWARD RL VERSION C",NEW,RED,CHERRY,ON2,B,104,143,Test,User,-,,Recall,Recall1,4144,cherry,100,1955,3353,1,1,,,1
w10056018mw,u9hwjmbwdc,Emily_Honors_Thesis_Part_2,1,177,2020-08-19T10:11:15-07:00,3.9426939487457,23,versionC_stim_BACKWARD.csv,BACKWARD_RL_JOLVersionD.csv,"BACKWARD RL VERSION C",NEW,OUNCE,BOTH,ON2,U,172,164,Test,User,-,,Recall,Recall1,3671,both,100,1934,2962,1,1,,,1
w10056018mw,u9hwjmbwdc,Emily_Honors_Thesis_Part_2,1,178,2020-08-19T10:11:20-07:00,4.1655149459839,23,versionC_stim_BACKWARD.csv,BACKWARD_RL_JOLVersionD.csv,"BACKWARD RL VERSION C",NEW,CUT,CHOP,ON2,B,107,132,Test,User,-,,Recall,Recall1,3912,,0,-1,-1,0,0,,,1
w10056018mw,u9hwjmbwdc,Emily_Honors_Thesis_Part_2,1,179,2020-08-19T10:11:24-07:00,4.3358619213104,23,versionC_stim_BACKWARD.csv,BACKWARD_RL_JOLVersionD.csv,"BACKWARD RL VERSION C",NEW,SMELL,INCENSE,ON2,B,110,137,Test,User,-,,Recall,Recall1,4075,,0,-1,-1,0,0,,,1
w10056018mw,u9hwjmbwdc,Emily_Honors_Thesis_Part_2,1,180,2020-08-19T10:11:29-07:00,4.7541630268097,23,versionC_stim_BACKWARD.csv,BACKWARD_RL_JOLVersionD.csv,"BACKWARD RL VERSION C",NEW,SEATBELT,SAFETY,ON2,S,147,102,Test,User,-,,Recall,Recall1,4365,safety,100,1739,3690,1,1,,,1
w10056018mw,u9hwjmbwdc,Emily_Honors_Thesis_Part_2,1,181,2020-08-19T10:11:31-07:00,1.9930021762848,23,versionC_stim_BACKWARD.csv,BACKWARD_RL_JOLVersionD.csv,"BACKWARD RL VERSION C",NEW,CHILDREN,MIRROR,ON2,U,174,120,Test,User,-,,Recall,Recall1,1713,,0,-1,-1,0,0,,,1
w10056018mw,u9hwjmbwdc,Emily_Honors_Thesis_Part_2,1,182,2020-08-19T10:11:35-07:00,3.9527728557587,23,versionC_stim_BACKWARD.csv,BACKWARD_RL_JOLVersionD.csv,"BACKWARD RL VERSION C",NEW,STRAWBERRY,FRUIT,ON2,F,124,149,Test,User,-,,Recall,Recall1,3696,fruit,100,1787,3049,1,1,,,1
w10056018mw,u9hwjmbwdc,Emily_Honors_Thesis_Part_2,1,183,2020-08-19T10:11:39-07:00,4.5555219650269,23,versionC_stim_BACKWARD.csv,BACKWARD_RL_JOLVersionD.csv,"BACKWARD RL VERSION C",NEW,FIGHT,FEUD,ON2,B,113,173,Test,User,-,,Recall,Recall1,4288,,0,-1,-1,0,0,,,1
w10056018mw,u9hwjmbwdc,Emily_Honors_Thesis_Part_2,1,184,2020-08-19T10:11:50-07:00,10.683794975281,23,versionC_stim_BACKWARD.csv,BACKWARD_RL_JOLVersionD.csv,"BACKWARD RL VERSION C",NEW,MORNING,TEMPERATURE,ON2,U,173,113,Test,User,-,,Recall,Recall1,10431,"Tempture ",84.210526315789,2048,7801,0,1,,,1
w10056018mw,u9hwjmbwdc,Emily_Honors_Thesis_Part_2,1,185,2020-08-19T10:11:55-07:00,4.8702251911163,23,versionC_stim_BACKWARD.csv,BACKWARD_RL_JOLVersionD.csv,"BACKWARD RL VERSION C",NEW,BRAWL,FIGHT,ON2,F,135,139,Test,User,-,,Recall,Recall1,4612,fight,100,2657,3966,1,1,,,1
w10056018mw,u9hwjmbwdc,Emily_Honors_Thesis_Part_2,1,186,2020-08-19T10:11:58-07:00,3.1982309818268,23,versionC_stim_BACKWARD.csv,BACKWARD_RL_JOLVersionD.csv,"BACKWARD RL VERSION C",NEW,ACTRESS,STAR,ON2,F,120,100,Test,User,-,,Recall,Recall1,2919,star,100,1731,2282,1,1,,,1
w10056018mw,u9hwjmbwdc,Emily_Honors_Thesis_Part_2,1,187,2020-08-19T10:12:01-07:00,3.3032557964325,23,versionC_stim_BACKWARD.csv,BACKWARD_RL_JOLVersionD.csv,"BACKWARD RL VERSION C",NEW,LONG,EXTENSION,ON2,B,96,169,Test,User,-,,Recall,Recall1,3024,,0,-1,-1,0,0,,,1
w10056018mw,u9hwjmbwdc,Emily_Honors_Thesis_Part_2,1,188,2020-08-19T10:12:05-07:00,3.5056412220001,23,versionC_stim_BACKWARD.csv,BACKWARD_RL_JOLVersionD.csv,"BACKWARD RL VERSION C",NEW,CAR,DRIVER,ON2,B,106,130,Test,User,-,,Recall,Recall1,3245,,0,-1,-1,0,0,,,1
w10056018mw,u9hwjmbwdc,Emily_Honors_Thesis_Part_2,1,189,2020-08-19T10:12:12-07:00,7.4926879405975,23,versionC_stim_BACKWARD.csv,BACKWARD_RL_JOLVersionD.csv,"BACKWARD RL VERSION C",NEW,CARBON,ELEMENT,ON2,S,141,114,Test,User,-,,Recall,Recall1,7227,"element ",100,3063,6108,1,1,,,1
w10056018mw,u9hwjmbwdc,Emily_Honors_Thesis_Part_2,1,190,2020-08-19T10:12:15-07:00,2.9531149864197,23,versionC_stim_BACKWARD.csv,BACKWARD_RL_JOLVersionD.csv,"BACKWARD RL VERSION C",NEW,MYSTERY,DETECTIVE,ON2,B,100,146,Test,User,-,,Recall,Recall1,2688,,0,-1,-1,0,0,,,1
w10056018mw,u9hwjmbwdc,Emily_Honors_Thesis_Part_2,1,191,2020-08-19T10:12:22-07:00,6.4395098686218,23,versionC_stim_BACKWARD.csv,BACKWARD_RL_JOLVersionD.csv,"BACKWARD RL VERSION C",NEW,TICK,FLEA,ON2,S,151,161,Test,User,-,,Recall,Recall1,6169,flea,100,3711,5220,1,1,,,1
w10056018mw,u9hwjmbwdc,Emily_Honors_Thesis_Part_2,1,192,2020-08-19T10:12:24-07:00,2.1114711761475,23,versionC_stim_BACKWARD.csv,BACKWARD_RL_JOLVersionD.csv,"BACKWARD RL VERSION C",NEW,CHARM,VEHICLE,ON2,U,160,171,Test,User,-,,Recall,Recall1,1849,,0,-1,-1,0,0,,,1
w10056018mw,u9hwjmbwdc,Emily_Honors_Thesis_Part_2,1,193,2020-08-19T10:12:26-07:00,2.7547190189362,23,versionC_stim_BACKWARD.csv,BACKWARD_RL_JOLVersionD.csv,"BACKWARD RL VERSION C",NEW,STEAK,GIVE,ON2,U,158,126,Test,User,-,,Recall,Recall1,2488,,0,-1,-1,0,0,,,1
w10056018mw,u9hwjmbwdc,Emily_Honors_Thesis_Part_2,1,194,2020-08-19T10:12:30-07:00,3.6305079460144,23,versionC_stim_BACKWARD.csv,BACKWARD_RL_JOLVersionD.csv,"BACKWARD RL VERSION C",NEW,DRINK,WATER,ON2,S,143,128,Test,User,-,,Recall,Recall1,3364,water,100,1800,2703,1,1,,,1
w10056018mw,u9hwjmbwdc,Emily_Honors_Thesis_Part_2,1,195,2020-08-19T10:12:33-07:00,2.8544728755951,23,versionC_stim_BACKWARD.csv,BACKWARD_RL_JOLVersionD.csv,"BACKWARD RL VERSION C",NEW,,,,,,0,Instruct,User,-,"You have completed this section. Please press Enter.",Filler_Instruction,Instruct31,2589,,,-1,-1,,,,,1
w10056018mw,u9hwjmbwdc,Emily_Honors_Thesis_Part_2,1,196,2020-08-19T10:12:54-07:00,20.882626056671,23,versionC_stim_BACKWARD.csv,BACKWARD_RL_JOLVersionD.csv,"BACKWARD RL VERSION C",NEW,,,,,,0,Instruct,-,12,"The order that words are presented in can affect how well you remember them. For example, the pairs CREDIT-CARD and CARD-CREDIT both have the same words, but people are less likely to remember CARD-CREDIT because the order is uncommon. On the next screen you will be shown a graph illustrating this finding. Please study it for at least 20 seconds.",,BACKWARD_INSTRUCTIONS1,20613,,,-1,-1,,,,,1
w10056018mw,u9hwjmbwdc,Emily_Honors_Thesis_Part_2,1,197,2020-08-19T10:13:25-07:00,31.302011013031,23,versionC_stim_BACKWARD.csv,BACKWARD_RL_JOLVersionD.csv,"BACKWARD RL VERSION C",NEW,images/Sample.jpg,"Forward pairs (CREDIT-CARD) are remembered better than Backward pairs (CARD-CREDIT) and Symmetrical pairs (KING-QUEEN), even though people rate their ability to remember them the same way. Please keep this in mind as you make your ratings!",,,,192,StudyPic,-,20,,,GRAPH1,31016,,,-1,-1,,,,,1
w10056018mw,u9hwjmbwdc,Emily_Honors_Thesis_Part_2,1,198,2020-08-19T10:13:42-07:00,17.059699058533,23,versionC_stim_BACKWARD.csv,BACKWARD_RL_JOLVersionD.csv,"BACKWARD RL VERSION C",NEW,,,,,,0,FreeRecall,-,10,"Based on the graph you just studied, what pair type is best remembered (Forward, Backward, or Symmetrical)?",,BACKWARD_INSTRUCTIONS2,16794,"forward ",0,7271,9863,0,0,,,1
w10056018mw,u9hwjmbwdc,Emily_Honors_Thesis_Part_2,1,199,2020-08-19T10:14:02-07:00,20.032254934311,23,versionC_stim_BACKWARD.csv,BACKWARD_RL_JOLVersionD.csv,"BACKWARD RL VERSION C",NEW,,,,,,0,Instruct,-,10,"You will now be presented with a new set of word pairs. Please study each pair. Remember that your memory will be tested! When finished, press Enter to move to the next pair.",Initial_Instruct,Instruct4,19767,,,-1,-1,,,,,1
w10056018mw,u9hwjmbwdc,Emily_Honors_Thesis_Part_2,1,200,2020-08-19T10:14:16-07:00,13.918966054916,23,versionC_stim_BACKWARD.csv,BACKWARD_RL_JOLVersionD.csv,"BACKWARD RL VERSION C",NEW,,,,,,0,Instruct,,10,"You will again be asked to rate your ability to remember these items using a 0 to 100 scale. Remember to use the full range of the scale!",,Instruct10,13655,,,-1,-1,,,,,1
w10056018mw,u9hwjmbwdc,Emily_Honors_Thesis_Part_2,1,201,2020-08-19T10:14:33-07:00,17.005609035492,23,versionC_stim_BACKWARD.csv,BACKWARD_RL_JOLVersionD.csv,"BACKWARD RL VERSION C",NEW,,,,,,0,Instruct,-,15,"As you study and make your ratings, please think about how the two concepts are RELATED to each other. For example, if you see the pair TURTLE-CAT, think about how both are alive, they are both animals, and both can be kept as pets.",,Instruct20,16739,,,-1,-1,,,,,1
w10056018mw,u9hwjmbwdc,Emily_Honors_Thesis_Part_2,1,202,2020-08-19T10:14:47-07:00,13.478284835815,23,versionC_stim_BACKWARD.csv,BACKWARD_RL_JOLVersionD.csv,"BACKWARD RL VERSION C",NEW,,,,,,0,FreeRecall,-,10,"What you should think about as you study each item pair? Type your response in the box below.",,CHECK4,13210,"how the relate ",0,3862,7348,0,0,,,1
w10056018mw,u9hwjmbwdc,Emily_Honors_Thesis_Part_2,1,203,2020-08-19T10:14:50-07:00,3.4219610691071,23,versionC_stim_BACKWARD.csv,BACKWARD_RL_JOLVersionD.csv,"BACKWARD RL VERSION C",NEW,,,,,,0,Instruct,User,-,"Press Enter when you are readty to begin",,Instruct11,3162,,,-1,-1,,,,,1
w10056018mw,u9hwjmbwdc,Emily_Honors_Thesis_Part_2,1,204,2020-08-19T10:14:56-07:00,6.0964589118958,23,versionC_stim_BACKWARD.csv,BACKWARD_RL_JOLVersionD.csv,"BACKWARD RL VERSION C",NEW,BUTTER,PEANUT,Buffer,Buffer,3,3,JOL,User,-,"How likely are you to correctly recall the second item in the pair?|Type your response on a scale from 0-100 and then press Enter.",Study/JOL,BUFFER3,5824,,,4997,5139,,,,90,1
w10056018mw,u9hwjmbwdc,Emily_Honors_Thesis_Part_2,1,205,2020-08-19T10:15:04-07:00,7.3984711170197,23,versionC_stim_BACKWARD.csv,BACKWARD_RL_JOLVersionD.csv,"BACKWARD RL VERSION C",NEW,JAM,SPACE,Buffer,Buffer,5,4,JOL,User,-,"How likely are you to correctly recall the second item in the pair?|Type your response on a scale from 0-100 and then press Enter.",Study/JOL,BUFFER3,7140,,,6318,6489,,,,90,1
w10056018mw,u9hwjmbwdc,Emily_Honors_Thesis_Part_2,1,206,2020-08-19T10:15:09-07:00,5.4305529594421,23,versionC_stim_BACKWARD.csv,BACKWARD_RL_JOLVersionD.csv,"BACKWARD RL VERSION C",NEW,GREEN,TREES,Buffer,Buffer,1,6,JOL,User,-,"How likely are you to correctly recall the second item in the pair?|Type your response on a scale from 0-100 and then press Enter.",Study/JOL,BUFFER3,5162,,,4047,4480,,,,100,1
w10056018mw,u9hwjmbwdc,Emily_Honors_Thesis_Part_2,1,207,2020-08-19T10:15:14-07:00,4.8895120620728,23,versionC_stim_BACKWARD.csv,BACKWARD_RL_JOLVersionD.csv,"BACKWARD RL VERSION C",NEW,HIDE,SCARE,Buffer,Buffer,4,2,JOL,User,-,"How likely are you to correctly recall the second item in the pair?|Type your response on a scale from 0-100 and then press Enter.",Study/JOL,BUFFER3,4619,,,3729,3907,,,,90,1
w10056018mw,u9hwjmbwdc,Emily_Honors_Thesis_Part_2,1,208,2020-08-19T10:15:18-07:00,3.9880080223083,23,versionC_stim_BACKWARD.csv,BACKWARD_RL_JOLVersionD.csv,"BACKWARD RL VERSION C",NEW,CATCHER,BASEBALL,Buffer,Buffer,2,5,JOL,User,-,"How likely are you to correctly recall the second item in the pair?|Type your response on a scale from 0-100 and then press Enter.",Study/JOL,BUFFER3,3719,,,2366,2871,,,,100,1
w10056018mw,u9hwjmbwdc,Emily_Honors_Thesis_Part_2,1,209,2020-08-19T10:15:22-07:00,3.8818819522858,23,versionC_stim_BACKWARD.csv,BACKWARD_RL_JOLVersionD.csv,"BACKWARD RL VERSION C",NEW,ENOUGH,FULL,ON,F,26,56,JOL,User,-,"How likely are you to correctly recall the second item in the pair?|Type your response on a scale from 0-100 and then press Enter.",Study/JOL,"Study Phase2",3610,,,2463,2948,,,,100,1
w10056018mw,u9hwjmbwdc,Emily_Honors_Thesis_Part_2,1,210,2020-08-19T10:15:27-07:00,5.3335399627686,23,versionC_stim_BACKWARD.csv,BACKWARD_RL_JOLVersionD.csv,"BACKWARD RL VERSION C",NEW,BRONZE,ARTERY,ON,U,74,83,JOL,User,-,"How likely are you to correctly recall the second item in the pair?|Type your response on a scale from 0-100 and then press Enter.",Study/JOL,"Study Phase2",5063,,,3978,4409,,,,50,1
w10056018mw,u9hwjmbwdc,Emily_Honors_Thesis_Part_2,1,211,2020-08-19T10:15:31-07:00,4.0887489318848,23,versionC_stim_BACKWARD.csv,BACKWARD_RL_JOLVersionD.csv,"BACKWARD RL VERSION C",NEW,WIND,BLOW,ON,S,55,80,JOL,User,-,"How likely are you to correctly recall the second item in the pair?|Type your response on a scale from 0-100 and then press Enter.",Study/JOL,"Study Phase2",3819,,,2856,3223,,,,100,1
w10056018mw,u9hwjmbwdc,Emily_Honors_Thesis_Part_2,1,212,2020-08-19T10:15:35-07:00,4.0232751369476,23,versionC_stim_BACKWARD.csv,BACKWARD_RL_JOLVersionD.csv,"BACKWARD RL VERSION C",NEW,ATTIRE,CLOTHES,ON,F,43,64,JOL,User,-,"How likely are you to correctly recall the second item in the pair?|Type your response on a scale from 0-100 and then press Enter.",Study/JOL,"Study Phase2",3758,,,2978,3118,,,,90,1
w10056018mw,u9hwjmbwdc,Emily_Honors_Thesis_Part_2,1,213,2020-08-19T10:15:38-07:00,3.2393889427185,23,versionC_stim_BACKWARD.csv,BACKWARD_RL_JOLVersionD.csv,"BACKWARD RL VERSION C",NEW,DROWSY,SLEEP,ON,F,41,58,JOL,User,-,"How likely are you to correctly recall the second item in the pair?|Type your response on a scale from 0-100 and then press Enter.",Study/JOL,"Study Phase2",2971,,,1887,2364,,,,100,1
w10056018mw,u9hwjmbwdc,Emily_Honors_Thesis_Part_2,1,214,2020-08-19T10:15:43-07:00,4.809366941452,23,versionC_stim_BACKWARD.csv,BACKWARD_RL_JOLVersionD.csv,"BACKWARD RL VERSION C",NEW,FAMINE,HUNGER,ON,F,40,54,JOL,User,-,"How likely are you to correctly recall the second item in the pair?|Type your response on a scale from 0-100 and then press Enter.",Study/JOL,"Study Phase2",4552,,,3759,3902,,,,90,1
w10056018mw,u9hwjmbwdc,Emily_Honors_Thesis_Part_2,1,215,2020-08-19T10:15:46-07:00,2.965371131897,23,versionC_stim_BACKWARD.csv,BACKWARD_RL_JOLVersionD.csv,"BACKWARD RL VERSION C",NEW,FISH,TUNA,ON,B,25,22,JOL,User,-,"How likely are you to correctly recall the second item in the pair?|Type your response on a scale from 0-100 and then press Enter.",Study/JOL,"Study Phase2",2705,,,1470,2029,,,,100,1
w10056018mw,u9hwjmbwdc,Emily_Honors_Thesis_Part_2,1,216,2020-08-19T10:15:52-07:00,5.6833720207214,23,versionC_stim_BACKWARD.csv,BACKWARD_RL_JOLVersionD.csv,"BACKWARD RL VERSION C",NEW,ACCIDENT,STRONG,ON,U,80,82,JOL,User,-,"How likely are you to correctly recall the second item in the pair?|Type your response on a scale from 0-100 and then press Enter.",Study/JOL,"Study Phase2",5421,,,4188,4683,,,,70,1
w10056018mw,u9hwjmbwdc,Emily_Honors_Thesis_Part_2,1,217,2020-08-19T10:15:57-07:00,4.735916852951,23,versionC_stim_BACKWARD.csv,BACKWARD_RL_JOLVersionD.csv,"BACKWARD RL VERSION C",NEW,BAD,DELINQUENT,ON,B,6,59,JOL,User,-,"How likely are you to correctly recall the second item in the pair?|Type your response on a scale from 0-100 and then press Enter.",Study/JOL,"Study Phase2",4470,,,2889,3289,,,,40,1
w10056018mw,u9hwjmbwdc,Emily_Honors_Thesis_Part_2,1,218,2020-08-19T10:16:02-07:00,5.1201641559601,23,versionC_stim_BACKWARD.csv,BACKWARD_RL_JOLVersionD.csv,"BACKWARD RL VERSION C",NEW,ROCK,GEOLOGY,ON,B,19,23,JOL,User,-,"How likely are you to correctly recall the second item in the pair?|Type your response on a scale from 0-100 and then press Enter.",Study/JOL,"Study Phase2",4854,,,3814,4238,,,,80,1
w10056018mw,u9hwjmbwdc,Emily_Honors_Thesis_Part_2,1,219,2020-08-19T10:16:07-07:00,5.3439588546753,23,versionC_stim_BACKWARD.csv,BACKWARD_RL_JOLVersionD.csv,"BACKWARD RL VERSION C",NEW,VASE,KING,ON,U,85,40,JOL,User,-,"How likely are you to correctly recall the second item in the pair?|Type your response on a scale from 0-100 and then press Enter.",Study/JOL,"Study Phase2",5082,,,4080,4393,,,,30,1
w10056018mw,u9hwjmbwdc,Emily_Honors_Thesis_Part_2,1,220,2020-08-19T10:16:13-07:00,5.8461151123047,23,versionC_stim_BACKWARD.csv,BACKWARD_RL_JOLVersionD.csv,"BACKWARD RL VERSION C",NEW,CLUTTER,PUSHER,ON,U,66,43,JOL,User,-,"How likely are you to correctly recall the second item in the pair?|Type your response on a scale from 0-100 and then press Enter.",Study/JOL,"Study Phase2",5584,,,4462,4808,,,,60,1
w10056018mw,u9hwjmbwdc,Emily_Honors_Thesis_Part_2,1,221,2020-08-19T10:16:17-07:00,3.7210719585419,23,versionC_stim_BACKWARD.csv,BACKWARD_RL_JOLVersionD.csv,"BACKWARD RL VERSION C",NEW,CAR,HAPPY,ON,U,77,14,JOL,User,-,"How likely are you to correctly recall the second item in the pair?|Type your response on a scale from 0-100 and then press Enter.",Study/JOL,"Study Phase2",3453,,,2344,2752,,,,80,1
w10056018mw,u9hwjmbwdc,Emily_Honors_Thesis_Part_2,1,222,2020-08-19T10:16:21-07:00,4.4107871055603,23,versionC_stim_BACKWARD.csv,BACKWARD_RL_JOLVersionD.csv,"BACKWARD RL VERSION C",NEW,BLAZE,FIRE,ON,F,45,27,JOL,User,-,"How likely are you to correctly recall the second item in the pair?|Type your response on a scale from 0-100 and then press Enter.",Study/JOL,"Study Phase2",4142,,,3407,3535,,,,90,1
w10056018mw,u9hwjmbwdc,Emily_Honors_Thesis_Part_2,1,223,2020-08-19T10:16:24-07:00,2.8513197898865,23,versionC_stim_BACKWARD.csv,BACKWARD_RL_JOLVersionD.csv,"BACKWARD RL VERSION C",NEW,WORD,SENTENCE,ON,F,31,84,JOL,User,-,"How likely are you to correctly recall the second item in the pair?|Type your response on a scale from 0-100 and then press Enter.",Study/JOL,"Study Phase2",2580,,,1858,1991,,,,90,1
w10056018mw,u9hwjmbwdc,Emily_Honors_Thesis_Part_2,1,224,2020-08-19T10:16:27-07:00,3.2371320724487,23,versionC_stim_BACKWARD.csv,BACKWARD_RL_JOLVersionD.csv,"BACKWARD RL VERSION C",NEW,COW,HERD,ON,B,22,18,JOL,User,-,"How likely are you to correctly recall the second item in the pair?|Type your response on a scale from 0-100 and then press Enter.",Study/JOL,"Study Phase2",2977,,,1784,2432,,,,100,1
w10056018mw,u9hwjmbwdc,Emily_Honors_Thesis_Part_2,1,225,2020-08-19T10:16:33-07:00,5.6753630638123,23,versionC_stim_BACKWARD.csv,BACKWARD_RL_JOLVersionD.csv,"BACKWARD RL VERSION C",NEW,WOULD,CASH,ON,U,83,86,JOL,User,-,"How likely are you to correctly recall the second item in the pair?|Type your response on a scale from 0-100 and then press Enter.",Study/JOL,"Study Phase2",5411,,,3974,4735,,,,50,1
w10056018mw,u9hwjmbwdc,Emily_Honors_Thesis_Part_2,1,226,2020-08-19T10:16:41-07:00,8.3376910686493,23,versionC_stim_BACKWARD.csv,BACKWARD_RL_JOLVersionD.csv,"BACKWARD RL VERSION C",NEW,STING,HORNET,ON,B,11,34,JOL,User,-,"How likely are you to correctly recall the second item in the pair?|Type your response on a scale from 0-100 and then press Enter.",Study/JOL,"Study Phase2",8070,,,7178,7358,,,,80,1
w10056018mw,u9hwjmbwdc,Emily_Honors_Thesis_Part_2,1,227,2020-08-19T10:16:59-07:00,18.002265930176,23,versionC_stim_BACKWARD.csv,BACKWARD_RL_JOLVersionD.csv,"BACKWARD RL VERSION C",NEW,BUSINESS,DEATH,ON,U,72,45,JOL,User,-,"How likely are you to correctly recall the second item in the pair?|Type your response on a scale from 0-100 and then press Enter.",Study/JOL,"Study Phase2",17735,,,16734,17053,,,,20,1
w10056018mw,u9hwjmbwdc,Emily_Honors_Thesis_Part_2,1,228,2020-08-19T10:17:03-07:00,3.6267330646515,23,versionC_stim_BACKWARD.csv,BACKWARD_RL_JOLVersionD.csv,"BACKWARD RL VERSION C",NEW,STOMACH,DIGESTION,ON,B,7,8,JOL,User,-,"How likely are you to correctly recall the second item in the pair?|Type your response on a scale from 0-100 and then press Enter.",Study/JOL,"Study Phase2",3367,,,2484,2734,,,,80,1
w10056018mw,u9hwjmbwdc,Emily_Honors_Thesis_Part_2,1,229,2020-08-19T10:17:08-07:00,4.7440738677979,23,versionC_stim_BACKWARD.csv,BACKWARD_RL_JOLVersionD.csv,"BACKWARD RL VERSION C",NEW,FUTURE,PAST,ON,S,61,47,JOL,User,-,"How likely are you to correctly recall the second item in the pair?|Type your response on a scale from 0-100 and then press Enter.",Study/JOL,"Study Phase2",4469,,,3626,3799,,,,80,1
w10056018mw,u9hwjmbwdc,Emily_Honors_Thesis_Part_2,1,230,2020-08-19T10:17:16-07:00,8.753937959671,23,versionC_stim_BACKWARD.csv,BACKWARD_RL_JOLVersionD.csv,"BACKWARD RL VERSION C",NEW,AMOUNT,NUMBER,ON,S,47,78,JOL,User,-,"How likely are you to correctly recall the second item in the pair?|Type your response on a scale from 0-100 and then press Enter.",Study/JOL,"Study Phase2",8484,,,7732,7880,,,,70,1
w10056018mw,u9hwjmbwdc,Emily_Honors_Thesis_Part_2,1,231,2020-08-19T10:17:21-07:00,4.6027541160583,23,versionC_stim_BACKWARD.csv,BACKWARD_RL_JOLVersionD.csv,"BACKWARD RL VERSION C",NEW,SICK,HIDE,ON,U,84,66,JOL,User,-,"How likely are you to correctly recall the second item in the pair?|Type your response on a scale from 0-100 and then press Enter.",Study/JOL,"Study Phase2",4329,,,3053,3727,,,,40,1
w10056018mw,u9hwjmbwdc,Emily_Honors_Thesis_Part_2,1,232,2020-08-19T10:17:24-07:00,3.1971158981323,23,versionC_stim_BACKWARD.csv,BACKWARD_RL_JOLVersionD.csv,"BACKWARD RL VERSION C",NEW,CLEAN,HYGIENE,ON,B,17,48,JOL,User,-,"How likely are you to correctly recall the second item in the pair?|Type your response on a scale from 0-100 and then press Enter.",Study/JOL,"Study Phase2",2936,,,2150,2301,,,,90,1
w10056018mw,u9hwjmbwdc,Emily_Honors_Thesis_Part_2,1,233,2020-08-19T10:17:27-07:00,2.6781430244446,23,versionC_stim_BACKWARD.csv,BACKWARD_RL_JOLVersionD.csv,"BACKWARD RL VERSION C",NEW,LIVER,KIDNEY,ON,S,53,9,JOL,User,-,"How likely are you to correctly recall the second item in the pair?|Type your response on a scale from 0-100 and then press Enter.",Study/JOL,"Study Phase2",2408,,,1670,1800,,,,90,1
w10056018mw,u9hwjmbwdc,Emily_Honors_Thesis_Part_2,1,234,2020-08-19T10:17:31-07:00,3.7505970001221,23,versionC_stim_BACKWARD.csv,BACKWARD_RL_JOLVersionD.csv,"BACKWARD RL VERSION C",NEW,ASSIGNMENT,DUE,ON,S,46,60,JOL,User,-,"How likely are you to correctly recall the second item in the pair?|Type your response on a scale from 0-100 and then press Enter.",Study/JOL,"Study Phase2",3483,,,2779,2909,,,,90,1
w10056018mw,u9hwjmbwdc,Emily_Honors_Thesis_Part_2,1,235,2020-08-19T10:17:33-07:00,2.6256029605865,23,versionC_stim_BACKWARD.csv,BACKWARD_RL_JOLVersionD.csv,"BACKWARD RL VERSION C",NEW,DOG,PAW,ON,B,15,73,JOL,User,-,"How likely are you to correctly recall the second item in the pair?|Type your response on a scale from 0-100 and then press Enter.",Study/JOL,"Study Phase2",2356,,,1324,1713,,,,100,1
w10056018mw,u9hwjmbwdc,Emily_Honors_Thesis_Part_2,1,236,2020-08-19T10:17:37-07:00,4.0078580379486,23,versionC_stim_BACKWARD.csv,BACKWARD_RL_JOLVersionD.csv,"BACKWARD RL VERSION C",NEW,SIGHT,DEBATE,ON,U,73,71,JOL,User,-,"How likely are you to correctly recall the second item in the pair?|Type your response on a scale from 0-100 and then press Enter.",Study/JOL,"Study Phase2",3738,,,2658,3129,,,,40,1
w10056018mw,u9hwjmbwdc,Emily_Honors_Thesis_Part_2,1,237,2020-08-19T10:17:40-07:00,3.1820030212402,23,versionC_stim_BACKWARD.csv,BACKWARD_RL_JOLVersionD.csv,"BACKWARD RL VERSION C",NEW,LATCH,KEY,ON,F,36,25,JOL,User,-,"How likely are you to correctly recall the second item in the pair?|Type your response on a scale from 0-100 and then press Enter.",Study/JOL,"Study Phase2",2915,,,2071,2240,,,,80,1
w10056018mw,u9hwjmbwdc,Emily_Honors_Thesis_Part_2,1,238,2020-08-19T10:17:44-07:00,3.799026966095,23,versionC_stim_BACKWARD.csv,BACKWARD_RL_JOLVersionD.csv,"BACKWARD RL VERSION C",NEW,ADD,VALLEY,ON,U,82,7,JOL,User,-,"How likely are you to correctly recall the second item in the pair?|Type your response on a scale from 0-100 and then press Enter.",Study/JOL,"Study Phase2",3524,,,2470,2870,,,,30,1
w10056018mw,u9hwjmbwdc,Emily_Honors_Thesis_Part_2,1,239,2020-08-19T10:17:47-07:00,2.915874004364,23,versionC_stim_BACKWARD.csv,BACKWARD_RL_JOLVersionD.csv,"BACKWARD RL VERSION C",NEW,SALAD,LETTUCE,ON,S,59,42,JOL,User,-,"How likely are you to correctly recall the second item in the pair?|Type your response on a scale from 0-100 and then press Enter.",Study/JOL,"Study Phase2",2646,,,1777,1933,,,,80,1
w10056018mw,u9hwjmbwdc,Emily_Honors_Thesis_Part_2,1,240,2020-08-19T10:17:51-07:00,3.8447120189667,23,versionC_stim_BACKWARD.csv,BACKWARD_RL_JOLVersionD.csv,"BACKWARD RL VERSION C",NEW,COLD,BITTER,ON,B,12,70,JOL,User,-,"How likely are you to correctly recall the second item in the pair?|Type your response on a scale from 0-100 and then press Enter.",Study/JOL,"Study Phase2",3573,,,2673,2908,,,,60,1
w10056018mw,u9hwjmbwdc,Emily_Honors_Thesis_Part_2,1,241,2020-08-19T10:17:55-07:00,4.0778031349182,23,versionC_stim_BACKWARD.csv,BACKWARD_RL_JOLVersionD.csv,"BACKWARD RL VERSION C",NEW,WOMAN,LIFT,ON,U,69,61,JOL,User,-,"How likely are you to correctly recall the second item in the pair?|Type your response on a scale from 0-100 and then press Enter.",Study/JOL,"Study Phase2",3810,,,2818,3107,,,,30,1
w10056018mw,u9hwjmbwdc,Emily_Honors_Thesis_Part_2,1,242,2020-08-19T10:17:58-07:00,2.8462278842926,23,versionC_stim_BACKWARD.csv,BACKWARD_RL_JOLVersionD.csv,"BACKWARD RL VERSION C",NEW,SIP,DRINK,ON,F,27,29,JOL,User,-,"How likely are you to correctly recall the second item in the pair?|Type your response on a scale from 0-100 and then press Enter.",Study/JOL,"Study Phase2",2587,,,1804,1965,,,,90,1
w10056018mw,u9hwjmbwdc,Emily_Honors_Thesis_Part_2,1,243,2020-08-19T10:18:01-07:00,3.4904909133911,23,versionC_stim_BACKWARD.csv,BACKWARD_RL_JOLVersionD.csv,"BACKWARD RL VERSION C",NEW,FLOWER,ORCHID,ON,B,24,19,JOL,User,-,"How likely are you to correctly recall the second item in the pair?|Type your response on a scale from 0-100 and then press Enter.",Study/JOL,"Study Phase2",3223,,,2212,2644,,,,70,1
w10056018mw,u9hwjmbwdc,Emily_Honors_Thesis_Part_2,1,244,2020-08-19T10:18:06-07:00,4.4232521057129,23,versionC_stim_BACKWARD.csv,BACKWARD_RL_JOLVersionD.csv,"BACKWARD RL VERSION C",NEW,,,,,,0,Instruct,-,3,"Remember to focus on how the two items are similiar while you study and make your ratings!",,CHECK5,4157,,,-1,-1,,,,,1
w10056018mw,u9hwjmbwdc,Emily_Honors_Thesis_Part_2,1,245,2020-08-19T10:18:10-07:00,3.9672498703003,23,versionC_stim_BACKWARD.csv,BACKWARD_RL_JOLVersionD.csv,"BACKWARD RL VERSION C",NEW,END,BEGIN,ON,S,54,41,JOL,User,-,"How likely are you to correctly recall the second item in the pair?|Type your response on a scale from 0-100 and then press Enter.",Study/JOL,"Study Phase2",3710,,,2774,2961,,,,90,1
w10056018mw,u9hwjmbwdc,Emily_Honors_Thesis_Part_2,1,246,2020-08-19T10:18:15-07:00,4.8960680961609,23,versionC_stim_BACKWARD.csv,BACKWARD_RL_JOLVersionD.csv,"BACKWARD RL VERSION C",NEW,TUCK,ALLOW,ON,U,78,35,JOL,User,-,"How likely are you to correctly recall the second item in the pair?|Type your response on a scale from 0-100 and then press Enter.",Study/JOL,"Study Phase2",4524,,,3699,3930,,,,20,1
w10056018mw,u9hwjmbwdc,Emily_Honors_Thesis_Part_2,1,247,2020-08-19T10:18:18-07:00,3.1082479953766,23,versionC_stim_BACKWARD.csv,BACKWARD_RL_JOLVersionD.csv,"BACKWARD RL VERSION C",NEW,CHILI,HOT,ON,F,37,53,JOL,User,-,"How likely are you to correctly recall the second item in the pair?|Type your response on a scale from 0-100 and then press Enter.",Study/JOL,"Study Phase2",2690,,,1921,2095,,,,90,1
w10056018mw,u9hwjmbwdc,Emily_Honors_Thesis_Part_2,1,248,2020-08-19T10:18:22-07:00,4.1364529132843,23,versionC_stim_BACKWARD.csv,BACKWARD_RL_JOLVersionD.csv,"BACKWARD RL VERSION C",NEW,WATER,BRIDGE,ON,B,18,46,JOL,User,-,"How likely are you to correctly recall the second item in the pair?|Type your response on a scale from 0-100 and then press Enter.",Study/JOL,"Study Phase2",3875,,,2992,3197,,,,80,1
w10056018mw,u9hwjmbwdc,Emily_Honors_Thesis_Part_2,1,249,2020-08-19T10:18:26-07:00,4.4772222042084,23,versionC_stim_BACKWARD.csv,BACKWARD_RL_JOLVersionD.csv,"BACKWARD RL VERSION C",NEW,BIRD,SWAN,ON,B,14,55,JOL,User,-,"How likely are you to correctly recall the second item in the pair?|Type your response on a scale from 0-100 and then press Enter.",Study/JOL,"Study Phase2",4209,,,3270,3489,,,,70,1
w10056018mw,u9hwjmbwdc,Emily_Honors_Thesis_Part_2,1,250,2020-08-19T10:18:31-07:00,4.5360379219055,23,versionC_stim_BACKWARD.csv,BACKWARD_RL_JOLVersionD.csv,"BACKWARD RL VERSION C",NEW,FLOOR,DISCOVER,ON,U,71,69,JOL,User,-,"How likely are you to correctly recall the second item in the pair?|Type your response on a scale from 0-100 and then press Enter.",Study/JOL,"Study Phase2",4277,,,3124,3550,,,,50,1
w10056018mw,u9hwjmbwdc,Emily_Honors_Thesis_Part_2,1,251,2020-08-19T10:18:36-07:00,5.1766350269318,23,versionC_stim_BACKWARD.csv,BACKWARD_RL_JOLVersionD.csv,"BACKWARD RL VERSION C",NEW,RIDDLE,SUGAR,ON,U,81,65,JOL,User,-,"How likely are you to correctly recall the second item in the pair?|Type your response on a scale from 0-100 and then press Enter.",Study/JOL,"Study Phase2",4899,,,3826,4219,,,,30,1
w10056018mw,u9hwjmbwdc,Emily_Honors_Thesis_Part_2,1,252,2020-08-19T10:18:41-07:00,4.5101189613342,23,versionC_stim_BACKWARD.csv,BACKWARD_RL_JOLVersionD.csv,"BACKWARD RL VERSION C",NEW,LION,ART,ON,U,79,10,JOL,User,-,"How likely are you to correctly recall the second item in the pair?|Type your response on a scale from 0-100 and then press Enter.",Study/JOL,"Study Phase2",4211,,,3171,3624,,,,20,1
w10056018mw,u9hwjmbwdc,Emily_Honors_Thesis_Part_2,1,253,2020-08-19T10:18:44-07:00,3.6648540496826,23,versionC_stim_BACKWARD.csv,BACKWARD_RL_JOLVersionD.csv,"BACKWARD RL VERSION C",NEW,WASP,BUG,ON,F,32,72,JOL,User,-,"How likely are you to correctly recall the second item in the pair?|Type your response on a scale from 0-100 and then press Enter.",Study/JOL,"Study Phase2",3393,,,2505,2674,,,,80,1
w10056018mw,u9hwjmbwdc,Emily_Honors_Thesis_Part_2,1,254,2020-08-19T10:18:47-07:00,2.4756388664246,23,versionC_stim_BACKWARD.csv,BACKWARD_RL_JOLVersionD.csv,"BACKWARD RL VERSION C",NEW,PLANT,ROOT,ON,B,13,75,JOL,User,-,"How likely are you to correctly recall the second item in the pair?|Type your response on a scale from 0-100 and then press Enter.",Study/JOL,"Study Phase2",2210,,,1441,1601,,,,90,1
w10056018mw,u9hwjmbwdc,Emily_Honors_Thesis_Part_2,1,255,2020-08-19T10:18:50-07:00,3.190080165863,23,versionC_stim_BACKWARD.csv,BACKWARD_RL_JOLVersionD.csv,"BACKWARD RL VERSION C",NEW,HUNGRY,PARK,ON,U,68,28,JOL,User,-,"How likely are you to correctly recall the second item in the pair?|Type your response on a scale from 0-100 and then press Enter.",Study/JOL,"Study Phase2",2915,,,1945,2262,,,,40,1
w10056018mw,u9hwjmbwdc,Emily_Honors_Thesis_Part_2,1,256,2020-08-19T10:18:53-07:00,3.4982018470764,23,versionC_stim_BACKWARD.csv,BACKWARD_RL_JOLVersionD.csv,"BACKWARD RL VERSION C",NEW,ROUND,CIRCLE,ON,S,65,16,JOL,User,-,"How likely are you to correctly recall the second item in the pair?|Type your response on a scale from 0-100 and then press Enter.",Study/JOL,"Study Phase2",3223,,,2456,2587,,,,90,1
w10056018mw,u9hwjmbwdc,Emily_Honors_Thesis_Part_2,1,257,2020-08-19T10:18:58-07:00,4.73557305336,23,versionC_stim_BACKWARD.csv,BACKWARD_RL_JOLVersionD.csv,"BACKWARD RL VERSION C",NEW,JURY,TRIAL,ON,S,50,30,JOL,User,-,"How likely are you to correctly recall the second item in the pair?|Type your response on a scale from 0-100 and then press Enter.",Study/JOL,"Study Phase2",4475,,,3043,3681,,,,100,1
w10056018mw,u9hwjmbwdc,Emily_Honors_Thesis_Part_2,1,258,2020-08-19T10:19:02-07:00,4.0907249450684,23,versionC_stim_BACKWARD.csv,BACKWARD_RL_JOLVersionD.csv,"BACKWARD RL VERSION C",NEW,DIVISION,MATH,ON,F,33,11,JOL,User,-,"How likely are you to correctly recall the second item in the pair?|Type your response on a scale from 0-100 and then press Enter.",Study/JOL,"Study Phase2",3803,,,2770,3135,,,,100,1
w10056018mw,u9hwjmbwdc,Emily_Honors_Thesis_Part_2,1,259,2020-08-19T10:19:06-07:00,3.6974329948425,23,versionC_stim_BACKWARD.csv,BACKWARD_RL_JOLVersionD.csv,"BACKWARD RL VERSION C",NEW,DESIGN,ARCHITECTURE,ON,S,51,21,JOL,User,-,"How likely are you to correctly recall the second item in the pair?|Type your response on a scale from 0-100 and then press Enter.",Study/JOL,"Study Phase2",3424,,,2611,2808,,,,80,1
w10056018mw,u9hwjmbwdc,Emily_Honors_Thesis_Part_2,1,260,2020-08-19T10:19:09-07:00,2.9417650699615,23,versionC_stim_BACKWARD.csv,BACKWARD_RL_JOLVersionD.csv,"BACKWARD RL VERSION C",NEW,CAVE,DARK,ON,F,28,32,JOL,User,-,"How likely are you to correctly recall the second item in the pair?|Type your response on a scale from 0-100 and then press Enter.",Study/JOL,"Study Phase2",2666,,,1859,2003,,,,80,1
w10056018mw,u9hwjmbwdc,Emily_Honors_Thesis_Part_2,1,261,2020-08-19T10:19:12-07:00,3.4921751022339,23,versionC_stim_BACKWARD.csv,BACKWARD_RL_JOLVersionD.csv,"BACKWARD RL VERSION C",NEW,NEWS,EDITOR,ON,B,10,13,JOL,User,-,"How likely are you to correctly recall the second item in the pair?|Type your response on a scale from 0-100 and then press Enter.",Study/JOL,"Study Phase2",3226,,,2459,2585,,,,90,1
w10056018mw,u9hwjmbwdc,Emily_Honors_Thesis_Part_2,1,262,2020-08-19T10:19:15-07:00,2.6156208515167,23,versionC_stim_BACKWARD.csv,BACKWARD_RL_JOLVersionD.csv,"BACKWARD RL VERSION C",NEW,FOOT,SHOE,ON,S,60,57,JOL,User,-,"How likely are you to correctly recall the second item in the pair?|Type your response on a scale from 0-100 and then press Enter.",Study/JOL,"Study Phase2",2339,,,1572,1739,,,,90,1
w10056018mw,u9hwjmbwdc,Emily_Honors_Thesis_Part_2,1,263,2020-08-19T10:19:19-07:00,4.3148300647736,23,versionC_stim_BACKWARD.csv,BACKWARD_RL_JOLVersionD.csv,"BACKWARD RL VERSION C",NEW,WASTE,DUMP,ON,S,49,51,JOL,User,-,"How likely are you to correctly recall the second item in the pair?|Type your response on a scale from 0-100 and then press Enter.",Study/JOL,"Study Phase2",4047,,,3358,3502,,,,90,1
w10056018mw,u9hwjmbwdc,Emily_Honors_Thesis_Part_2,1,264,2020-08-19T10:19:23-07:00,3.8789448738098,23,versionC_stim_BACKWARD.csv,BACKWARD_RL_JOLVersionD.csv,"BACKWARD RL VERSION C",NEW,HAND,FIX,ON,U,75,31,JOL,User,-,"How likely are you to correctly recall the second item in the pair?|Type your response on a scale from 0-100 and then press Enter.",Study/JOL,"Study Phase2",3606,,,2680,2884,,,,40,1
w10056018mw,u9hwjmbwdc,Emily_Honors_Thesis_Part_2,1,265,2020-08-19T10:19:27-07:00,4.2516920566559,23,versionC_stim_BACKWARD.csv,BACKWARD_RL_JOLVersionD.csv,"BACKWARD RL VERSION C",NEW,WAR,REVOLUTION,ON,B,20,63,JOL,User,-,"How likely are you to correctly recall the second item in the pair?|Type your response on a scale from 0-100 and then press Enter.",Study/JOL,"Study Phase2",3983,,,3125,3358,,,,50,1
w10056018mw,u9hwjmbwdc,Emily_Honors_Thesis_Part_2,1,266,2020-08-19T10:19:31-07:00,3.3913259506226,23,versionC_stim_BACKWARD.csv,BACKWARD_RL_JOLVersionD.csv,"BACKWARD RL VERSION C",NEW,BAR,GRILL,ON,S,52,76,JOL,User,-,"How likely are you to correctly recall the second item in the pair?|Type your response on a scale from 0-100 and then press Enter.",Study/JOL,"Study Phase2",3118,,,2061,2476,,,,100,1
w10056018mw,u9hwjmbwdc,Emily_Honors_Thesis_Part_2,1,267,2020-08-19T10:19:35-07:00,3.807765007019,23,versionC_stim_BACKWARD.csv,BACKWARD_RL_JOLVersionD.csv,"BACKWARD RL VERSION C",NEW,RACKET,BALL,ON,F,38,67,JOL,User,-,"How likely are you to correctly recall the second item in the pair?|Type your response on a scale from 0-100 and then press Enter.",Study/JOL,"Study Phase2",3539,,,2527,2943,,,,100,1
w10056018mw,u9hwjmbwdc,Emily_Honors_Thesis_Part_2,1,268,2020-08-19T10:19:39-07:00,4.3543419837952,23,versionC_stim_BACKWARD.csv,BACKWARD_RL_JOLVersionD.csv,"BACKWARD RL VERSION C",NEW,DEFINITION,MEANING,ON,S,62,17,JOL,User,-,"How likely are you to correctly recall the second item in the pair?|Type your response on a scale from 0-100 and then press Enter.",Study/JOL,"Study Phase2",4082,,,2871,3234,,,,100,1
w10056018mw,u9hwjmbwdc,Emily_Honors_Thesis_Part_2,1,269,2020-08-19T10:19:44-07:00,5.1967630386353,23,versionC_stim_BACKWARD.csv,BACKWARD_RL_JOLVersionD.csv,"BACKWARD RL VERSION C",NEW,GROWTH,HEIGHT,ON,F,30,20,JOL,User,-,"How likely are you to correctly recall the second item in the pair?|Type your response on a scale from 0-100 and then press Enter.",Study/JOL,"Study Phase2",4874,,,3873,4249,,,,100,1
w10056018mw,u9hwjmbwdc,Emily_Honors_Thesis_Part_2,1,270,2020-08-19T10:19:48-07:00,3.701033115387,23,versionC_stim_BACKWARD.csv,BACKWARD_RL_JOLVersionD.csv,"BACKWARD RL VERSION C",NEW,CHORE,WORK,ON,F,39,79,JOL,User,-,"How likely are you to correctly recall the second item in the pair?|Type your response on a scale from 0-100 and then press Enter.",Study/JOL,"Study Phase2",3425,,,2537,2686,,,,90,1
w10056018mw,u9hwjmbwdc,Emily_Honors_Thesis_Part_2,1,271,2020-08-19T10:19:53-07:00,4.8344099521637,23,versionC_stim_BACKWARD.csv,BACKWARD_RL_JOLVersionD.csv,"BACKWARD RL VERSION C",NEW,HAMMER,CHISEL,ON,B,9,85,JOL,User,-,"How likely are you to correctly recall the second item in the pair?|Type your response on a scale from 0-100 and then press Enter.",Study/JOL,"Study Phase2",4561,,,3451,3935,,,,20,1
w10056018mw,u9hwjmbwdc,Emily_Honors_Thesis_Part_2,1,272,2020-08-19T10:19:57-07:00,4.6925721168518,23,versionC_stim_BACKWARD.csv,BACKWARD_RL_JOLVersionD.csv,"BACKWARD RL VERSION C",NEW,OUT,WAY,ON,B,16,50,JOL,User,-,"How likely are you to correctly recall the second item in the pair?|Type your response on a scale from 0-100 and then press Enter.",Study/JOL,"Study Phase2",4419,,,3453,3612,,,,90,1
w10056018mw,u9hwjmbwdc,Emily_Honors_Thesis_Part_2,1,273,2020-08-19T10:20:02-07:00,4.923455953598,23,versionC_stim_BACKWARD.csv,BACKWARD_RL_JOLVersionD.csv,"BACKWARD RL VERSION C",NEW,SITE,LOCATION,ON,S,48,68,JOL,User,-,"How likely are you to correctly recall the second item in the pair?|Type your response on a scale from 0-100 and then press Enter.",Study/JOL,"Study Phase2",4650,,,2915,3088,,,,90,1
