Username,ID,ExperimentName,Session,Trial,Date,TimeDif,"Condition Number","Stimuli File","Order File","Condition Description","Condition Notes",Stimuli*Cue,Stimuli*Answer,Stimuli*Shuffle,"Stimuli*Stimuli Notes",Stimuli*Value,Procedure*Item,"Procedure*Trial Type","Procedure*Max Time","Procedure*Min Time",Procedure*Text,"Procedure*Procedure Notes",Procedure*Shuffle,Response*RT,Response*Response,Response*Accuracy,Response*RTfirst,Response*RTlast,Response*strictAcc,Response*lenientAcc,Response*focus,Response*JOL,Response*Focus
w10052154_DJM,d19w035bd3,Emily_Honors_Thesis_Part_2,1,1,2020-05-05T14:50:39-07:00,21.499977111816,2,versionA_stim.csv,READ_JOLVersionB.csv,"READ Version B",OLD,,,,,,0,Instruct,-,10,"In this section, you will be presented with a series of word pairs. As you study, you will be asked to rate your ability to remember the second item in the pair if you were only shown the first at test. You will make these ratings using a 0 to 100 Scale.",,Instruct13,21253,,,-1,-1,,,,,1
w10052154_DJM,d19w035bd3,Emily_Honors_Thesis_Part_2,1,2,2020-05-05T14:50:53-07:00,13.114361047745,2,versionA_stim.csv,READ_JOLVersionB.csv,"READ Version B",OLD,,,,,,0,Instruct,-,10,"For example, if you are given the pair CAT - DOG, a rating of 0 indicates that you would not remember DOG at test, while a rating of 100 indicates full certainty that you would remember the word DOG at test.",,Instruct14,12721,,,-1,-1,,,,,1
w10052154_DJM,d19w035bd3,Emily_Honors_Thesis_Part_2,1,3,2020-05-05T14:51:15-07:00,22.774411916733,2,versionA_stim.csv,READ_JOLVersionB.csv,"READ Version B",OLD,,,,,,0,Instruct,-,10,"When making your ratings, it is criticial that you use the full range of the scale. You will be disqualified for only giving ratings of 0 or 100! After making your rating, press Enter to advance to the next pair.",,Instruct15,22420,,,-1,-1,,,,,1
w10052154_DJM,d19w035bd3,Emily_Honors_Thesis_Part_2,1,4,2020-05-05T14:51:23-07:00,7.3247029781342,2,versionA_stim.csv,READ_JOLVersionB.csv,"READ Version B",OLD,,,,,,0,Instruct,-,5,"You will now complete a practice session. Please study the following items and rate your ability to remember them.",,Instruct17,6965,,,-1,-1,,,,,1
w10052154_DJM,d19w035bd3,Emily_Honors_Thesis_Part_2,1,5,2020-05-05T14:51:28-07:00,4.9304261207581,2,versionA_stim.csv,READ_JOLVersionB.csv,"READ Version B",OLD,CHOCOLATE,BAR,PRACTICE,PRACTICE,187,186,JOL,User,-,"How likely are you to correctly recall the second item in the pair?|Type your response on a scale from 0-100 and then press Enter.",Study/JOL,PRACTICE,4582,,,3270,3588,,,,100,1
w10052154_DJM,d19w035bd3,Emily_Honors_Thesis_Part_2,1,6,2020-05-05T14:51:33-07:00,5.1520218849182,2,versionA_stim.csv,READ_JOLVersionB.csv,"READ Version B",OLD,HINGE,SWING,PRACTICE,PRACTICE,185,189,JOL,User,-,"How likely are you to correctly recall the second item in the pair?|Type your response on a scale from 0-100 and then press Enter.",Study/JOL,PRACTICE,4792,,,4022,4181,,,,95,1
w10052154_DJM,d19w035bd3,Emily_Honors_Thesis_Part_2,1,7,2020-05-05T14:51:37-07:00,4.4286329746246,2,versionA_stim.csv,READ_JOLVersionB.csv,"READ Version B",OLD,PADDLE,ROW,PRACTICE,PRACTICE,184,187,JOL,User,-,"How likely are you to correctly recall the second item in the pair?|Type your response on a scale from 0-100 and then press Enter.",Study/JOL,PRACTICE,4059,,,3482,3609,,,,99,1
w10052154_DJM,d19w035bd3,Emily_Honors_Thesis_Part_2,1,8,2020-05-05T14:51:41-07:00,3.7559850215912,2,versionA_stim.csv,READ_JOLVersionB.csv,"READ Version B",OLD,HAM,BONE,PRACTICE,PRACTICE,183,191,JOL,User,-,"How likely are you to correctly recall the second item in the pair?|Type your response on a scale from 0-100 and then press Enter.",Study/JOL,PRACTICE,3392,,,2496,2814,,,,100,1
w10052154_DJM,d19w035bd3,Emily_Honors_Thesis_Part_2,1,9,2020-05-05T14:51:47-07:00,5.6865420341492,2,versionA_stim.csv,READ_JOLVersionB.csv,"READ Version B",OLD,CHIME,MUSIC,PRACTICE,PRACTICE,188,185,JOL,User,-,"How likely are you to correctly recall the second item in the pair?|Type your response on a scale from 0-100 and then press Enter.",Study/JOL,PRACTICE,5332,,,4946,5138,,,,80,1
w10052154_DJM,d19w035bd3,Emily_Honors_Thesis_Part_2,1,10,2020-05-05T14:51:52-07:00,4.9894120693207,2,versionA_stim.csv,READ_JOLVersionB.csv,"READ Version B",OLD,DISBELIEVE,SKEPTIC,PRACTICE,PRACTICE,186,190,JOL,User,-,"How likely are you to correctly recall the second item in the pair?|Type your response on a scale from 0-100 and then press Enter.",Study/JOL,PRACTICE,4617,,,4201,4392,,,,80,1
w10052154_DJM,d19w035bd3,Emily_Honors_Thesis_Part_2,1,11,2020-05-05T14:51:55-07:00,3.7665948867798,2,versionA_stim.csv,READ_JOLVersionB.csv,"READ Version B",OLD,DEAF,MUTE,PRACTICE,PRACTICE,182,188,JOL,User,-,"How likely are you to correctly recall the second item in the pair?|Type your response on a scale from 0-100 and then press Enter.",Study/JOL,PRACTICE,3411,,,2610,3154,,,,95,1
w10052154_DJM,d19w035bd3,Emily_Honors_Thesis_Part_2,1,12,2020-05-05T14:52:00-07:00,4.1032180786133,2,versionA_stim.csv,READ_JOLVersionB.csv,"READ Version B",OLD,AARDVARK,ZOO,PRACTICE,PRACTICE,181,184,JOL,User,-,"How likely are you to correctly recall the second item in the pair?|Type your response on a scale from 0-100 and then press Enter.",Study/JOL,PRACTICE,3730,,,3345,3536,,,,15,1
w10052154_DJM,d19w035bd3,Emily_Honors_Thesis_Part_2,1,13,2020-05-05T14:52:02-07:00,2.7583649158478,2,versionA_stim.csv,READ_JOLVersionB.csv,"READ Version B",OLD,FASHION,MODEL,PRACTICE,PRACTICE,190,182,JOL,User,-,"How likely are you to correctly recall the second item in the pair?|Type your response on a scale from 0-100 and then press Enter.",Study/JOL,PRACTICE,2408,,,1895,2215,,,,100,1
w10052154_DJM,d19w035bd3,Emily_Honors_Thesis_Part_2,1,14,2020-05-05T14:52:07-07:00,4.4778089523315,2,versionA_stim.csv,READ_JOLVersionB.csv,"READ Version B",OLD,BEHAVIOR,SOCIAL,PRACTICE,PRACTICE,189,183,JOL,User,-,"How likely are you to correctly recall the second item in the pair?|Type your response on a scale from 0-100 and then press Enter.",Study/JOL,PRACTICE,4130,,,3841,4000,,,,85,1
w10052154_DJM,d19w035bd3,Emily_Honors_Thesis_Part_2,1,15,2020-05-05T14:52:10-07:00,2.8531510829926,2,versionA_stim.csv,READ_JOLVersionB.csv,"READ Version B",OLD,,,,,,0,Instruct,User,-,"You have completed this section. Please press Enter to continue.",,Instruct18,2500,,,-1,-1,,,,,1
w10052154_DJM,d19w035bd3,Emily_Honors_Thesis_Part_2,1,16,2020-05-05T14:52:13-07:00,3.4546320438385,2,versionA_stim.csv,READ_JOLVersionB.csv,"READ Version B",OLD,,,,,,0,Instruct,User,-,"You will now begin the study. Press Enter when you are ready to begin.",,Instruct16,3098,,,-1,-1,,,,,1
w10052154_DJM,d19w035bd3,Emily_Honors_Thesis_Part_2,1,17,2020-05-05T14:52:21-07:00,8.1989409923553,2,versionA_stim.csv,READ_JOLVersionB.csv,"READ Version B",OLD,MONTH,YEAR,Buffer3,Buffer,177,96,JOL,User,-,"How likely are you to correctly recall the second item in the pair?|Type your response on a scale from 0-100 and then press Enter.",Study/JOL,BUFFER,7808,,,6848,7134,,,,100,1
w10052154_DJM,d19w035bd3,Emily_Honors_Thesis_Part_2,1,18,2020-05-05T14:52:28-07:00,6.6492309570312,2,versionA_stim.csv,READ_JOLVersionB.csv,"READ Version B",OLD,SHRIMP,FISH,Buffer3,Buffer,93,95,JOL,User,-,"How likely are you to correctly recall the second item in the pair?|Type your response on a scale from 0-100 and then press Enter.",Study/JOL,BUFFER,6299,,,5978,6170,,,,75,1
w10052154_DJM,d19w035bd3,Emily_Honors_Thesis_Part_2,1,19,2020-05-05T14:52:32-07:00,4.1022810935974,2,versionA_stim.csv,READ_JOLVersionB.csv,"READ Version B",OLD,CARROT,POTATO,Buffer3,Buffer,91,94,JOL,User,-,"How likely are you to correctly recall the second item in the pair?|Type your response on a scale from 0-100 and then press Enter.",Study/JOL,BUFFER,3728,,,3055,3438,,,,80,1
w10052154_DJM,d19w035bd3,Emily_Honors_Thesis_Part_2,1,20,2020-05-05T14:52:37-07:00,4.8161869049072,2,versionA_stim.csv,READ_JOLVersionB.csv,"READ Version B",OLD,DAYS,WEAKS,Buffer3,Buffer,176,92,JOL,User,-,"How likely are you to correctly recall the second item in the pair?|Type your response on a scale from 0-100 and then press Enter.",Study/JOL,BUFFER,4468,,,4307,4307,,,,0,1
w10052154_DJM,d19w035bd3,Emily_Honors_Thesis_Part_2,1,21,2020-05-05T14:52:39-07:00,2.5872149467468,2,versionA_stim.csv,READ_JOLVersionB.csv,"READ Version B",OLD,NOODLE,STRING,Buffer3,Buffer,92,93,JOL,User,-,"How likely are you to correctly recall the second item in the pair?|Type your response on a scale from 0-100 and then press Enter.",Study/JOL,BUFFER,2225,,,1688,1911,,,,14,1
w10052154_DJM,d19w035bd3,Emily_Honors_Thesis_Part_2,1,22,2020-05-05T14:52:42-07:00,2.8321740627289,2,versionA_stim.csv,READ_JOLVersionB.csv,"READ Version B",OLD,DETECTIVE,MYSTERY,ON2,F,100,98,JOL,User,-,"How likely are you to correctly recall the second item in the pair?|Type your response on a scale from 0-100 and then press Enter.",Study/JOL,"Study Phase",2453,,,1973,2292,,,,100,1
w10052154_DJM,d19w035bd3,Emily_Honors_Thesis_Part_2,1,23,2020-05-05T14:52:46-07:00,3.328773021698,2,versionA_stim.csv,READ_JOLVersionB.csv,"READ Version B",OLD,LOUD,NOISE,ON2,S,152,113,JOL,User,-,"How likely are you to correctly recall the second item in the pair?|Type your response on a scale from 0-100 and then press Enter.",Study/JOL,"Study Phase",2978,,,2529,2816,,,,100,1
w10052154_DJM,d19w035bd3,Emily_Honors_Thesis_Part_2,1,24,2020-05-05T14:52:52-07:00,5.989147901535,2,versionA_stim.csv,READ_JOLVersionB.csv,"READ Version B",OLD,MULE,DONKEY,ON2,F,108,103,JOL,User,-,"How likely are you to correctly recall the second item in the pair?|Type your response on a scale from 0-100 and then press Enter.",Study/JOL,"Study Phase",5621,,,5333,5492,,,,85,1
w10052154_DJM,d19w035bd3,Emily_Honors_Thesis_Part_2,1,25,2020-05-05T14:52:56-07:00,4.0222790241241,2,versionA_stim.csv,READ_JOLVersionB.csv,"READ Version B",OLD,MIRROR,CHILDREN,ON2,U,174,163,JOL,User,-,"How likely are you to correctly recall the second item in the pair?|Type your response on a scale from 0-100 and then press Enter.",Study/JOL,"Study Phase",3662,,,3373,3532,,,,10,1
w10052154_DJM,d19w035bd3,Emily_Honors_Thesis_Part_2,1,26,2020-05-05T14:52:58-07:00,2.6466200351715,2,versionA_stim.csv,READ_JOLVersionB.csv,"READ Version B",OLD,FURRY,DOG,ON2,F,102,153,JOL,User,-,"How likely are you to correctly recall the second item in the pair?|Type your response on a scale from 0-100 and then press Enter.",Study/JOL,"Study Phase",2285,,,1773,2092,,,,100,1
w10052154_DJM,d19w035bd3,Emily_Honors_Thesis_Part_2,1,27,2020-05-05T14:53:07-07:00,8.476704120636,2,versionA_stim.csv,READ_JOLVersionB.csv,"READ Version B",OLD,AFFECTION,LOVE,ON2,F,115,102,JOL,User,-,"How likely are you to correctly recall the second item in the pair?|Type your response on a scale from 0-100 and then press Enter.",Study/JOL,"Study Phase",8126,,,7261,7452,,,,85,1
w10052154_DJM,d19w035bd3,Emily_Honors_Thesis_Part_2,1,28,2020-05-05T14:53:14-07:00,7.443452835083,2,versionA_stim.csv,READ_JOLVersionB.csv,"READ Version B",OLD,RIGHTS,EQUAL,ON2,S,137,156,JOL,User,-,"How likely are you to correctly recall the second item in the pair?|Type your response on a scale from 0-100 and then press Enter.",Study/JOL,"Study Phase",7066,,,2241,6432,,,,55,1
w10052154_DJM,d19w035bd3,Emily_Honors_Thesis_Part_2,1,29,2020-05-05T14:53:20-07:00,6.2924389839172,2,versionA_stim.csv,READ_JOLVersionB.csv,"READ Version B",OLD,ELEMENT,CARBON,ON2,S,141,135,JOL,User,-,"How likely are you to correctly recall the second item in the pair?|Type your response on a scale from 0-100 and then press Enter.",Study/JOL,"Study Phase",5921,,,5121,5279,,,,85,1
w10052154_DJM,d19w035bd3,Emily_Honors_Thesis_Part_2,1,30,2020-05-05T14:53:24-07:00,3.8130540847778,2,versionA_stim.csv,READ_JOLVersionB.csv,"READ Version B",OLD,CLUE,GAME,ON2,F,97,160,JOL,User,-,"How likely are you to correctly recall the second item in the pair?|Type your response on a scale from 0-100 and then press Enter.",Study/JOL,"Study Phase",3454,,,3069,3228,,,,65,1
w10052154_DJM,d19w035bd3,Emily_Honors_Thesis_Part_2,1,31,2020-05-05T14:53:28-07:00,3.3491730690002,2,versionA_stim.csv,READ_JOLVersionB.csv,"READ Version B",OLD,TRUTH,LIE,ON2,S,148,104,JOL,User,-,"How likely are you to correctly recall the second item in the pair?|Type your response on a scale from 0-100 and then press Enter.",Study/JOL,"Study Phase",2992,,,2167,2486,,,,100,1
w10052154_DJM,d19w035bd3,Emily_Honors_Thesis_Part_2,1,32,2020-05-05T14:53:30-07:00,2.7227640151978,2,versionA_stim.csv,READ_JOLVersionB.csv,"READ Version B",OLD,PLANE,AIRCRAFT,ON2,B,129,124,JOL,User,-,"How likely are you to correctly recall the second item in the pair?|Type your response on a scale from 0-100 and then press Enter.",Study/JOL,"Study Phase",2375,,,1863,2150,,,,100,1
w10052154_DJM,d19w035bd3,Emily_Honors_Thesis_Part_2,1,33,2020-05-05T14:53:34-07:00,3.3665108680725,2,versionA_stim.csv,READ_JOLVersionB.csv,"READ Version B",OLD,HONEST,TRUTHFUL,ON2,B,133,150,JOL,User,-,"How likely are you to correctly recall the second item in the pair?|Type your response on a scale from 0-100 and then press Enter.",Study/JOL,"Study Phase",2997,,,2620,2779,,,,65,1
w10052154_DJM,d19w035bd3,Emily_Honors_Thesis_Part_2,1,34,2020-05-05T14:53:41-07:00,7.3097860813141,2,versionA_stim.csv,READ_JOLVersionB.csv,"READ Version B",OLD,CHILL,COLD,ON2,F,114,169,JOL,User,-,"How likely are you to correctly recall the second item in the pair?|Type your response on a scale from 0-100 and then press Enter.",Study/JOL,"Study Phase",6407,,,5165,5485,,,,100,1
w10052154_DJM,d19w035bd3,Emily_Honors_Thesis_Part_2,1,35,2020-05-05T14:53:47-07:00,5.6956279277802,2,versionA_stim.csv,READ_JOLVersionB.csv,"READ Version B",OLD,FUZZY,BANG,ON2,U,168,172,JOL,User,-,"How likely are you to correctly recall the second item in the pair?|Type your response on a scale from 0-100 and then press Enter.",Study/JOL,"Study Phase",4637,,,3908,4060,,,,45,1
w10052154_DJM,d19w035bd3,Emily_Honors_Thesis_Part_2,1,36,2020-05-05T14:53:51-07:00,4.6896569728851,2,versionA_stim.csv,READ_JOLVersionB.csv,"READ Version B",OLD,RAZOR,SHAVE,ON2,S,136,140,JOL,User,-,"How likely are you to correctly recall the second item in the pair?|Type your response on a scale from 0-100 and then press Enter.",Study/JOL,"Study Phase",4343,,,3479,3862,,,,100,1
w10052154_DJM,d19w035bd3,Emily_Honors_Thesis_Part_2,1,37,2020-05-05T14:53:58-07:00,6.4188561439514,2,versionA_stim.csv,READ_JOLVersionB.csv,"READ Version B",OLD,MOAT,CLEAR,ON2,U,169,100,JOL,User,-,"How likely are you to correctly recall the second item in the pair?|Type your response on a scale from 0-100 and then press Enter.",Study/JOL,"Study Phase",6036,,,5587,5745,,,,20,1
w10052154_DJM,d19w035bd3,Emily_Honors_Thesis_Part_2,1,38,2020-05-05T14:54:02-07:00,4.6709969043732,2,versionA_stim.csv,READ_JOLVersionB.csv,"READ Version B",OLD,CRACKLE,ABLE,ON2,U,162,110,JOL,User,-,"How likely are you to correctly recall the second item in the pair?|Type your response on a scale from 0-100 and then press Enter.",Study/JOL,"Study Phase",4318,,,3933,4093,,,,25,1
w10052154_DJM,d19w035bd3,Emily_Honors_Thesis_Part_2,1,39,2020-05-05T14:54:05-07:00,2.561322927475,2,versionA_stim.csv,READ_JOLVersionB.csv,"READ Version B",OLD,ROD,REEL,ON2,S,150,145,JOL,User,-,"How likely are you to correctly recall the second item in the pair?|Type your response on a scale from 0-100 and then press Enter.",Study/JOL,"Study Phase",2208,,,1856,2015,,,,25,1
w10052154_DJM,d19w035bd3,Emily_Honors_Thesis_Part_2,1,40,2020-05-05T14:54:11-07:00,5.8522710800171,2,versionA_stim.csv,READ_JOLVersionB.csv,"READ Version B",OLD,SAFETY,SEATBELT,ON2,S,147,175,JOL,User,-,"How likely are you to correctly recall the second item in the pair?|Type your response on a scale from 0-100 and then press Enter.",Study/JOL,"Study Phase",5492,,,5075,5267,,,,50,1
w10052154_DJM,d19w035bd3,Emily_Honors_Thesis_Part_2,1,41,2020-05-05T14:54:15-07:00,3.796040058136,2,versionA_stim.csv,READ_JOLVersionB.csv,"READ Version B",OLD,CAT,PANTHER,ON2,B,126,159,JOL,User,-,"How likely are you to correctly recall the second item in the pair?|Type your response on a scale from 0-100 and then press Enter.",Study/JOL,"Study Phase",3444,,,3091,3220,,,,65,1
w10052154_DJM,d19w035bd3,Emily_Honors_Thesis_Part_2,1,42,2020-05-05T14:54:25-07:00,10.024676084518,2,versionA_stim.csv,READ_JOLVersionB.csv,"READ Version B",OLD,WATER,DRINK,ON2,S,143,170,JOL,User,-,"How likely are you to correctly recall the second item in the pair?|Type your response on a scale from 0-100 and then press Enter.",Study/JOL,"Study Phase",9653,,,9173,9459,,,,100,1
w10052154_DJM,d19w035bd3,Emily_Honors_Thesis_Part_2,1,43,2020-05-05T14:54:30-07:00,4.9579927921295,2,versionA_stim.csv,READ_JOLVersionB.csv,"READ Version B",OLD,ALONE,LONELY,ON2,S,145,147,JOL,User,-,"How likely are you to correctly recall the second item in the pair?|Type your response on a scale from 0-100 and then press Enter.",Study/JOL,"Study Phase",4588,,,3915,4266,,,,89,1
w10052154_DJM,d19w035bd3,Emily_Honors_Thesis_Part_2,1,44,2020-05-05T14:54:32-07:00,2.6606531143188,2,versionA_stim.csv,READ_JOLVersionB.csv,"READ Version B",OLD,BASEBALL,LEAGUE,ON2,B,131,138,JOL,User,-,"How likely are you to correctly recall the second item in the pair?|Type your response on a scale from 0-100 and then press Enter.",Study/JOL,"Study Phase",2303,,,1766,2109,,,,100,1
w10052154_DJM,d19w035bd3,Emily_Honors_Thesis_Part_2,1,45,2020-05-05T14:54:40-07:00,7.5908350944519,2,versionA_stim.csv,READ_JOLVersionB.csv,"READ Version B",OLD,TURN,FLIP,ON2,B,116,139,JOL,User,-,"How likely are you to correctly recall the second item in the pair?|Type your response on a scale from 0-100 and then press Enter.",Study/JOL,"Study Phase",7230,,,6556,6972,,,,55,1
w10052154_DJM,d19w035bd3,Emily_Honors_Thesis_Part_2,1,46,2020-05-05T14:54:44-07:00,3.634162902832,2,versionA_stim.csv,READ_JOLVersionB.csv,"READ Version B",OLD,OWN,HAVE,ON2,S,153,173,JOL,User,-,"How likely are you to correctly recall the second item in the pair?|Type your response on a scale from 0-100 and then press Enter.",Study/JOL,"Study Phase",3278,,,2894,3052,,,,99,1
w10052154_DJM,d19w035bd3,Emily_Honors_Thesis_Part_2,1,47,2020-05-05T14:54:53-07:00,9.2094750404358,2,versionA_stim.csv,READ_JOLVersionB.csv,"READ Version B",OLD,EARTH,GROUND,ON2,S,144,161,JOL,User,-,"How likely are you to correctly recall the second item in the pair?|Type your response on a scale from 0-100 and then press Enter.",Study/JOL,"Study Phase",8841,,,8265,8454,,,,85,1
w10052154_DJM,d19w035bd3,Emily_Honors_Thesis_Part_2,1,48,2020-05-05T14:54:56-07:00,2.9346959590912,2,versionA_stim.csv,READ_JOLVersionB.csv,"READ Version B",OLD,BOTH,OUNCE,ON2,U,172,112,JOL,User,-,"How likely are you to correctly recall the second item in the pair?|Type your response on a scale from 0-100 and then press Enter.",Study/JOL,"Study Phase",2574,,,2381,2381,,,,0,1
w10052154_DJM,d19w035bd3,Emily_Honors_Thesis_Part_2,1,49,2020-05-05T14:55:00-07:00,3.9913599491119,2,versionA_stim.csv,READ_JOLVersionB.csv,"READ Version B",OLD,GONE,AWAY,ON2,S,142,130,JOL,User,-,"How likely are you to correctly recall the second item in the pair?|Type your response on a scale from 0-100 and then press Enter.",Study/JOL,"Study Phase",3618,,,3009,3328,,,,98,1
w10052154_DJM,d19w035bd3,Emily_Honors_Thesis_Part_2,1,50,2020-05-05T14:55:03-07:00,3.0570809841156,2,versionA_stim.csv,READ_JOLVersionB.csv,"READ Version B",OLD,SUN,TAN,ON2,S,155,119,JOL,User,-,"How likely are you to correctly recall the second item in the pair?|Type your response on a scale from 0-100 and then press Enter.",Study/JOL,"Study Phase",2691,,,1697,2465,,,,100,1
w10052154_DJM,d19w035bd3,Emily_Honors_Thesis_Part_2,1,51,2020-05-05T14:55:06-07:00,3.0209650993347,2,versionA_stim.csv,READ_JOLVersionB.csv,"READ Version B",OLD,PHONE,COMMUNICATION,ON2,S,149,142,JOL,User,-,"How likely are you to correctly recall the second item in the pair?|Type your response on a scale from 0-100 and then press Enter.",Study/JOL,"Study Phase",2673,,,2255,2479,,,,85,1
w10052154_DJM,d19w035bd3,Emily_Honors_Thesis_Part_2,1,52,2020-05-05T14:55:09-07:00,3.1974139213562,2,versionA_stim.csv,READ_JOLVersionB.csv,"READ Version B",OLD,LISTEN,FICTION,ON2,U,164,158,JOL,User,-,"How likely are you to correctly recall the second item in the pair?|Type your response on a scale from 0-100 and then press Enter.",Study/JOL,"Study Phase",2839,,,1494,1495,,,,8,1
w10052154_DJM,d19w035bd3,Emily_Honors_Thesis_Part_2,1,53,2020-05-05T14:55:12-07:00,2.8544390201569,2,versionA_stim.csv,READ_JOLVersionB.csv,"READ Version B",OLD,POP,BALLOON,ON2,B,123,165,JOL,User,-,"How likely are you to correctly recall the second item in the pair?|Type your response on a scale from 0-100 and then press Enter.",Study/JOL,"Study Phase",2493,,,2076,2300,,,,85,1
w10052154_DJM,d19w035bd3,Emily_Honors_Thesis_Part_2,1,54,2020-05-05T14:55:18-07:00,6.3485300540924,2,versionA_stim.csv,READ_JOLVersionB.csv,"READ Version B",OLD,CAKE,CLOTHES,ON2,U,166,107,JOL,User,-,"How likely are you to correctly recall the second item in the pair?|Type your response on a scale from 0-100 and then press Enter.",Study/JOL,"Study Phase",5991,,,5733,5733,,,,0,1
w10052154_DJM,d19w035bd3,Emily_Honors_Thesis_Part_2,1,55,2020-05-05T14:55:27-07:00,8.8817780017853,2,versionA_stim.csv,READ_JOLVersionB.csv,"READ Version B",OLD,NAME,HATE,ON2,U,167,126,JOL,User,-,"How likely are you to correctly recall the second item in the pair?|Type your response on a scale from 0-100 and then press Enter.",Study/JOL,"Study Phase",8506,,,7873,8249,,,,50,1
w10052154_DJM,d19w035bd3,Emily_Honors_Thesis_Part_2,1,56,2020-05-05T14:55:33-07:00,5.4689328670502,2,versionA_stim.csv,READ_JOLVersionB.csv,"READ Version B",OLD,DOCUMENT,PAPER,ON2,F,109,127,JOL,User,-,"How likely are you to correctly recall the second item in the pair?|Type your response on a scale from 0-100 and then press Enter.",Study/JOL,"Study Phase",5111,,,4502,4629,,,,66,1
w10052154_DJM,d19w035bd3,Emily_Honors_Thesis_Part_2,1,57,2020-05-05T14:55:36-07:00,3.3688650131226,2,versionA_stim.csv,READ_JOLVersionB.csv,"READ Version B",OLD,TANTRUM,TEMPER,ON2,S,154,125,JOL,User,-,"How likely are you to correctly recall the second item in the pair?|Type your response on a scale from 0-100 and then press Enter.",Study/JOL,"Study Phase",2996,,,2451,2769,,,,100,1
w10052154_DJM,d19w035bd3,Emily_Honors_Thesis_Part_2,1,58,2020-05-05T14:55:40-07:00,4.169615983963,2,versionA_stim.csv,READ_JOLVersionB.csv,"READ Version B",OLD,VEHICLE,CHARM,ON2,U,160,111,JOL,User,-,"How likely are you to correctly recall the second item in the pair?|Type your response on a scale from 0-100 and then press Enter.",Study/JOL,"Study Phase",3815,,,3621,3621,,,,0,1
w10052154_DJM,d19w035bd3,Emily_Honors_Thesis_Part_2,1,59,2020-05-05T14:55:46-07:00,5.6288681030273,2,versionA_stim.csv,READ_JOLVersionB.csv,"READ Version B",OLD,CAR,WINDSHIELD,ON2,B,117,154,JOL,User,-,"How likely are you to correctly recall the second item in the pair?|Type your response on a scale from 0-100 and then press Enter.",Study/JOL,"Study Phase",4271,,,3694,4045,,,,100,1
w10052154_DJM,d19w035bd3,Emily_Honors_Thesis_Part_2,1,60,2020-05-05T14:55:50-07:00,4.0187819004059,2,versionA_stim.csv,READ_JOLVersionB.csv,"READ Version B",OLD,MAZE,ELECTION,ON2,U,159,115,JOL,User,-,"How likely are you to correctly recall the second item in the pair?|Type your response on a scale from 0-100 and then press Enter.",Study/JOL,"Study Phase",3641,,,3065,3065,,,,3,1
w10052154_DJM,d19w035bd3,Emily_Honors_Thesis_Part_2,1,61,2020-05-05T14:55:55-07:00,5.4154140949249,2,versionA_stim.csv,READ_JOLVersionB.csv,"READ Version B",OLD,DRIVER,CAR,ON2,F,106,105,JOL,User,-,"How likely are you to correctly recall the second item in the pair?|Type your response on a scale from 0-100 and then press Enter.",Study/JOL,"Study Phase",5055,,,1854,4574,,,,93,1
w10052154_DJM,d19w035bd3,Emily_Honors_Thesis_Part_2,1,62,2020-05-05T14:55:59-07:00,4.2152669429779,2,versionA_stim.csv,READ_JOLVersionB.csv,"READ Version B",OLD,BAD,VILLAIN,ON2,B,118,118,JOL,User,-,"How likely are you to correctly recall the second item in the pair?|Type your response on a scale from 0-100 and then press Enter.",Study/JOL,"Study Phase",3852,,,3436,3627,,,,88,1
w10052154_DJM,d19w035bd3,Emily_Honors_Thesis_Part_2,1,63,2020-05-05T14:56:02-07:00,2.7116179466248,2,versionA_stim.csv,READ_JOLVersionB.csv,"READ Version B",OLD,CHERRY,RED,ON2,F,104,166,JOL,User,-,"How likely are you to correctly recall the second item in the pair?|Type your response on a scale from 0-100 and then press Enter.",Study/JOL,"Study Phase",2335,,,1733,2084,,,,100,1
w10052154_DJM,d19w035bd3,Emily_Honors_Thesis_Part_2,1,64,2020-05-05T14:56:13-07:00,10.745453119278,2,versionA_stim.csv,READ_JOLVersionB.csv,"READ Version B",OLD,DRY,WET,ON2,S,146,167,JOL,User,-,"How likely are you to correctly recall the second item in the pair?|Type your response on a scale from 0-100 and then press Enter.",Study/JOL,"Study Phase",10395,,,9882,10200,,,,100,0.923
w10052154_DJM,d19w035bd3,Emily_Honors_Thesis_Part_2,1,65,2020-05-05T14:56:17-07:00,4.1773989200592,2,versionA_stim.csv,READ_JOLVersionB.csv,"READ Version B",OLD,SHELL,SHAKE,ON2,U,163,97,JOL,User,-,"How likely are you to correctly recall the second item in the pair?|Type your response on a scale from 0-100 and then press Enter.",Study/JOL,"Study Phase",3830,,,3445,3445,,,,2,1
w10052154_DJM,d19w035bd3,Emily_Honors_Thesis_Part_2,1,66,2020-05-05T14:56:21-07:00,4.2571861743927,2,versionA_stim.csv,READ_JOLVersionB.csv,"READ Version B",OLD,EVEN,REVENGE,ON2,B,122,132,JOL,User,-,"How likely are you to correctly recall the second item in the pair?|Type your response on a scale from 0-100 and then press Enter.",Study/JOL,"Study Phase",3900,,,3320,3544,,,,75,1
w10052154_DJM,d19w035bd3,Emily_Honors_Thesis_Part_2,1,67,2020-05-05T14:56:42-07:00,21.05042386055,2,versionA_stim.csv,READ_JOLVersionB.csv,"READ Version B",OLD,CACTUS,PLANT,ON2,F,98,122,JOL,User,-,"How likely are you to correctly recall the second item in the pair?|Type your response on a scale from 0-100 and then press Enter.",Study/JOL,"Study Phase",20676,,,20162,20385,,,,85,1
w10052154_DJM,d19w035bd3,Emily_Honors_Thesis_Part_2,1,68,2020-05-05T14:56:46-07:00,3.3919129371643,2,versionA_stim.csv,READ_JOLVersionB.csv,"READ Version B",OLD,JUSTICE,MAROON,ON2,U,156,174,JOL,User,-,"How likely are you to correctly recall the second item in the pair?|Type your response on a scale from 0-100 and then press Enter.",Study/JOL,"Study Phase",3030,,,2741,2741,,,,1,1
w10052154_DJM,d19w035bd3,Emily_Honors_Thesis_Part_2,1,69,2020-05-05T14:56:51-07:00,4.9958131313324,2,versionA_stim.csv,READ_JOLVersionB.csv,"READ Version B",OLD,THREAD,THIMBLE,ON2,B,121,141,JOL,User,-,"How likely are you to correctly recall the second item in the pair?|Type your response on a scale from 0-100 and then press Enter.",Study/JOL,"Study Phase",4616,,,4103,4390,,,,65,1
w10052154_DJM,d19w035bd3,Emily_Honors_Thesis_Part_2,1,70,2020-05-05T14:56:55-07:00,4.7438459396362,2,versionA_stim.csv,READ_JOLVersionB.csv,"READ Version B",OLD,FRUIT,STRAWBERRY,ON2,B,124,152,JOL,User,-,"How likely are you to correctly recall the second item in the pair?|Type your response on a scale from 0-100 and then press Enter.",Study/JOL,"Study Phase",4361,,,2511,4199,,,,100,1
w10052154_DJM,d19w035bd3,Emily_Honors_Thesis_Part_2,1,71,2020-05-05T14:56:59-07:00,3.2726340293884,2,versionA_stim.csv,READ_JOLVersionB.csv,"READ Version B",OLD,BEST,FAVORITE,ON2,B,125,144,JOL,User,-,"How likely are you to correctly recall the second item in the pair?|Type your response on a scale from 0-100 and then press Enter.",Study/JOL,"Study Phase",2923,,,2346,2537,,,,85,1
w10052154_DJM,d19w035bd3,Emily_Honors_Thesis_Part_2,1,72,2020-05-05T14:57:26-07:00,27.321811914444,2,versionA_stim.csv,READ_JOLVersionB.csv,"READ Version B",OLD,STRETCH,CLOTH,ON2,U,157,109,JOL,User,-,"How likely are you to correctly recall the second item in the pair?|Type your response on a scale from 0-100 and then press Enter.",Study/JOL,"Study Phase",26965,,,26418,26961,,,,453,1
w10052154_DJM,d19w035bd3,Emily_Honors_Thesis_Part_2,1,73,2020-05-05T14:57:38-07:00,12.085935115814,2,versionA_stim.csv,READ_JOLVersionB.csv,"READ Version B",OLD,CANDLE,WAX,ON2,S,139,106,JOL,User,-,"How likely are you to correctly recall the second item in the pair?|Type your response on a scale from 0-100 and then press Enter.",Study/JOL,"Study Phase",11727,,,11150,11469,,,,100,1
w10052154_DJM,d19w035bd3,Emily_Honors_Thesis_Part_2,1,74,2020-05-05T14:57:41-07:00,3.227912902832,2,versionA_stim.csv,READ_JOLVersionB.csv,"READ Version B",OLD,MONEY,BANKER,ON2,B,132,176,JOL,User,-,"How likely are you to correctly recall the second item in the pair?|Type your response on a scale from 0-100 and then press Enter.",Study/JOL,"Study Phase",2871,,,2368,2685,,,,100,1
w10052154_DJM,d19w035bd3,Emily_Honors_Thesis_Part_2,1,75,2020-05-05T14:57:44-07:00,3.11900806427,2,versionA_stim.csv,READ_JOLVersionB.csv,"READ Version B",OLD,GIVE,STEAK,ON2,U,158,121,JOL,User,-,"How likely are you to correctly recall the second item in the pair?|Type your response on a scale from 0-100 and then press Enter.",Study/JOL,"Study Phase",2743,,,2518,2518,,,,5,1
w10052154_DJM,d19w035bd3,Emily_Honors_Thesis_Part_2,1,76,2020-05-05T14:57:47-07:00,2.6054179668427,2,versionA_stim.csv,READ_JOLVersionB.csv,"READ Version B",OLD,DEAD,COFFIN,ON2,B,128,148,JOL,User,-,"How likely are you to correctly recall the second item in the pair?|Type your response on a scale from 0-100 and then press Enter.",Study/JOL,"Study Phase",2250,,,1737,2057,,,,100,1
w10052154_DJM,d19w035bd3,Emily_Honors_Thesis_Part_2,1,77,2020-05-05T14:57:56-07:00,9.3610601425171,2,versionA_stim.csv,READ_JOLVersionB.csv,"READ Version B",OLD,LITTER,TRASH,ON2,F,103,136,JOL,User,-,"How likely are you to correctly recall the second item in the pair?|Type your response on a scale from 0-100 and then press Enter.",Study/JOL,"Study Phase",9010,,,8146,8146,,,,2,1
w10052154_DJM,d19w035bd3,Emily_Honors_Thesis_Part_2,1,78,2020-05-05T14:57:58-07:00,1.670355796814,2,versionA_stim.csv,READ_JOLVersionB.csv,"READ Version B",OLD,FEUD,FIGHT,ON2,F,113,120,JOL,User,-,"How likely are you to correctly recall the second item in the pair?|Type your response on a scale from 0-100 and then press Enter.",Study/JOL,"Study Phase",1369,,,1079,1079,,,,3,1
w10052154_DJM,d19w035bd3,Emily_Honors_Thesis_Part_2,1,79,2020-05-05T14:57:59-07:00,0.92111301422119,2,versionA_stim.csv,READ_JOLVersionB.csv,"READ Version B",OLD,INCENSE,SMELL,ON2,F,110,137,JOL,User,-,"How likely are you to correctly recall the second item in the pair?|Type your response on a scale from 0-100 and then press Enter.",Study/JOL,"Study Phase",618,,,360,360,,,,4,1
w10052154_DJM,d19w035bd3,Emily_Honors_Thesis_Part_2,1,80,2020-05-05T14:58:00-07:00,0.82889604568481,2,versionA_stim.csv,READ_JOLVersionB.csv,"READ Version B",OLD,LOAN,SIGN,ON2,U,171,123,JOL,User,-,"How likely are you to correctly recall the second item in the pair?|Type your response on a scale from 0-100 and then press Enter.",Study/JOL,"Study Phase",549,,,325,325,,,,5,1
w10052154_DJM,d19w035bd3,Emily_Honors_Thesis_Part_2,1,81,2020-05-05T14:58:01-07:00,0.72967600822449,2,versionA_stim.csv,READ_JOLVersionB.csv,"READ Version B",OLD,FLEA,TICK,ON2,S,151,134,JOL,User,-,"How likely are you to correctly recall the second item in the pair?|Type your response on a scale from 0-100 and then press Enter.",Study/JOL,"Study Phase",459,,,203,203,,,,6,1
w10052154_DJM,d19w035bd3,Emily_Honors_Thesis_Part_2,1,82,2020-05-05T14:58:03-07:00,1.9505870342255,2,versionA_stim.csv,READ_JOLVersionB.csv,"READ Version B",OLD,SLEEP,NAP,ON2,B,134,131,JOL,User,-,"How likely are you to correctly recall the second item in the pair?|Type your response on a scale from 0-100 and then press Enter.",Study/JOL,"Study Phase",1677,,,397,397,,,,7,1
w10052154_DJM,d19w035bd3,Emily_Honors_Thesis_Part_2,1,83,2020-05-05T14:58:04-07:00,1.0912849903107,2,versionA_stim.csv,READ_JOLVersionB.csv,"READ Version B",OLD,GLASS,BREAKABLE,ON2,B,127,168,JOL,User,-,"How likely are you to correctly recall the second item in the pair?|Type your response on a scale from 0-100 and then press Enter.",Study/JOL,"Study Phase",818,,,465,465,,,,8,1
w10052154_DJM,d19w035bd3,Emily_Honors_Thesis_Part_2,1,84,2020-05-05T14:58:04-07:00,0.73436594009399,2,versionA_stim.csv,READ_JOLVersionB.csv,"READ Version B",OLD,MASON,JAR,ON2,S,138,114,JOL,User,-,"How likely are you to correctly recall the second item in the pair?|Type your response on a scale from 0-100 and then press Enter.",Study/JOL,"Study Phase",454,,,229,229,,,,9,1
w10052154_DJM,d19w035bd3,Emily_Honors_Thesis_Part_2,1,85,2020-05-05T14:58:06-07:00,1.309986114502,2,versionA_stim.csv,READ_JOLVersionB.csv,"READ Version B",OLD,STAR,ACTRESS,ON2,B,120,129,JOL,User,-,"How likely are you to correctly recall the second item in the pair?|Type your response on a scale from 0-100 and then press Enter.",Study/JOL,"Study Phase",1046,,,629,820,,,,10,1
w10052154_DJM,d19w035bd3,Emily_Honors_Thesis_Part_2,1,86,2020-05-05T14:58:07-07:00,0.86438202857971,2,versionA_stim.csv,READ_JOLVersionB.csv,"READ Version B",OLD,MAIN,SCAR,ON2,U,175,128,JOL,User,-,"How likely are you to correctly recall the second item in the pair?|Type your response on a scale from 0-100 and then press Enter.",Study/JOL,"Study Phase",596,,,243,371,,,,11,1
w10052154_DJM,d19w035bd3,Emily_Honors_Thesis_Part_2,1,87,2020-05-05T14:58:07-07:00,0.89020085334778,2,versionA_stim.csv,READ_JOLVersionB.csv,"READ Version B",OLD,DINE,EAT,ON2,F,111,116,JOL,User,-,"How likely are you to correctly recall the second item in the pair?|Type your response on a scale from 0-100 and then press Enter.",Study/JOL,"Study Phase",584,,,168,424,,,,12,1
w10052154_DJM,d19w035bd3,Emily_Honors_Thesis_Part_2,1,88,2020-05-05T14:58:08-07:00,0.82822799682617,2,versionA_stim.csv,READ_JOLVersionB.csv,"READ Version B",OLD,KEYS,JOKE,ON2,U,165,171,JOL,User,-,"How likely are you to correctly recall the second item in the pair?|Type your response on a scale from 0-100 and then press Enter.",Study/JOL,"Study Phase",531,,,116,339,,,,13,1
w10052154_DJM,d19w035bd3,Emily_Honors_Thesis_Part_2,1,89,2020-05-05T14:58:10-07:00,1.8657901287079,2,versionA_stim.csv,READ_JOLVersionB.csv,"READ Version B",OLD,LEASE,TOIL,ON2,U,170,108,JOL,User,-,"How likely are you to correctly recall the second item in the pair?|Type your response on a scale from 0-100 and then press Enter.",Study/JOL,"Study Phase",597,,,84,372,,,,14,1
w10052154_DJM,d19w035bd3,Emily_Honors_Thesis_Part_2,1,90,2020-05-05T14:58:12-07:00,1.8480160236359,2,versionA_stim.csv,READ_JOLVersionB.csv,"READ Version B",OLD,WRIST,BRACELET,ON2,S,140,101,JOL,User,-,"How likely are you to correctly recall the second item in the pair?|Type your response on a scale from 0-100 and then press Enter.",Study/JOL,"Study Phase",1578,,,745,1001,,,,15,1
w10052154_DJM,d19w035bd3,Emily_Honors_Thesis_Part_2,1,91,2020-05-05T14:58:13-07:00,1.2179718017578,2,versionA_stim.csv,READ_JOLVersionB.csv,"READ Version B",OLD,EXTENSION,LONG,ON2,F,96,143,JOL,User,-,"How likely are you to correctly recall the second item in the pair?|Type your response on a scale from 0-100 and then press Enter.",Study/JOL,"Study Phase",946,,,400,656,,,,16,1
w10052154_DJM,d19w035bd3,Emily_Honors_Thesis_Part_2,1,92,2020-05-05T14:58:14-07:00,1.1112031936646,2,versionA_stim.csv,READ_JOLVersionB.csv,"READ Version B",OLD,ADJOURN,END,ON2,F,101,164,JOL,User,-,"How likely are you to correctly recall the second item in the pair?|Type your response on a scale from 0-100 and then press Enter.",Study/JOL,"Study Phase",841,,,361,584,,,,17,1
w10052154_DJM,d19w035bd3,Emily_Honors_Thesis_Part_2,1,93,2020-05-05T14:58:16-07:00,1.4391889572144,2,versionA_stim.csv,READ_JOLVersionB.csv,"READ Version B",OLD,SCALP,HEAD,ON2,F,105,133,JOL,User,-,"How likely are you to correctly recall the second item in the pair?|Type your response on a scale from 0-100 and then press Enter.",Study/JOL,"Study Phase",1165,,,75,426,,,,18,1
w10052154_DJM,d19w035bd3,Emily_Honors_Thesis_Part_2,1,94,2020-05-05T14:58:17-07:00,1.1841928958893,2,versionA_stim.csv,READ_JOLVersionB.csv,"READ Version B",OLD,BIRD,PENGUIN,ON2,B,119,99,JOL,User,-,"How likely are you to correctly recall the second item in the pair?|Type your response on a scale from 0-100 and then press Enter.",Study/JOL,"Study Phase",914,,,242,561,,,,19,1
w10052154_DJM,d19w035bd3,Emily_Honors_Thesis_Part_2,1,95,2020-05-05T14:58:18-07:00,1.0264949798584,2,versionA_stim.csv,READ_JOLVersionB.csv,"READ Version B",OLD,SHEARS,SCISSORS,ON2,F,112,149,JOL,User,-,"How likely are you to correctly recall the second item in the pair?|Type your response on a scale from 0-100 and then press Enter.",Study/JOL,"Study Phase",750,,,268,492,,,,20,1
w10052154_DJM,d19w035bd3,Emily_Honors_Thesis_Part_2,1,96,2020-05-05T14:58:19-07:00,0.89883708953857,2,versionA_stim.csv,READ_JOLVersionB.csv,"READ Version B",OLD,FIGHT,BRAWL,ON2,B,135,117,JOL,User,-,"How likely are you to correctly recall the second item in the pair?|Type your response on a scale from 0-100 and then press Enter.",Study/JOL,"Study Phase",602,,,184,375,,,,21,1
w10052154_DJM,d19w035bd3,Emily_Honors_Thesis_Part_2,1,97,2020-05-05T14:58:20-07:00,0.92220687866211,2,versionA_stim.csv,READ_JOLVersionB.csv,"READ Version B",OLD,SHOELACE,TIE,ON2,F,99,162,JOL,User,-,"How likely are you to correctly recall the second item in the pair?|Type your response on a scale from 0-100 and then press Enter.",Study/JOL,"Study Phase",655,,,111,462,,,,22,1
w10052154_DJM,d19w035bd3,Emily_Honors_Thesis_Part_2,1,98,2020-05-05T14:58:21-07:00,1.2785902023315,2,versionA_stim.csv,READ_JOLVersionB.csv,"READ Version B",OLD,TEMPERATURE,MORNING,ON2,U,173,155,JOL,User,-,"How likely are you to correctly recall the second item in the pair?|Type your response on a scale from 0-100 and then press Enter.",Study/JOL,"Study Phase",979,,,498,721,,,,23,1
w10052154_DJM,d19w035bd3,Emily_Honors_Thesis_Part_2,1,99,2020-05-05T14:58:22-07:00,1.0202269554138,2,versionA_stim.csv,READ_JOLVersionB.csv,"READ Version B",OLD,FISH,SARDINE,ON2,B,130,157,JOL,User,-,"How likely are you to correctly recall the second item in the pair?|Type your response on a scale from 0-100 and then press Enter.",Study/JOL,"Study Phase",733,,,317,509,,,,24,1
w10052154_DJM,d19w035bd3,Emily_Honors_Thesis_Part_2,1,100,2020-05-05T14:58:23-07:00,0.99358797073364,2,versionA_stim.csv,READ_JOLVersionB.csv,"READ Version B",OLD,MEAT,OBTAIN,ON2,U,161,151,JOL,User,-,"How likely are you to correctly recall the second item in the pair?|Type your response on a scale from 0-100 and then press Enter.",Study/JOL,"Study Phase",718,,,239,461,,,,25,1
w10052154_DJM,d19w035bd3,Emily_Honors_Thesis_Part_2,1,101,2020-05-05T14:58:24-07:00,1.405620098114,2,versionA_stim.csv,READ_JOLVersionB.csv,"READ Version B",OLD,CHOP,CUT,ON2,F,107,146,JOL,User,-,"How likely are you to correctly recall the second item in the pair?|Type your response on a scale from 0-100 and then press Enter.",Study/JOL,"Study Phase",1112,,,343,823,,,,26,1
w10052154_DJM,d19w035bd3,Emily_Honors_Thesis_Part_2,1,102,2020-05-05T14:58:25-07:00,0.99450898170471,2,versionA_stim.csv,READ_JOLVersionB.csv,"READ Version B",OLD,SPRING,MARCH,Buffer3,Buffer,179,181,JOL,User,-,"How likely are you to correctly recall the second item in the pair?|Type your response on a scale from 0-100 and then press Enter.",Study/JOL,BUFFER2,721,,,111,430,,,,27,1
w10052154_DJM,d19w035bd3,Emily_Honors_Thesis_Part_2,1,103,2020-05-05T14:58:28-07:00,2.647166967392,2,versionA_stim.csv,READ_JOLVersionB.csv,"READ Version B",OLD,ICE,FROZEN,Buffer3,Buffer,94,180,JOL,User,-,"How likely are you to correctly recall the second item in the pair?|Type your response on a scale from 0-100 and then press Enter.",Study/JOL,BUFFER2,2269,,,260,2044,,,,28,1
w10052154_DJM,d19w035bd3,Emily_Honors_Thesis_Part_2,1,104,2020-05-05T14:58:29-07:00,1.1651740074158,2,versionA_stim.csv,READ_JOLVersionB.csv,"READ Version B",OLD,TOOL,SHED,Buffer3,Buffer,178,179,JOL,User,-,"How likely are you to correctly recall the second item in the pair?|Type your response on a scale from 0-100 and then press Enter.",Study/JOL,BUFFER2,860,,,380,603,,,,29,1
w10052154_DJM,d19w035bd3,Emily_Honors_Thesis_Part_2,1,105,2020-05-05T14:58:31-07:00,1.7804179191589,2,versionA_stim.csv,READ_JOLVersionB.csv,"READ Version B",OLD,OCTOBER,SPOOKY,Buffer3,Buffer,180,177,JOL,User,-,"How likely are you to correctly recall the second item in the pair?|Type your response on a scale from 0-100 and then press Enter.",Study/JOL,BUFFER2,1473,,,1025,1248,,,,30,1
w10052154_DJM,d19w035bd3,Emily_Honors_Thesis_Part_2,1,106,2020-05-05T14:58:31-07:00,0.32595896720886,2,versionA_stim.csv,READ_JOLVersionB.csv,"READ Version B",OLD,CAMP,ADVENTURE,Buffer3,Buffer,95,178,JOL,User,-,"How likely are you to correctly recall the second item in the pair?|Type your response on a scale from 0-100 and then press Enter.",Study/JOL,BUFFER2,50,,,-1,-1,,,,,1
w10052154_DJM,d19w035bd3,Emily_Honors_Thesis_Part_2,1,107,2020-05-05T14:58:34-07:00,2.5691390037537,2,versionA_stim.csv,READ_JOLVersionB.csv,"READ Version B",OLD,,,,,,0,Instruct,User,-,"You have completed this section. Please press Enter.",Filler_Instruction,Instruct2,2212,,,-1,-1,,,,,1
w10052154_DJM,d19w035bd3,Emily_Honors_Thesis_Part_2,1,108,2020-05-05T15:00:34-07:00,120.36777114868,2,versionA_stim.csv,READ_JOLVersionB.csv,"READ Version B",OLD,,,,,,0,FreeRecall,120,120,"Please list the 50 US states in alphabetical order. The task will automatically advance to the next screen after two minutes.",,Filler1,120003,"Alabama alaska arizona arkansas california colorado conneticut delaware florida georgia hawaii idaho illinois indiana kansas kentucky louisiana maine maryland massachusetts michigan minnesota mississippi missouri montana nebraska nevada new ham",0,31686,119970,0,0,,,0.899
w10052154_DJM,d19w035bd3,Emily_Honors_Thesis_Part_2,1,109,2020-05-05T15:00:48-07:00,13.453421831131,2,versionA_stim.csv,READ_JOLVersionB.csv,"READ Version B",OLD,,,,,,0,Instruct,-,10,"You will now be presented with the first word from each of the previously studied item pairs. Please type the missing word. If you do not know the word, you may guess or press Enter to skip forward to the next pair.",,Instruct3,13096,,,-1,-1,,,,,0.742
w10052154_DJM,d19w035bd3,Emily_Honors_Thesis_Part_2,1,110,2020-05-05T15:00:51-07:00,3.6464421749115,2,versionA_stim.csv,READ_JOLVersionB.csv,"READ Version B",OLD,SAFETY,SEATBELT,ON2,S,147,175,Test,User,-,,Recall,Recall1,3244,Brief,30.769230769231,2218,2859,0,0,,,1
w10052154_DJM,d19w035bd3,Emily_Honors_Thesis_Part_2,1,111,2020-05-05T15:00:55-07:00,3.2493348121643,2,versionA_stim.csv,READ_JOLVersionB.csv,"READ Version B",OLD,TRUTH,LIE,ON2,S,148,104,Test,User,-,,Recall,Recall1,2887,Lie,100,1775,2726,1,1,,,1
w10052154_DJM,d19w035bd3,Emily_Honors_Thesis_Part_2,1,112,2020-05-05T15:00:57-07:00,2.1231670379639,2,versionA_stim.csv,READ_JOLVersionB.csv,"READ Version B",OLD,CHILL,COLD,ON2,F,114,169,Test,User,-,,Recall,Recall1,1816,cold,100,1343,1687,1,1,,,1
w10052154_DJM,d19w035bd3,Emily_Honors_Thesis_Part_2,1,113,2020-05-05T15:01:02-07:00,5.2926290035248,2,versionA_stim.csv,READ_JOLVersionB.csv,"READ Version B",OLD,OWN,HAVE,ON2,S,153,173,Test,User,-,,Recall,Recall1,4906,Self,25,4393,4744,0,0,,,1
w10052154_DJM,d19w035bd3,Emily_Honors_Thesis_Part_2,1,114,2020-05-05T15:01:06-07:00,3.7119879722595,2,versionA_stim.csv,READ_JOLVersionB.csv,"READ Version B",OLD,TANTRUM,TEMPER,ON2,S,154,125,Test,User,-,,Recall,Recall1,3320,TEMPER,100,1942,3157,1,1,,,1
w10052154_DJM,d19w035bd3,Emily_Honors_Thesis_Part_2,1,115,2020-05-05T15:01:09-07:00,2.9020211696625,2,versionA_stim.csv,READ_JOLVersionB.csv,"READ Version B",OLD,SCALP,HEAD,ON2,F,105,133,Test,User,-,,Recall,Recall1,2543,INDIAN,20,1580,2284,0,0,,,1
w10052154_DJM,d19w035bd3,Emily_Honors_Thesis_Part_2,1,116,2020-05-05T15:01:11-07:00,2.5565857887268,2,versionA_stim.csv,READ_JOLVersionB.csv,"READ Version B",OLD,EXTENSION,LONG,ON2,F,96,143,Test,User,-,,Recall,Recall1,2196,LONG,100,1652,2066,1,1,,,1
w10052154_DJM,d19w035bd3,Emily_Honors_Thesis_Part_2,1,117,2020-05-05T15:01:14-07:00,3.1467289924622,2,versionA_stim.csv,READ_JOLVersionB.csv,"READ Version B",OLD,EARTH,GROUND,ON2,S,144,161,Test,User,-,,Recall,Recall1,2776,GROUND,100,1822,2613,1,1,,,1
w10052154_DJM,d19w035bd3,Emily_Honors_Thesis_Part_2,1,118,2020-05-05T15:01:18-07:00,3.9527661800385,2,versionA_stim.csv,READ_JOLVersionB.csv,"READ Version B",OLD,MAZE,ELECTION,ON2,U,159,115,Test,User,-,,Recall,Recall1,3594,CORN,50,2856,3304,0,0,,,1
w10052154_DJM,d19w035bd3,Emily_Honors_Thesis_Part_2,1,119,2020-05-05T15:01:22-07:00,3.9528028964996,2,versionA_stim.csv,READ_JOLVersionB.csv,"READ Version B",OLD,HONEST,TRUTHFUL,ON2,B,133,150,Test,User,-,,Recall,Recall1,3561,TRUTH,76.923076923077,2792,3304,0,1,,,1
w10052154_DJM,d19w035bd3,Emily_Honors_Thesis_Part_2,1,120,2020-05-05T15:01:29-07:00,6.2439961433411,2,versionA_stim.csv,READ_JOLVersionB.csv,"READ Version B",OLD,MEAT,OBTAIN,ON2,U,161,151,Test,User,-,,Recall,Recall1,5843,LOVE,20,5138,5553,0,0,,,1
w10052154_DJM,d19w035bd3,Emily_Honors_Thesis_Part_2,1,121,2020-05-05T15:01:31-07:00,2.288783788681,2,versionA_stim.csv,READ_JOLVersionB.csv,"READ Version B",OLD,DRY,WET,ON2,S,146,167,Test,User,-,,Recall,Recall1,1833,WET,100,968,1512,1,1,,,1
w10052154_DJM,d19w035bd3,Emily_Honors_Thesis_Part_2,1,122,2020-05-05T15:01:33-07:00,2.3028481006622,2,versionA_stim.csv,READ_JOLVersionB.csv,"READ Version B",OLD,CAT,PANTHER,ON2,B,126,159,Test,User,-,,Recall,Recall1,1879,DOG,0,1014,1494,0,0,,,1
w10052154_DJM,d19w035bd3,Emily_Honors_Thesis_Part_2,1,123,2020-05-05T15:01:38-07:00,4.6792690753937,2,versionA_stim.csv,READ_JOLVersionB.csv,"READ Version B",OLD,FEUD,FIGHT,ON2,F,113,120,Test,User,-,,Recall,Recall1,4294,WAR,0,3909,4165,0,0,,,1
w10052154_DJM,d19w035bd3,Emily_Honors_Thesis_Part_2,1,124,2020-05-05T15:01:41-07:00,2.740553855896,2,versionA_stim.csv,READ_JOLVersionB.csv,"READ Version B",OLD,FUZZY,BANG,ON2,U,168,172,Test,User,-,,Recall,Recall1,2385,DOG,28.571428571429,1937,2224,0,0,,,1
w10052154_DJM,d19w035bd3,Emily_Honors_Thesis_Part_2,1,125,2020-05-05T15:01:49-07:00,8.352658033371,2,versionA_stim.csv,READ_JOLVersionB.csv,"READ Version B",OLD,ROD,REEL,ON2,S,150,145,Test,User,-,,Recall,Recall1,7991,WHEEL,66.666666666667,7221,7764,0,0,,,1
w10052154_DJM,d19w035bd3,Emily_Honors_Thesis_Part_2,1,126,2020-05-05T15:01:53-07:00,3.7937080860138,2,versionA_stim.csv,READ_JOLVersionB.csv,"READ Version B",OLD,LITTER,TRASH,ON2,F,103,136,Test,User,-,,Recall,Recall1,3405,KITTENS,33.333333333333,2476,3244,0,0,,,1
w10052154_DJM,d19w035bd3,Emily_Honors_Thesis_Part_2,1,127,2020-05-05T15:01:56-07:00,2.818589925766,2,versionA_stim.csv,READ_JOLVersionB.csv,"READ Version B",OLD,FISH,SARDINE,ON2,B,130,157,Test,User,-,,Recall,Recall1,2454,JESUS,16.666666666667,1940,2355,0,0,,,1
w10052154_DJM,d19w035bd3,Emily_Honors_Thesis_Part_2,1,128,2020-05-05T15:01:58-07:00,2.903911113739,2,versionA_stim.csv,READ_JOLVersionB.csv,"READ Version B",OLD,CANDLE,WAX,ON2,S,139,106,Test,User,-,,Recall,Recall1,2527,LIGHT,0,2014,2398,0,0,,,1
w10052154_DJM,d19w035bd3,Emily_Honors_Thesis_Part_2,1,129,2020-05-05T15:02:01-07:00,2.3047549724579,2,versionA_stim.csv,READ_JOLVersionB.csv,"READ Version B",OLD,RIGHTS,EQUAL,ON2,S,137,156,Test,User,-,,Recall,Recall1,1882,EQUAL,100,1144,1720,1,1,,,1
w10052154_DJM,d19w035bd3,Emily_Honors_Thesis_Part_2,1,130,2020-05-05T15:02:03-07:00,2.3644909858704,2,versionA_stim.csv,READ_JOLVersionB.csv,"READ Version B",OLD,SHEARS,SCISSORS,ON2,F,112,149,Test,User,-,,Recall,Recall1,1993,SHEEP,15.384615384615,1392,1807,0,0,,,1
w10052154_DJM,d19w035bd3,Emily_Honors_Thesis_Part_2,1,131,2020-05-05T15:02:06-07:00,2.6533379554749,2,versionA_stim.csv,READ_JOLVersionB.csv,"READ Version B",OLD,FLEA,TICK,ON2,S,151,134,Test,User,-,,Recall,Recall1,2280,TICK,100,1831,2120,1,1,,,1
w10052154_DJM,d19w035bd3,Emily_Honors_Thesis_Part_2,1,132,2020-05-05T15:02:09-07:00,3.4155569076538,2,versionA_stim.csv,READ_JOLVersionB.csv,"READ Version B",OLD,MOAT,CLEAR,ON2,U,169,100,Test,User,-,,Recall,Recall1,3048,CLEAR,100,2512,2855,1,1,,,1
w10052154_DJM,d19w035bd3,Emily_Honors_Thesis_Part_2,1,133,2020-05-05T15:02:13-07:00,3.7646090984344,2,versionA_stim.csv,READ_JOLVersionB.csv,"READ Version B",OLD,BASEBALL,LEAGUE,ON2,B,131,138,Test,User,-,,Recall,Recall1,3378,BAT,22.222222222222,2961,3216,0,0,,,1
w10052154_DJM,d19w035bd3,Emily_Honors_Thesis_Part_2,1,134,2020-05-05T15:02:20-07:00,7.1086390018463,2,versionA_stim.csv,READ_JOLVersionB.csv,"READ Version B",OLD,NAME,HATE,ON2,U,167,126,Test,User,-,,Recall,Recall1,6754,PLATE,66.666666666667,6086,6560,0,0,,,1
w10052154_DJM,d19w035bd3,Emily_Honors_Thesis_Part_2,1,135,2020-05-05T15:02:23-07:00,2.6641049385071,2,versionA_stim.csv,READ_JOLVersionB.csv,"READ Version B",OLD,GIVE,STEAK,ON2,U,158,121,Test,User,-,,Recall,Recall1,2270,TAKE,66.666666666667,1820,2140,0,0,,,1
w10052154_DJM,d19w035bd3,Emily_Honors_Thesis_Part_2,1,136,2020-05-05T15:02:26-07:00,3.1887350082397,2,versionA_stim.csv,READ_JOLVersionB.csv,"READ Version B",OLD,BOTH,OUNCE,ON2,U,172,112,Test,User,-,,Recall,Recall1,2816,NEITHER,33.333333333333,2175,2655,0,0,,,1
w10052154_DJM,d19w035bd3,Emily_Honors_Thesis_Part_2,1,137,2020-05-05T15:02:29-07:00,3.1931121349335,2,versionA_stim.csv,READ_JOLVersionB.csv,"READ Version B",OLD,MONEY,BANKER,ON2,B,132,176,Test,User,-,,Recall,Recall1,2825,BANKER,100,1831,2375,1,1,,,1
w10052154_DJM,d19w035bd3,Emily_Honors_Thesis_Part_2,1,138,2020-05-05T15:02:32-07:00,3.1680018901825,2,versionA_stim.csv,READ_JOLVersionB.csv,"READ Version B",OLD,JUSTICE,MAROON,ON2,U,156,174,Test,User,-,,Recall,Recall1,2795,LEAGUE,16.666666666667,1643,2378,0,0,,,1
w10052154_DJM,d19w035bd3,Emily_Honors_Thesis_Part_2,1,139,2020-05-05T15:02:36-07:00,3.4819760322571,2,versionA_stim.csv,READ_JOLVersionB.csv,"READ Version B",OLD,BAD,VILLAIN,ON2,B,118,118,Test,User,-,,Recall,Recall1,3113,WOLF,18.181818181818,2631,2951,0,0,,,1
w10052154_DJM,d19w035bd3,Emily_Honors_Thesis_Part_2,1,140,2020-05-05T15:02:38-07:00,2.2973010540009,2,versionA_stim.csv,READ_JOLVersionB.csv,"READ Version B",OLD,GONE,AWAY,ON2,S,142,130,Test,User,-,,Recall,Recall1,1868,WILD,25,1419,1770,0,0,,,1
w10052154_DJM,d19w035bd3,Emily_Honors_Thesis_Part_2,1,141,2020-05-05T15:02:40-07:00,2.4817888736725,2,versionA_stim.csv,READ_JOLVersionB.csv,"READ Version B",OLD,AFFECTION,LOVE,ON2,F,115,102,Test,User,-,,Recall,Recall1,2105,LOVE,100,1639,2008,1,1,,,1
w10052154_DJM,d19w035bd3,Emily_Honors_Thesis_Part_2,1,142,2020-05-05T15:02:53-07:00,12.332855939865,2,versionA_stim.csv,READ_JOLVersionB.csv,"READ Version B",OLD,CACTUS,PLANT,ON2,F,98,122,Test,User,-,,Recall,Recall1,11954,PAIN,66.666666666667,2590,11191,0,0,,,1
w10052154_DJM,d19w035bd3,Emily_Honors_Thesis_Part_2,1,143,2020-05-05T15:02:55-07:00,2.5717220306396,2,versionA_stim.csv,READ_JOLVersionB.csv,"READ Version B",OLD,BIRD,PENGUIN,ON2,B,119,99,Test,User,-,,Recall,Recall1,2212,FLY,0,1827,2051,0,0,,,1
w10052154_DJM,d19w035bd3,Emily_Honors_Thesis_Part_2,1,144,2020-05-05T15:03:02-07:00,6.2353119850159,2,versionA_stim.csv,READ_JOLVersionB.csv,"READ Version B",OLD,DINE,EAT,ON2,F,111,116,Test,User,-,,Recall,Recall1,5834,ENID,28.571428571429,4392,4968,0,0,,,1
w10052154_DJM,d19w035bd3,Emily_Honors_Thesis_Part_2,1,145,2020-05-05T15:03:05-07:00,3.4166541099548,2,versionA_stim.csv,READ_JOLVersionB.csv,"READ Version B",OLD,LEASE,TOIL,ON2,U,170,108,Test,User,-,,Recall,Recall1,3047,RENT,25,2406,2885,0,0,,,1
w10052154_DJM,d19w035bd3,Emily_Honors_Thesis_Part_2,1,146,2020-05-05T15:03:08-07:00,2.6897161006927,2,versionA_stim.csv,READ_JOLVersionB.csv,"READ Version B",OLD,DOCUMENT,PAPER,ON2,F,109,127,Test,User,-,,Recall,Recall1,2319,PAPER,100,1743,2125,1,1,,,1
w10052154_DJM,d19w035bd3,Emily_Honors_Thesis_Part_2,1,147,2020-05-05T15:03:21-07:00,12.783900976181,2,versionA_stim.csv,READ_JOLVersionB.csv,"READ Version B",OLD,VEHICLE,CHARM,ON2,U,160,111,Test,User,-,,Recall,Recall1,12409,SEAT,22.222222222222,7488,12215,0,0,,,1
w10052154_DJM,d19w035bd3,Emily_Honors_Thesis_Part_2,1,148,2020-05-05T15:03:24-07:00,3.4787969589233,2,versionA_stim.csv,READ_JOLVersionB.csv,"READ Version B",OLD,MIRROR,CHILDREN,ON2,U,174,163,Test,User,-,,Recall,Recall1,3105,CHILDREN,100,2089,2912,1,1,,,1
w10052154_DJM,d19w035bd3,Emily_Honors_Thesis_Part_2,1,149,2020-05-05T15:03:36-07:00,11.535039901733,2,versionA_stim.csv,READ_JOLVersionB.csv,"READ Version B",OLD,POP,BALLOON,ON2,B,123,165,Test,User,-,,Recall,Recall1,11174,"IT IS COKE YOU HEATHENS",20,4436,10533,0,0,,,1
w10052154_DJM,d19w035bd3,Emily_Honors_Thesis_Part_2,1,150,2020-05-05T15:04:35-07:00,59.238883972168,2,versionA_stim.csv,READ_JOLVersionB.csv,"READ Version B",OLD,PHONE,COMMUNICATION,ON2,S,149,142,Test,User,-,,Recall,Recall1,58874,ALARM,11.111111111111,58232,58680,0,0,,,0.132
w10052154_DJM,d19w035bd3,Emily_Honors_Thesis_Part_2,1,151,2020-05-05T15:04:38-07:00,2.9232561588287,2,versionA_stim.csv,READ_JOLVersionB.csv,"READ Version B",OLD,WRIST,BRACELET,ON2,S,140,101,Test,User,-,,Recall,Recall1,2508,WATCH,30.769230769231,1803,2315,0,0,,,1
w10052154_DJM,d19w035bd3,Emily_Honors_Thesis_Part_2,1,152,2020-05-05T15:04:40-07:00,1.9348030090332,2,versionA_stim.csv,READ_JOLVersionB.csv,"READ Version B",OLD,SHELL,SHAKE,ON2,U,163,97,Test,User,-,,Recall,Recall1,1626,GAME,44.444444444444,1209,1560,0,0,,,1
w10052154_DJM,d19w035bd3,Emily_Honors_Thesis_Part_2,1,153,2020-05-05T15:04:42-07:00,2.5531179904938,2,versionA_stim.csv,READ_JOLVersionB.csv,"READ Version B",OLD,KEYS,JOKE,ON2,U,165,171,Test,User,-,,Recall,Recall1,2193,CAR,0,1840,2064,0,0,,,1
w10052154_DJM,d19w035bd3,Emily_Honors_Thesis_Part_2,1,154,2020-05-05T15:04:46-07:00,3.4197878837585,2,versionA_stim.csv,READ_JOLVersionB.csv,"READ Version B",OLD,WATER,DRINK,ON2,S,143,170,Test,User,-,,Recall,Recall1,3043,WET,0,2595,2883,0,0,,,1
w10052154_DJM,d19w035bd3,Emily_Honors_Thesis_Part_2,1,155,2020-05-05T15:04:48-07:00,2.1717159748077,2,versionA_stim.csv,READ_JOLVersionB.csv,"READ Version B",OLD,STAR,ACTRESS,ON2,B,120,129,Test,User,-,,Recall,Recall1,1801,WARS,54.545454545455,1319,1671,0,0,,,1
w10052154_DJM,d19w035bd3,Emily_Honors_Thesis_Part_2,1,156,2020-05-05T15:04:50-07:00,2.4330041408539,2,versionA_stim.csv,READ_JOLVersionB.csv,"READ Version B",OLD,ALONE,LONELY,ON2,S,145,147,Test,User,-,,Recall,Recall1,2060,LONELY,100,1331,1930,1,1,,,1
w10052154_DJM,d19w035bd3,Emily_Honors_Thesis_Part_2,1,157,2020-05-05T15:04:53-07:00,2.3610420227051,2,versionA_stim.csv,READ_JOLVersionB.csv,"READ Version B",OLD,CLUE,GAME,ON2,F,97,160,Test,User,-,,Recall,Recall1,1979,GAME,100,1561,1912,1,1,,,1
w10052154_DJM,d19w035bd3,Emily_Honors_Thesis_Part_2,1,158,2020-05-05T15:04:54-07:00,1.8430829048157,2,versionA_stim.csv,READ_JOLVersionB.csv,"READ Version B",OLD,BEST,FAVORITE,ON2,B,125,144,Test,User,-,,Recall,Recall1,1527,BUY,0,1047,1398,0,0,,,1
w10052154_DJM,d19w035bd3,Emily_Honors_Thesis_Part_2,1,159,2020-05-05T15:05:16-07:00,22.012378931046,2,versionA_stim.csv,READ_JOLVersionB.csv,"READ Version B",OLD,DEAD,COFFIN,ON2,B,128,148,Test,User,-,,Recall,Recall1,21620,"I WISH",16.666666666667,20979,21426,0,0,,,1
w10052154_DJM,d19w035bd3,Emily_Honors_Thesis_Part_2,1,160,2020-05-05T15:05:20-07:00,3.4394810199738,2,versionA_stim.csv,READ_JOLVersionB.csv,"READ Version B",OLD,CHERRY,RED,ON2,F,104,166,Test,User,-,,Recall,Recall1,3045,POPPER,22.222222222222,1420,2891,0,0,,,1
w10052154_DJM,d19w035bd3,Emily_Honors_Thesis_Part_2,1,161,2020-05-05T15:05:23-07:00,3.3917391300201,2,versionA_stim.csv,READ_JOLVersionB.csv,"READ Version B",OLD,RAZOR,SHAVE,ON2,S,136,140,Test,User,-,,Recall,Recall1,3025,SHARP,60,2449,2803,0,0,,,1
w10052154_DJM,d19w035bd3,Emily_Honors_Thesis_Part_2,1,162,2020-05-05T15:05:26-07:00,3.1350758075714,2,versionA_stim.csv,READ_JOLVersionB.csv,"READ Version B",OLD,TURN,FLIP,ON2,B,116,139,Test,User,-,,Recall,Recall1,2742,TABLE,22.222222222222,1916,2515,0,0,,,1
w10052154_DJM,d19w035bd3,Emily_Honors_Thesis_Part_2,1,163,2020-05-05T15:05:31-07:00,5.0217490196228,2,versionA_stim.csv,READ_JOLVersionB.csv,"READ Version B",OLD,CRACKLE,ABLE,ON2,U,162,110,Test,User,-,,Recall,Recall1,4647,ABLE,100,2309,4550,1,1,,,1
w10052154_DJM,d19w035bd3,Emily_Honors_Thesis_Part_2,1,164,2020-05-05T15:05:34-07:00,2.8409130573273,2,versionA_stim.csv,READ_JOLVersionB.csv,"READ Version B",OLD,SLEEP,NAP,ON2,B,134,131,Test,User,-,,Recall,Recall1,2470,DEPRIVED,18.181818181818,1284,2340,0,0,,,1
w10052154_DJM,d19w035bd3,Emily_Honors_Thesis_Part_2,1,165,2020-05-05T15:05:37-07:00,2.6425840854645,2,versionA_stim.csv,READ_JOLVersionB.csv,"READ Version B",OLD,LOAN,SIGN,ON2,U,171,123,Test,User,-,,Recall,Recall1,2215,SHARK,22.222222222222,1670,2053,0,0,,,1
w10052154_DJM,d19w035bd3,Emily_Honors_Thesis_Part_2,1,166,2020-05-05T15:05:40-07:00,3.4059760570526,2,versionA_stim.csv,READ_JOLVersionB.csv,"READ Version B",OLD,SHOELACE,TIE,ON2,F,99,162,Test,User,-,,Recall,Recall1,3020,TIE,100,2507,2698,1,1,,,1
w10052154_DJM,d19w035bd3,Emily_Honors_Thesis_Part_2,1,167,2020-05-05T15:05:43-07:00,3.0290508270264,2,versionA_stim.csv,READ_JOLVersionB.csv,"READ Version B",OLD,CHOP,CUT,ON2,F,107,146,Test,User,-,,Recall,Recall1,2664,CHOP,28.571428571429,1350,2182,0,0,,,1
w10052154_DJM,d19w035bd3,Emily_Honors_Thesis_Part_2,1,168,2020-05-05T15:05:48-07:00,4.5010690689087,2,versionA_stim.csv,READ_JOLVersionB.csv,"READ Version B",OLD,MASON,JAR,ON2,S,138,114,Test,User,-,,Recall,Recall1,4122,GUILD,0,3353,3960,0,0,,,1
w10052154_DJM,d19w035bd3,Emily_Honors_Thesis_Part_2,1,169,2020-05-05T15:05:51-07:00,3.1955649852753,2,versionA_stim.csv,READ_JOLVersionB.csv,"READ Version B",OLD,MAIN,SCAR,ON2,U,175,128,Test,User,-,,Recall,Recall1,2833,SQUEEZE,18.181818181818,1656,2575,0,0,,,1
w10052154_DJM,d19w035bd3,Emily_Honors_Thesis_Part_2,1,170,2020-05-05T15:06:38-07:00,46.555483102798,2,versionA_stim.csv,READ_JOLVersionB.csv,"READ Version B",OLD,TEMPERATURE,MORNING,ON2,U,173,155,Test,User,-,,Recall,Recall1,46171,HOT,20,45690,45881,0,0,,,0.251
w10052154_DJM,d19w035bd3,Emily_Honors_Thesis_Part_2,1,171,2020-05-05T15:06:40-07:00,2.3531329631805,2,versionA_stim.csv,READ_JOLVersionB.csv,"READ Version B",OLD,LISTEN,FICTION,ON2,U,164,158,Test,User,-,,Recall,Recall1,1973,HERE,0,1587,1811,0,0,,,1
w10052154_DJM,d19w035bd3,Emily_Honors_Thesis_Part_2,1,172,2020-05-05T15:06:50-07:00,9.908802986145,2,versionA_stim.csv,READ_JOLVersionB.csv,"READ Version B",OLD,ELEMENT,CARBON,ON2,S,141,135,Test,User,-,,Recall,Recall1,9517,FIRE,20,4627,9354,0,0,,,1
w10052154_DJM,d19w035bd3,Emily_Honors_Thesis_Part_2,1,173,2020-05-05T15:06:57-07:00,6.705708026886,2,versionA_stim.csv,READ_JOLVersionB.csv,"READ Version B",OLD,PLANE,AIRCRAFT,ON2,B,129,124,Test,User,-,,Recall,Recall1,6345,FLIGHT,28.571428571429,4071,5767,0,0,,,1
w10052154_DJM,d19w035bd3,Emily_Honors_Thesis_Part_2,1,174,2020-05-05T15:07:00-07:00,3.6196668148041,2,versionA_stim.csv,READ_JOLVersionB.csv,"READ Version B",OLD,LOUD,NOISE,ON2,S,152,113,Test,User,-,,Recall,Recall1,3260,NOISE,100,1979,3162,1,1,,,1
w10052154_DJM,d19w035bd3,Emily_Honors_Thesis_Part_2,1,175,2020-05-05T15:07:05-07:00,4.5487680435181,2,versionA_stim.csv,READ_JOLVersionB.csv,"READ Version B",OLD,STRETCH,CLOTH,ON2,U,157,109,Test,User,-,,Recall,Recall1,4164,ARMSTRONG,14.285714285714,3043,4035,0,0,,,1
w10052154_DJM,d19w035bd3,Emily_Honors_Thesis_Part_2,1,176,2020-05-05T15:07:07-07:00,2.4825620651245,2,versionA_stim.csv,READ_JOLVersionB.csv,"READ Version B",OLD,DRIVER,CAR,ON2,F,106,105,Test,User,-,,Recall,Recall1,2120,CAR,100,1766,1990,1,1,,,1
w10052154_DJM,d19w035bd3,Emily_Honors_Thesis_Part_2,1,177,2020-05-05T15:07:10-07:00,3.0070040225983,2,versionA_stim.csv,READ_JOLVersionB.csv,"READ Version B",OLD,DETECTIVE,MYSTERY,ON2,F,100,98,Test,User,-,,Recall,Recall1,2639,MYSTERY,100,1645,2540,1,1,,,1
w10052154_DJM,d19w035bd3,Emily_Honors_Thesis_Part_2,1,178,2020-05-05T15:07:13-07:00,2.6806218624115,2,versionA_stim.csv,READ_JOLVersionB.csv,"READ Version B",OLD,INCENSE,SMELL,ON2,F,110,137,Test,User,-,,Recall,Recall1,2316,BURNER,18.181818181818,1548,2155,0,0,,,1
w10052154_DJM,d19w035bd3,Emily_Honors_Thesis_Part_2,1,179,2020-05-05T15:07:16-07:00,2.8144721984863,2,versionA_stim.csv,READ_JOLVersionB.csv,"READ Version B",OLD,MULE,DONKEY,ON2,F,108,103,Test,User,-,,Recall,Recall1,2443,DONKEY,100,1674,2313,1,1,,,1
w10052154_DJM,d19w035bd3,Emily_Honors_Thesis_Part_2,1,180,2020-05-05T15:07:20-07:00,4.1988739967346,2,versionA_stim.csv,READ_JOLVersionB.csv,"READ Version B",OLD,FURRY,DOG,ON2,F,102,153,Test,User,-,,Recall,Recall1,3802,DEGENERATE,30.769230769231,2360,3320,0,0,,,1
w10052154_DJM,d19w035bd3,Emily_Honors_Thesis_Part_2,1,181,2020-05-05T15:07:39-07:00,19.450134992599,2,versionA_stim.csv,READ_JOLVersionB.csv,"READ Version B",OLD,FRUIT,STRAWBERRY,ON2,B,124,152,Test,User,-,,Recall,Recall1,19043,STRAWBERRY,100,17289,18850,1,1,,,0.292
w10052154_DJM,d19w035bd3,Emily_Honors_Thesis_Part_2,1,182,2020-05-05T15:07:44-07:00,4.8020470142365,2,versionA_stim.csv,READ_JOLVersionB.csv,"READ Version B",OLD,THREAD,THIMBLE,ON2,B,121,141,Test,User,-,,Recall,Recall1,4424,LOOSE,33.333333333333,3688,4296,0,0,,,1
w10052154_DJM,d19w035bd3,Emily_Honors_Thesis_Part_2,1,183,2020-05-05T15:07:46-07:00,1.9505479335785,2,versionA_stim.csv,READ_JOLVersionB.csv,"READ Version B",OLD,SUN,TAN,ON2,S,155,119,Test,User,-,,Recall,Recall1,1636,TAN,100,1282,1474,1,1,,,1
w10052154_DJM,d19w035bd3,Emily_Honors_Thesis_Part_2,1,184,2020-05-05T15:07:52-07:00,6.3874380588531,2,versionA_stim.csv,READ_JOLVersionB.csv,"READ Version B",OLD,ADJOURN,END,ON2,F,101,164,Test,User,-,,Recall,Recall1,6015,"BJORN THE FEL-HANDED",26.086956521739,2885,5821,0,0,,,1
w10052154_DJM,d19w035bd3,Emily_Honors_Thesis_Part_2,1,185,2020-05-05T15:07:59-07:00,6.3114848136902,2,versionA_stim.csv,READ_JOLVersionB.csv,"READ Version B",OLD,GLASS,BREAKABLE,ON2,B,127,168,Test,User,-,,Recall,Recall1,5927,"HALF EMPTY",31.578947368421,2637,5572,0,0,,,1
w10052154_DJM,d19w035bd3,Emily_Honors_Thesis_Part_2,1,186,2020-05-05T15:08:02-07:00,3.3627610206604,2,versionA_stim.csv,READ_JOLVersionB.csv,"READ Version B",OLD,CAR,WINDSHIELD,ON2,B,117,154,Test,User,-,,Recall,Recall1,2954,WASH,42.857142857143,1320,2696,0,0,,,1
w10052154_DJM,d19w035bd3,Emily_Honors_Thesis_Part_2,1,187,2020-05-05T15:08:08-07:00,5.3473041057587,2,versionA_stim.csv,READ_JOLVersionB.csv,"READ Version B",OLD,FIGHT,BRAWL,ON2,B,135,117,Test,User,-,,Recall,Recall1,4982,KISS,0,4373,4788,0,0,,,1
w10052154_DJM,d19w035bd3,Emily_Honors_Thesis_Part_2,1,188,2020-05-05T15:09:13-07:00,65.915155887604,2,versionA_stim.csv,READ_JOLVersionB.csv,"READ Version B",OLD,EVEN,REVENGE,ON2,B,122,132,Test,User,-,,Recall,Recall1,65552,STEVENS,57.142857142857,64430,65358,0,0,,,0.07
w10052154_DJM,d19w035bd3,Emily_Honors_Thesis_Part_2,1,189,2020-05-05T15:09:16-07:00,2.6393539905548,2,versionA_stim.csv,READ_JOLVersionB.csv,"READ Version B",OLD,CAKE,CLOTHES,ON2,U,166,107,Test,User,-,,Recall,Recall1,2244,FAT,20,1867,2083,0,0,,,1
w10052154_DJM,d19w035bd3,Emily_Honors_Thesis_Part_2,1,190,2020-05-05T15:09:33-07:00,16.780431032181,2,versionA_stim.csv,READ_JOLVersionB.csv,"READ Version B",OLD,,,,,,0,Instruct,-,10,"You will now be presented with a new set of word pairs. Please study each pair. Remember that your memory will be tested! When finished, press Enter to move to the next pair.",Initial_Instruct,Instruct4,16404,,,-1,-1,,,,,0.659
w10052154_DJM,d19w035bd3,Emily_Honors_Thesis_Part_2,1,191,2020-05-05T15:09:44-07:00,11.098062992096,2,versionA_stim.csv,READ_JOLVersionB.csv,"READ Version B",OLD,,,,,,0,Instruct,,10,"You will again be asked to rate your ability to remember these items using a 0 to 100 scale. Remember to use the full range of the scale!",,Instruct10,10724,,,-1,-1,,,,,1
w10052154_DJM,d19w035bd3,Emily_Honors_Thesis_Part_2,1,192,2020-05-05T15:09:45-07:00,1.3893630504608,2,versionA_stim.csv,READ_JOLVersionB.csv,"READ Version B",OLD,,,,,,0,Instruct,User,-,"Press Enter when you are readty to begin",,Instruct11,1087,,,-1,-1,,,,,1
w10052154_DJM,d19w035bd3,Emily_Honors_Thesis_Part_2,1,193,2020-05-05T15:09:49-07:00,3.9807660579681,2,versionA_stim.csv,READ_JOLVersionB.csv,"READ Version B",OLD,TREES,GREEN,Buffer,Buffer,1,4,JOL,User,-,"How likely are you to correctly recall the second item in the pair?|Type your response on a scale from 0-100 and then press Enter.",Study/JOL,BUFFER3,3611,,,3099,3386,,,,100,1
w10052154_DJM,d19w035bd3,Emily_Honors_Thesis_Part_2,1,194,2020-05-05T15:09:52-07:00,2.9122610092163,2,versionA_stim.csv,READ_JOLVersionB.csv,"READ Version B",OLD,BASEBALL,CATCHER,Buffer,Buffer,2,2,JOL,User,-,"How likely are you to correctly recall the second item in the pair?|Type your response on a scale from 0-100 and then press Enter.",Study/JOL,BUFFER3,2525,,,2171,2299,,,,85,1
w10052154_DJM,d19w035bd3,Emily_Honors_Thesis_Part_2,1,195,2020-05-05T15:09:55-07:00,2.4556338787079,2,versionA_stim.csv,READ_JOLVersionB.csv,"READ Version B",OLD,PEANUT,BUTTER,Buffer,Buffer,3,6,JOL,User,-,"How likely are you to correctly recall the second item in the pair?|Type your response on a scale from 0-100 and then press Enter.",Study/JOL,BUFFER3,2089,,,1768,1927,,,,85,1
w10052154_DJM,d19w035bd3,Emily_Honors_Thesis_Part_2,1,196,2020-05-05T15:09:56-07:00,1.5726511478424,2,versionA_stim.csv,READ_JOLVersionB.csv,"READ Version B",OLD,SCARE,HIDE,Buffer,Buffer,4,3,JOL,User,-,"How likely are you to correctly recall the second item in the pair?|Type your response on a scale from 0-100 and then press Enter.",Study/JOL,BUFFER3,1264,,,944,1103,,,,85,1
w10052154_DJM,d19w035bd3,Emily_Honors_Thesis_Part_2,1,197,2020-05-05T15:09:57-07:00,0.87554287910461,2,versionA_stim.csv,READ_JOLVersionB.csv,"READ Version B",OLD,SPACE,JAM,Buffer,Buffer,5,5,JOL,User,-,"How likely are you to correctly recall the second item in the pair?|Type your response on a scale from 0-100 and then press Enter.",Study/JOL,BUFFER3,544,,,96,319,,,,85,1
w10052154_DJM,d19w035bd3,Emily_Honors_Thesis_Part_2,1,198,2020-05-05T15:09:58-07:00,1.1298651695251,2,versionA_stim.csv,READ_JOLVersionB.csv,"READ Version B",OLD,HORNET,STING,ON,F,11,79,JOL,User,-,"How likely are you to correctly recall the second item in the pair?|Type your response on a scale from 0-100 and then press Enter.",Study/JOL,"Study Phase2",862,,,125,125,,,,5,1
w10052154_DJM,d19w035bd3,Emily_Honors_Thesis_Part_2,1,199,2020-05-05T15:09:59-07:00,0.83170080184937,2,versionA_stim.csv,READ_JOLVersionB.csv,"READ Version B",OLD,BUG,WASP,ON,B,32,64,JOL,User,-,"How likely are you to correctly recall the second item in the pair?|Type your response on a scale from 0-100 and then press Enter.",Study/JOL,"Study Phase2",561,,,145,336,,,,85,1
w10052154_DJM,d19w035bd3,Emily_Honors_Thesis_Part_2,1,200,2020-05-05T15:10:00-07:00,0.86921906471252,2,versionA_stim.csv,READ_JOLVersionB.csv,"READ Version B",OLD,MACHINE,POSITION,ON,U,76,33,JOL,User,-,"How likely are you to correctly recall the second item in the pair?|Type your response on a scale from 0-100 and then press Enter.",Study/JOL,"Study Phase2",591,,,143,366,,,,85,1
w10052154_DJM,d19w035bd3,Emily_Honors_Thesis_Part_2,1,201,2020-05-05T15:10:02-07:00,1.7564280033112,2,versionA_stim.csv,READ_JOLVersionB.csv,"READ Version B",OLD,HUNGER,FAMINE,ON,B,40,11,JOL,User,-,"How likely are you to correctly recall the second item in the pair?|Type your response on a scale from 0-100 and then press Enter.",Study/JOL,"Study Phase2",1476,,,388,547,,,,85,1
w10052154_DJM,d19w035bd3,Emily_Honors_Thesis_Part_2,1,202,2020-05-05T15:10:05-07:00,2.9530560970306,2,versionA_stim.csv,READ_JOLVersionB.csv,"READ Version B",OLD,SLEEP,DROWSY,ON,B,41,54,JOL,User,-,"How likely are you to correctly recall the second item in the pair?|Type your response on a scale from 0-100 and then press Enter.",Study/JOL,"Study Phase2",2593,,,2047,2399,,,,100,1
w10052154_DJM,d19w035bd3,Emily_Honors_Thesis_Part_2,1,203,2020-05-05T15:10:07-07:00,2.5457768440247,2,versionA_stim.csv,READ_JOLVersionB.csv,"READ Version B",OLD,BITTER,COLD,ON,F,12,47,JOL,User,-,"How likely are you to correctly recall the second item in the pair?|Type your response on a scale from 0-100 and then press Enter.",Study/JOL,"Study Phase2",2161,,,1905,2064,,,,85,1
w10052154_DJM,d19w035bd3,Emily_Honors_Thesis_Part_2,1,204,2020-05-05T15:10:09-07:00,2.0492141246796,2,versionA_stim.csv,READ_JOLVersionB.csv,"READ Version B",OLD,FIX,HAND,ON,U,75,17,JOL,User,-,"How likely are you to correctly recall the second item in the pair?|Type your response on a scale from 0-100 and then press Enter.",Study/JOL,"Study Phase2",1757,,,1532,1628,,,,12,1
w10052154_DJM,d19w035bd3,Emily_Honors_Thesis_Part_2,1,205,2020-05-05T15:10:15-07:00,6.0044429302216,2,versionA_stim.csv,READ_JOLVersionB.csv,"READ Version B",OLD,DEBATE,SIGHT,ON,U,73,23,JOL,User,-,"How likely are you to correctly recall the second item in the pair?|Type your response on a scale from 0-100 and then press Enter.",Study/JOL,"Study Phase2",5652,,,5458,5651,,,,03,1
w10052154_DJM,d19w035bd3,Emily_Honors_Thesis_Part_2,1,206,2020-05-05T15:10:18-07:00,2.9884099960327,2,versionA_stim.csv,READ_JOLVersionB.csv,"READ Version B",OLD,BABY,CHILD,ON,S,64,50,JOL,User,-,"How likely are you to correctly recall the second item in the pair?|Type your response on a scale from 0-100 and then press Enter.",Study/JOL,"Study Phase2",2603,,,2154,2409,,,,10,1
w10052154_DJM,d19w035bd3,Emily_Honors_Thesis_Part_2,1,207,2020-05-05T15:10:21-07:00,2.8654329776764,2,versionA_stim.csv,READ_JOLVersionB.csv,"READ Version B",OLD,HAPPY,CAR,ON,U,77,77,JOL,User,-,"How likely are you to correctly recall the second item in the pair?|Type your response on a scale from 0-100 and then press Enter.",Study/JOL,"Study Phase2",2505,,,2307,2307,,,,0,1
w10052154_DJM,d19w035bd3,Emily_Honors_Thesis_Part_2,1,208,2020-05-05T15:10:24-07:00,2.9367301464081,2,versionA_stim.csv,READ_JOLVersionB.csv,"READ Version B",OLD,MATH,DIVISION,ON,B,33,15,JOL,User,-,"How likely are you to correctly recall the second item in the pair?|Type your response on a scale from 0-100 and then press Enter.",Study/JOL,"Study Phase2",2568,,,1935,2094,,,,85,1
w10052154_DJM,d19w035bd3,Emily_Honors_Thesis_Part_2,1,209,2020-05-05T15:10:26-07:00,1.9607489109039,2,versionA_stim.csv,READ_JOLVersionB.csv,"READ Version B",OLD,TUNA,FISH,ON,F,25,29,JOL,User,-,"How likely are you to correctly recall the second item in the pair?|Type your response on a scale from 0-100 and then press Enter.",Study/JOL,"Study Phase2",1650,,,1106,1264,,,,85,1
w10052154_DJM,d19w035bd3,Emily_Honors_Thesis_Part_2,1,210,2020-05-05T15:10:28-07:00,1.7731010913849,2,versionA_stim.csv,READ_JOLVersionB.csv,"READ Version B",OLD,FIRE,BLAZE,ON,B,45,85,JOL,User,-,"How likely are you to correctly recall the second item in the pair?|Type your response on a scale from 0-100 and then press Enter.",Study/JOL,"Study Phase2",1457,,,944,1104,,,,85,1
w10052154_DJM,d19w035bd3,Emily_Honors_Thesis_Part_2,1,211,2020-05-05T15:10:29-07:00,1.118950843811,2,versionA_stim.csv,READ_JOLVersionB.csv,"READ Version B",OLD,ART,LION,ON,U,79,60,JOL,User,-,"How likely are you to correctly recall the second item in the pair?|Type your response on a scale from 0-100 and then press Enter.",Study/JOL,"Study Phase2",833,,,448,607,,,,85,1
w10052154_DJM,d19w035bd3,Emily_Honors_Thesis_Part_2,1,212,2020-05-05T15:10:30-07:00,1.3730330467224,2,versionA_stim.csv,READ_JOLVersionB.csv,"READ Version B",OLD,REVOLUTION,WAR,ON,F,20,81,JOL,User,-,"How likely are you to correctly recall the second item in the pair?|Type your response on a scale from 0-100 and then press Enter.",Study/JOL,"Study Phase2",1053,,,669,827,,,,85,1
w10052154_DJM,d19w035bd3,Emily_Honors_Thesis_Part_2,1,213,2020-05-05T15:10:32-07:00,1.4722990989685,2,versionA_stim.csv,READ_JOLVersionB.csv,"READ Version B",OLD,SOON,BELT,ON,U,70,72,JOL,User,-,"How likely are you to correctly recall the second item in the pair?|Type your response on a scale from 0-100 and then press Enter.",Study/JOL,"Study Phase2",1173,,,788,979,,,,85,1
w10052154_DJM,d19w035bd3,Emily_Honors_Thesis_Part_2,1,214,2020-05-05T15:10:34-07:00,2.4022958278656,2,versionA_stim.csv,READ_JOLVersionB.csv,"READ Version B",OLD,CIRCLE,ROUND,ON,S,65,46,JOL,User,-,"How likely are you to correctly recall the second item in the pair?|Type your response on a scale from 0-100 and then press Enter.",Study/JOL,"Study Phase2",2020,,,1635,1794,,,,85,1
w10052154_DJM,d19w035bd3,Emily_Honors_Thesis_Part_2,1,215,2020-05-05T15:10:36-07:00,1.3441781997681,2,versionA_stim.csv,READ_JOLVersionB.csv,"READ Version B",OLD,KIDNEY,LIVER,ON,S,53,69,JOL,User,-,"How likely are you to correctly recall the second item in the pair?|Type your response on a scale from 0-100 and then press Enter.",Study/JOL,"Study Phase2",989,,,605,763,,,,85,1
w10052154_DJM,d19w035bd3,Emily_Honors_Thesis_Part_2,1,216,2020-05-05T15:10:41-07:00,5.3630278110504,2,versionA_stim.csv,READ_JOLVersionB.csv,"READ Version B",OLD,CASH,WOULD,ON,U,83,18,JOL,User,-,"How likely are you to correctly recall the second item in the pair?|Type your response on a scale from 0-100 and then press Enter.",Study/JOL,"Study Phase2",5001,,,3784,4071,,,,50,1
w10052154_DJM,d19w035bd3,Emily_Honors_Thesis_Part_2,1,217,2020-05-05T15:10:44-07:00,3.6125280857086,2,versionA_stim.csv,READ_JOLVersionB.csv,"READ Version B",OLD,EDITOR,NEWS,ON,F,10,86,JOL,User,-,"How likely are you to correctly recall the second item in the pair?|Type your response on a scale from 0-100 and then press Enter.",Study/JOL,"Study Phase2",2221,,,1772,2059,,,,100,1
w10052154_DJM,d19w035bd3,Emily_Honors_Thesis_Part_2,1,218,2020-05-05T15:10:48-07:00,3.1678709983826,2,versionA_stim.csv,READ_JOLVersionB.csv,"READ Version B",OLD,HOT,CHILI,ON,B,37,55,JOL,User,-,"How likely are you to correctly recall the second item in the pair?|Type your response on a scale from 0-100 and then press Enter.",Study/JOL,"Study Phase2",2798,,,2317,2635,,,,100,1
w10052154_DJM,d19w035bd3,Emily_Honors_Thesis_Part_2,1,219,2020-05-05T15:10:50-07:00,2.7470569610596,2,versionA_stim.csv,READ_JOLVersionB.csv,"READ Version B",OLD,LIFT,WOMAN,ON,U,69,22,JOL,User,-,"How likely are you to correctly recall the second item in the pair?|Type your response on a scale from 0-100 and then press Enter.",Study/JOL,"Study Phase2",2372,,,2148,2148,,,,0,1
w10052154_DJM,d19w035bd3,Emily_Honors_Thesis_Part_2,1,220,2020-05-05T15:11:46-07:00,55.718881130219,2,versionA_stim.csv,READ_JOLVersionB.csv,"READ Version B",OLD,WAGE,MONEY,ON,F,8,26,JOL,User,-,"How likely are you to correctly recall the second item in the pair?|Type your response on a scale from 0-100 and then press Enter.",Study/JOL,"Study Phase2",55321,,,55000,55127,,,,85,0.17
w10052154_DJM,d19w035bd3,Emily_Honors_Thesis_Part_2,1,221,2020-05-05T15:11:49-07:00,2.423731803894,2,versionA_stim.csv,READ_JOLVersionB.csv,"READ Version B",OLD,SMELL,STENCH,ON,B,42,12,JOL,User,-,"How likely are you to correctly recall the second item in the pair?|Type your response on a scale from 0-100 and then press Enter.",Study/JOL,"Study Phase2",2041,,,1528,1847,,,,100,1
w10052154_DJM,d19w035bd3,Emily_Honors_Thesis_Part_2,1,222,2020-05-05T15:11:51-07:00,1.9805932044983,2,versionA_stim.csv,READ_JOLVersionB.csv,"READ Version B",OLD,ROOT,PLANT,ON,F,13,34,JOL,User,-,"How likely are you to correctly recall the second item in the pair?|Type your response on a scale from 0-100 and then press Enter.",Study/JOL,"Study Phase2",1671,,,1189,1508,,,,100,1
w10052154_DJM,d19w035bd3,Emily_Honors_Thesis_Part_2,1,223,2020-05-05T15:11:53-07:00,2.0050699710846,2,versionA_stim.csv,READ_JOLVersionB.csv,"READ Version B",OLD,DEATH,BUSINESS,ON,U,72,45,JOL,User,-,"How likely are you to correctly recall the second item in the pair?|Type your response on a scale from 0-100 and then press Enter.",Study/JOL,"Study Phase2",1706,,,1513,1513,,,,0,1
w10052154_DJM,d19w035bd3,Emily_Honors_Thesis_Part_2,1,224,2020-05-05T15:11:59-07:00,6.6831398010254,2,versionA_stim.csv,READ_JOLVersionB.csv,"READ Version B",OLD,ORCHID,FLOWER,ON,F,24,53,JOL,User,-,"How likely are you to correctly recall the second item in the pair?|Type your response on a scale from 0-100 and then press Enter.",Study/JOL,"Study Phase2",6260,,,5524,5525,,,,85,1
w10052154_DJM,d19w035bd3,Emily_Honors_Thesis_Part_2,1,225,2020-05-05T15:12:03-07:00,3.4375870227814,2,versionA_stim.csv,READ_JOLVersionB.csv,"READ Version B",OLD,WINE,CHEESE,ON,S,57,9,JOL,User,-,"How likely are you to correctly recall the second item in the pair?|Type your response on a scale from 0-100 and then press Enter.",Study/JOL,"Study Phase2",3045,,,2595,2882,,,,100,1
w10052154_DJM,d19w035bd3,Emily_Honors_Thesis_Part_2,1,226,2020-05-05T15:12:06-07:00,3.4045240879059,2,versionA_stim.csv,READ_JOLVersionB.csv,"READ Version B",OLD,PUSHER,CLUTTER,ON,U,66,59,JOL,User,-,"How likely are you to correctly recall the second item in the pair?|Type your response on a scale from 0-100 and then press Enter.",Study/JOL,"Study Phase2",3034,,,2489,2616,,,,12,1
w10052154_DJM,d19w035bd3,Emily_Honors_Thesis_Part_2,1,227,2020-05-05T15:12:10-07:00,4.2175989151001,2,versionA_stim.csv,READ_JOLVersionB.csv,"READ Version B",OLD,STRONG,ACCIDENT,ON,U,80,74,JOL,User,-,"How likely are you to correctly recall the second item in the pair?|Type your response on a scale from 0-100 and then press Enter.",Study/JOL,"Study Phase2",3851,,,3307,3307,,,,3,1
w10052154_DJM,d19w035bd3,Emily_Honors_Thesis_Part_2,1,228,2020-05-05T15:12:14-07:00,3.7440571784973,2,versionA_stim.csv,READ_JOLVersionB.csv,"READ Version B",OLD,ALLOW,TUCK,ON,U,78,76,JOL,User,-,"How likely are you to correctly recall the second item in the pair?|Type your response on a scale from 0-100 and then press Enter.",Study/JOL,"Study Phase2",3361,,,3137,3137,,,,1,1
w10052154_DJM,d19w035bd3,Emily_Honors_Thesis_Part_2,1,229,2020-05-05T15:12:16-07:00,1.6651749610901,2,versionA_stim.csv,READ_JOLVersionB.csv,"READ Version B",OLD,BEGIN,END,ON,S,54,7,JOL,User,-,"How likely are you to correctly recall the second item in the pair?|Type your response on a scale from 0-100 and then press Enter.",Study/JOL,"Study Phase2",1348,,,1091,1091,,,,1,1
w10052154_DJM,d19w035bd3,Emily_Honors_Thesis_Part_2,1,230,2020-05-05T15:12:17-07:00,1.171089887619,2,versionA_stim.csv,READ_JOLVersionB.csv,"READ Version B",OLD,KEY,LATCH,ON,B,36,58,JOL,User,-,"How likely are you to correctly recall the second item in the pair?|Type your response on a scale from 0-100 and then press Enter.",Study/JOL,"Study Phase2",856,,,630,630,,,,1,1
w10052154_DJM,d19w035bd3,Emily_Honors_Thesis_Part_2,1,231,2020-05-05T15:12:18-07:00,0.68951296806335,2,versionA_stim.csv,READ_JOLVersionB.csv,"READ Version B",OLD,HYGIENE,CLEAN,ON,F,17,44,JOL,User,-,"How likely are you to correctly recall the second item in the pair?|Type your response on a scale from 0-100 and then press Enter.",Study/JOL,"Study Phase2",387,,,130,130,,,,1,1
w10052154_DJM,d19w035bd3,Emily_Honors_Thesis_Part_2,1,232,2020-05-05T15:12:18-07:00,0.68567299842834,2,versionA_stim.csv,READ_JOLVersionB.csv,"READ Version B",OLD,LETTUCE,SALAD,ON,S,59,30,JOL,User,-,"How likely are you to correctly recall the second item in the pair?|Type your response on a scale from 0-100 and then press Enter.",Study/JOL,"Study Phase2",407,,,182,182,,,,1,1
w10052154_DJM,d19w035bd3,Emily_Honors_Thesis_Part_2,1,233,2020-05-05T15:12:19-07:00,0.90617918968201,2,versionA_stim.csv,READ_JOLVersionB.csv,"READ Version B",OLD,SENTENCE,WORD,ON,B,31,42,JOL,User,-,"How likely are you to correctly recall the second item in the pair?|Type your response on a scale from 0-100 and then press Enter.",Study/JOL,"Study Phase2",622,,,365,365,,,,1,1
w10052154_DJM,d19w035bd3,Emily_Honors_Thesis_Part_2,1,234,2020-05-05T15:12:21-07:00,1.8933999538422,2,versionA_stim.csv,READ_JOLVersionB.csv,"READ Version B",OLD,CHISEL,HAMMER,ON,F,9,80,JOL,User,-,"How likely are you to correctly recall the second item in the pair?|Type your response on a scale from 0-100 and then press Enter.",Study/JOL,"Study Phase2",604,,,343,343,,,,1,1
w10052154_DJM,d19w035bd3,Emily_Honors_Thesis_Part_2,1,235,2020-05-05T15:12:23-07:00,1.9635908603668,2,versionA_stim.csv,READ_JOLVersionB.csv,"READ Version B",OLD,VALLEY,ADD,ON,U,82,36,JOL,User,-,"How likely are you to correctly recall the second item in the pair?|Type your response on a scale from 0-100 and then press Enter.",Study/JOL,"Study Phase2",1669,,,1477,1477,,,,1,1
w10052154_DJM,d19w035bd3,Emily_Honors_Thesis_Part_2,1,236,2020-05-05T15:12:27-07:00,4.1840181350708,2,versionA_stim.csv,READ_JOLVersionB.csv,"READ Version B",OLD,DRINK,SIP,ON,B,27,63,JOL,User,-,"How likely are you to correctly recall the second item in the pair?|Type your response on a scale from 0-100 and then press Enter.",Study/JOL,"Study Phase2",2840,,,1560,1560,,,,2,1
w10052154_DJM,d19w035bd3,Emily_Honors_Thesis_Part_2,1,237,2020-05-05T15:12:45-07:00,18.094298839569,2,versionA_stim.csv,READ_JOLVersionB.csv,"READ Version B",OLD,TRIAL,JURY,ON,S,50,13,JOL,User,-,"How likely are you to correctly recall the second item in the pair?|Type your response on a scale from 0-100 and then press Enter.",Study/JOL,"Study Phase2",17700,,,17315,17666,,,,65.,0.768
w10052154_DJM,d19w035bd3,Emily_Honors_Thesis_Part_2,1,238,2020-05-05T15:12:52-07:00,6.3381562232971,2,versionA_stim.csv,READ_JOLVersionB.csv,"READ Version B",OLD,DELINQUENT,BAD,ON,F,6,67,JOL,User,-,"How likely are you to correctly recall the second item in the pair?|Type your response on a scale from 0-100 and then press Enter.",Study/JOL,"Study Phase2",5951,,,5279,5726,,,,41,1
w10052154_DJM,d19w035bd3,Emily_Honors_Thesis_Part_2,1,239,2020-05-05T15:12:55-07:00,3.7520558834076,2,versionA_stim.csv,READ_JOLVersionB.csv,"READ Version B",OLD,FULL,ENOUGH,ON,B,26,40,JOL,User,-,"How likely are you to correctly recall the second item in the pair?|Type your response on a scale from 0-100 and then press Enter.",Study/JOL,"Study Phase2",3330,,,2850,3137,,,,100,1
w10052154_DJM,d19w035bd3,Emily_Honors_Thesis_Part_2,1,240,2020-05-05T15:13:05-07:00,9.3693499565125,2,versionA_stim.csv,READ_JOLVersionB.csv,"READ Version B",OLD,TAKE,SEIZE,ON,B,29,83,JOL,User,-,"How likely are you to correctly recall the second item in the pair?|Type your response on a scale from 0-100 and then press Enter.",Study/JOL,"Study Phase2",8973,,,8468,8755,,,,100,1
w10052154_DJM,d19w035bd3,Emily_Honors_Thesis_Part_2,1,241,2020-05-05T15:13:07-07:00,2.3105621337891,2,versionA_stim.csv,READ_JOLVersionB.csv,"READ Version B",OLD,DUE,ASSIGNMENT,ON,S,46,78,JOL,User,-,"How likely are you to correctly recall the second item in the pair?|Type your response on a scale from 0-100 and then press Enter.",Study/JOL,"Study Phase2",1925,,,1413,1732,,,,100,1
w10052154_DJM,d19w035bd3,Emily_Honors_Thesis_Part_2,1,242,2020-05-05T15:13:09-07:00,1.5021779537201,2,versionA_stim.csv,READ_JOLVersionB.csv,"READ Version B",OLD,MEANING,DEFINITION,ON,S,62,31,JOL,User,-,"How likely are you to correctly recall the second item in the pair?|Type your response on a scale from 0-100 and then press Enter.",Study/JOL,"Study Phase2",1192,,,679,1031,,,,100,1
w10052154_DJM,d19w035bd3,Emily_Honors_Thesis_Part_2,1,243,2020-05-05T15:13:10-07:00,1.3836410045624,2,versionA_stim.csv,READ_JOLVersionB.csv,"READ Version B",OLD,GEOLOGY,ROCK,ON,F,19,51,JOL,User,-,"How likely are you to correctly recall the second item in the pair?|Type your response on a scale from 0-100 and then press Enter.",Study/JOL,"Study Phase2",1081,,,568,952,,,,100,1
w10052154_DJM,d19w035bd3,Emily_Honors_Thesis_Part_2,1,244,2020-05-05T15:13:12-07:00,1.7663750648499,2,versionA_stim.csv,READ_JOLVersionB.csv,"READ Version B",OLD,SWAN,BIRD,ON,F,14,14,JOL,User,-,"How likely are you to correctly recall the second item in the pair?|Type your response on a scale from 0-100 and then press Enter.",Study/JOL,"Study Phase2",1488,,,975,1295,,,,100,1
w10052154_DJM,d19w035bd3,Emily_Honors_Thesis_Part_2,1,245,2020-05-05T15:13:13-07:00,1.4398629665375,2,versionA_stim.csv,READ_JOLVersionB.csv,"READ Version B",OLD,BALL,RACKET,ON,B,38,21,JOL,User,-,"How likely are you to correctly recall the second item in the pair?|Type your response on a scale from 0-100 and then press Enter.",Study/JOL,"Study Phase2",1160,,,615,998,,,,100,1
w10052154_DJM,d19w035bd3,Emily_Honors_Thesis_Part_2,1,246,2020-05-05T15:13:15-07:00,2.3080990314484,2,versionA_stim.csv,READ_JOLVersionB.csv,"READ Version B",OLD,SHOE,FOOT,ON,S,60,71,JOL,User,-,"How likely are you to correctly recall the second item in the pair?|Type your response on a scale from 0-100 and then press Enter.",Study/JOL,"Study Phase2",1940,,,1588,1747,,,,25,1
w10052154_DJM,d19w035bd3,Emily_Honors_Thesis_Part_2,1,247,2020-05-05T15:13:18-07:00,3.0093338489532,2,versionA_stim.csv,READ_JOLVersionB.csv,"READ Version B",OLD,DUMP,WASTE,ON,S,49,52,JOL,User,-,"How likely are you to correctly recall the second item in the pair?|Type your response on a scale from 0-100 and then press Enter.",Study/JOL,"Study Phase2",2636,,,1739,1930,,,,25,1
w10052154_DJM,d19w035bd3,Emily_Honors_Thesis_Part_2,1,248,2020-05-05T15:13:20-07:00,1.7910981178284,2,versionA_stim.csv,READ_JOLVersionB.csv,"READ Version B",OLD,HEIGHT,GROWTH,ON,B,30,20,JOL,User,-,"How likely are you to correctly recall the second item in the pair?|Type your response on a scale from 0-100 and then press Enter.",Study/JOL,"Study Phase2",1468,,,1115,1275,,,,25,1
w10052154_DJM,d19w035bd3,Emily_Honors_Thesis_Part_2,1,249,2020-05-05T15:13:23-07:00,2.3456380367279,2,versionA_stim.csv,READ_JOLVersionB.csv,"READ Version B",OLD,SUGAR,RIDDLE,ON,U,81,27,JOL,User,-,"How likely are you to correctly recall the second item in the pair?|Type your response on a scale from 0-100 and then press Enter.",Study/JOL,"Study Phase2",1966,,,1580,1740,,,,25,1
w10052154_DJM,d19w035bd3,Emily_Honors_Thesis_Part_2,1,250,2020-05-05T15:13:24-07:00,1.7402257919312,2,versionA_stim.csv,READ_JOLVersionB.csv,"READ Version B",OLD,DISCOVER,FLOOR,ON,U,71,38,JOL,User,-,"How likely are you to correctly recall the second item in the pair?|Type your response on a scale from 0-100 and then press Enter.",Study/JOL,"Study Phase2",1411,,,771,1186,,,,25,1
w10052154_DJM,d19w035bd3,Emily_Honors_Thesis_Part_2,1,251,2020-05-05T15:13:25-07:00,1.113715171814,2,versionA_stim.csv,READ_JOLVersionB.csv,"READ Version B",OLD,DIETARY,SACKING,ON,U,67,49,JOL,User,-,"How likely are you to correctly recall the second item in the pair?|Type your response on a scale from 0-100 and then press Enter.",Study/JOL,"Study Phase2",817,,,400,593,,,,25,1
w10052154_DJM,d19w035bd3,Emily_Honors_Thesis_Part_2,1,252,2020-05-05T15:13:27-07:00,1.0856988430023,2,versionA_stim.csv,READ_JOLVersionB.csv,"READ Version B",OLD,BRIDGE,WATER,ON,F,18,57,JOL,User,-,"How likely are you to correctly recall the second item in the pair?|Type your response on a scale from 0-100 and then press Enter.",Study/JOL,"Study Phase2",799,,,415,605,,,,25,1
w10052154_DJM,d19w035bd3,Emily_Honors_Thesis_Part_2,1,253,2020-05-05T15:13:43-07:00,16.72634601593,2,versionA_stim.csv,READ_JOLVersionB.csv,"READ Version B",OLD,WORK,CHORE,ON,B,39,62,JOL,User,-,"How likely are you to correctly recall the second item in the pair?|Type your response on a scale from 0-100 and then press Enter.",Study/JOL,"Study Phase2",15381,,,490,15156,,,,24,0.416
w10052154_DJM,d19w035bd3,Emily_Honors_Thesis_Part_2,1,254,2020-05-05T15:13:47-07:00,3.7784481048584,2,versionA_stim.csv,READ_JOLVersionB.csv,"READ Version B",OLD,DARK,CAVE,ON,B,28,66,JOL,User,-,"How likely are you to correctly recall the second item in the pair?|Type your response on a scale from 0-100 and then press Enter.",Study/JOL,"Study Phase2",3377,,,2904,3224,,,,100,1
w10052154_DJM,d19w035bd3,Emily_Honors_Thesis_Part_2,1,255,2020-05-05T15:14:04-07:00,17.010004997253,2,versionA_stim.csv,READ_JOLVersionB.csv,"READ Version B",OLD,POP,SODA,ON,S,56,35,JOL,User,-,"How likely are you to correctly recall the second item in the pair?|Type your response on a scale from 0-100 and then press Enter.",Study/JOL,"Study Phase2",16620,,,16075,16394,,,,100,0.726
w10052154_DJM,d19w035bd3,Emily_Honors_Thesis_Part_2,1,256,2020-05-05T15:14:26-07:00,22.053613901138,2,versionA_stim.csv,READ_JOLVersionB.csv,"READ Version B",OLD,PARK,HUNGRY,ON,U,68,39,JOL,User,-,"How likely are you to correctly recall the second item in the pair?|Type your response on a scale from 0-100 and then press Enter.",Study/JOL,"Study Phase2",21652,,,20787,21459,,,,100,0.679
w10052154_DJM,d19w035bd3,Emily_Honors_Thesis_Part_2,1,257,2020-05-05T15:14:29-07:00,2.7323961257935,2,versionA_stim.csv,READ_JOLVersionB.csv,"READ Version B",OLD,HERD,COW,ON,F,22,8,JOL,User,-,"How likely are you to correctly recall the second item in the pair?|Type your response on a scale from 0-100 and then press Enter.",Study/JOL,"Study Phase2",2353,,,1999,2158,,,,85,1
w10052154_DJM,d19w035bd3,Emily_Honors_Thesis_Part_2,1,258,2020-05-05T15:14:33-07:00,3.7218909263611,2,versionA_stim.csv,READ_JOLVersionB.csv,"READ Version B",OLD,BATHROOM,TOILET,ON,S,58,16,JOL,User,-,"How likely are you to correctly recall the second item in the pair?|Type your response on a scale from 0-100 and then press Enter.",Study/JOL,"Study Phase2",3326,,,2750,3069,,,,100,1
w10052154_DJM,d19w035bd3,Emily_Honors_Thesis_Part_2,1,259,2020-05-05T15:14:36-07:00,3.577742099762,2,versionA_stim.csv,READ_JOLVersionB.csv,"READ Version B",OLD,CREDIT,CARD,ON,F,23,73,JOL,User,-,"How likely are you to correctly recall the second item in the pair?|Type your response on a scale from 0-100 and then press Enter.",Study/JOL,"Study Phase2",3159,,,2645,2965,,,,100,1
w10052154_DJM,d19w035bd3,Emily_Honors_Thesis_Part_2,1,260,2020-05-05T15:14:40-07:00,3.7283728122711,2,versionA_stim.csv,READ_JOLVersionB.csv,"READ Version B",OLD,HIDE,SICK,ON,U,84,28,JOL,User,-,"How likely are you to correctly recall the second item in the pair?|Type your response on a scale from 0-100 and then press Enter.",Study/JOL,"Study Phase2",3344,,,2958,3117,,,,35,1
w10052154_DJM,d19w035bd3,Emily_Honors_Thesis_Part_2,1,261,2020-05-05T15:14:43-07:00,3.005713224411,2,versionA_stim.csv,READ_JOLVersionB.csv,"READ Version B",OLD,DISCUSSION,TALK,ON,F,21,48,JOL,User,-,"How likely are you to correctly recall the second item in the pair?|Type your response on a scale from 0-100 and then press Enter.",Study/JOL,"Study Phase2",2626,,,2112,2368,,,,23,1
w10052154_DJM,d19w035bd3,Emily_Honors_Thesis_Part_2,1,262,2020-05-05T15:14:45-07:00,2.2057678699493,2,versionA_stim.csv,READ_JOLVersionB.csv,"READ Version B",OLD,CLOTHES,ATTIRE,ON,B,43,19,JOL,User,-,"How likely are you to correctly recall the second item in the pair?|Type your response on a scale from 0-100 and then press Enter.",Study/JOL,"Study Phase2",1787,,,1433,1625,,,,23,1
w10052154_DJM,d19w035bd3,Emily_Honors_Thesis_Part_2,1,263,2020-05-05T15:14:46-07:00,1.3680729866028,2,versionA_stim.csv,READ_JOLVersionB.csv,"READ Version B",OLD,HONEY,BEE,ON,S,63,65,JOL,User,-,"How likely are you to correctly recall the second item in the pair?|Type your response on a scale from 0-100 and then press Enter.",Study/JOL,"Study Phase2",961,,,417,608,,,,23,1
w10052154_DJM,d19w035bd3,Emily_Honors_Thesis_Part_2,1,264,2020-05-05T15:14:48-07:00,1.090026140213,2,versionA_stim.csv,READ_JOLVersionB.csv,"READ Version B",OLD,KING,VASE,ON,U,85,70,JOL,User,-,"How likely are you to correctly recall the second item in the pair?|Type your response on a scale from 0-100 and then press Enter.",Study/JOL,"Study Phase2",801,,,416,608,,,,23,1
w10052154_DJM,d19w035bd3,Emily_Honors_Thesis_Part_2,1,265,2020-05-05T15:14:49-07:00,1.3357949256897,2,versionA_stim.csv,READ_JOLVersionB.csv,"READ Version B",OLD,ARTERY,BRONZE,ON,U,74,41,JOL,User,-,"How likely are you to correctly recall the second item in the pair?|Type your response on a scale from 0-100 and then press Enter.",Study/JOL,"Study Phase2",1003,,,361,584,,,,23,1
w10052154_DJM,d19w035bd3,Emily_Honors_Thesis_Part_2,1,266,2020-05-05T15:14:50-07:00,1.5022640228271,2,versionA_stim.csv,READ_JOLVersionB.csv,"READ Version B",OLD,LAW,ATTORNEY,ON,B,34,43,JOL,User,-,"How likely are you to correctly recall the second item in the pair?|Type your response on a scale from 0-100 and then press Enter.",Study/JOL,"Study Phase2",1217,,,447,638,,,,23,1
w10052154_DJM,d19w035bd3,Emily_Honors_Thesis_Part_2,1,267,2020-05-05T15:14:52-07:00,1.2476708889008,2,versionA_stim.csv,READ_JOLVersionB.csv,"READ Version B",OLD,NUMBER,AMOUNT,ON,S,47,82,JOL,User,-,"How likely are you to correctly recall the second item in the pair?|Type your response on a scale from 0-100 and then press Enter.",Study/JOL,"Study Phase2",968,,,522,742,,,,23,1
w10052154_DJM,d19w035bd3,Emily_Honors_Thesis_Part_2,1,268,2020-05-05T15:14:53-07:00,1.3735859394073,2,versionA_stim.csv,READ_JOLVersionB.csv,"READ Version B",OLD,LOCATION,SITE,ON,S,48,68,JOL,User,-,"How likely are you to correctly recall the second item in the pair?|Type your response on a scale from 0-100 and then press Enter.",Study/JOL,"Study Phase2",1049,,,472,663,,,,23,1
w10052154_DJM,d19w035bd3,Emily_Honors_Thesis_Part_2,1,269,2020-05-05T15:14:54-07:00,1.3423111438751,2,versionA_stim.csv,READ_JOLVersionB.csv,"READ Version B",OLD,DIGESTION,STOMACH,ON,F,7,56,JOL,User,-,"How likely are you to correctly recall the second item in the pair?|Type your response on a scale from 0-100 and then press Enter.",Study/JOL,"Study Phase2",1050,,,609,800,,,,23,1
w10052154_DJM,d19w035bd3,Emily_Honors_Thesis_Part_2,1,270,2020-05-05T15:14:56-07:00,1.5699510574341,2,versionA_stim.csv,READ_JOLVersionB.csv,"READ Version B",OLD,GREAT,FANTASTIC,ON,B,35,84,JOL,User,-,"How likely are you to correctly recall the second item in the pair?|Type your response on a scale from 0-100 and then press Enter.",Study/JOL,"Study Phase2",1265,,,656,880,,,,23,1
w10052154_DJM,d19w035bd3,Emily_Honors_Thesis_Part_2,1,271,2020-05-05T15:14:57-07:00,1.4049689769745,2,versionA_stim.csv,READ_JOLVersionB.csv,"READ Version B",OLD,PAST,FUTURE,ON,S,61,32,JOL,User,-,"How likely are you to correctly recall the second item in the pair?|Type your response on a scale from 0-100 and then press Enter.",Study/JOL,"Study Phase2",1110,,,693,917,,,,23,1
w10052154_DJM,d19w035bd3,Emily_Honors_Thesis_Part_2,1,272,2020-05-05T15:15:00-07:00,2.5406789779663,2,versionA_stim.csv,READ_JOLVersionB.csv,"READ Version B",OLD,PAW,DOG,ON,F,15,37,JOL,User,-,"How likely are you to correctly recall the second item in the pair?|Type your response on a scale from 0-100 and then press Enter.",Study/JOL,"Study Phase2",2175,,,1533,1788,,,,23,1
w10052154_DJM,d19w035bd3,Emily_Honors_Thesis_Part_2,1,273,2020-05-05T15:15:03-07:00,3.5663619041443,2,versionA_stim.csv,READ_JOLVersionB.csv,"READ Version B",OLD,ARCHITECTURE,DESIGN,ON,S,51,24,JOL,User,-,"How likely are you to correctly recall the second item in the pair?|Type your response on a scale from 0-100 and then press Enter.",Study/JOL,"Study Phase2",3200,,,2366,2525,,,,23,1
w10052154_DJM,d19w035bd3,Emily_Honors_Thesis_Part_2,1,274,2020-05-05T15:15:06-07:00,2.3104491233826,2,versionA_stim.csv,READ_JOLVersionB.csv,"READ Version B",OLD,BLOW,WIND,ON,S,55,61,JOL,User,-,"How likely are you to correctly recall the second item in the pair?|Type your response on a scale from 0-100 and then press Enter.",Study/JOL,"Study Phase2",1936,,,1391,1582,,,,25,1
w10052154_DJM,d19w035bd3,Emily_Honors_Thesis_Part_2,1,275,2020-05-05T15:15:07-07:00,1.6525149345398,2,versionA_stim.csv,READ_JOLVersionB.csv,"READ Version B",OLD,PLANE,PILOT,ON,B,44,25,JOL,User,-,"How likely are you to correctly recall the second item in the pair?|Type your response on a scale from 0-100 and then press Enter.",Study/JOL,"Study Phase2",1310,,,476,1019,,,,24,1
w10052154_DJM,d19w035bd3,Emily_Honors_Thesis_Part_2,1,276,2020-05-05T15:15:09-07:00,1.3681020736694,2,versionA_stim.csv,READ_JOLVersionB.csv,"READ Version B",OLD,GRILL,BAR,ON,S,52,10,JOL,User,-,"How likely are you to correctly recall the second item in the pair?|Type your response on a scale from 0-100 and then press Enter.",Study/JOL,"Study Phase2",1020,,,475,699,,,,26,1
w10052154_DJM,d19w035bd3,Emily_Honors_Thesis_Part_2,1,277,2020-05-05T15:15:10-07:00,1.2798268795013,2,versionA_stim.csv,READ_JOLVersionB.csv,"READ Version B",OLD,WAY,OUT,ON,F,16,75,JOL,User,-,"How likely are you to correctly recall the second item in the pair?|Type your response on a scale from 0-100 and then press Enter.",Study/JOL,"Study Phase2",996,,,547,738,,,,28,1
w10052154_DJM,d19w035bd3,Emily_Honors_Thesis_Part_2,1,278,2020-05-05T15:15:11-07:00,1.440593957901,2,versionA_stim.csv,READ_JOLVersionB.csv,"READ Version B",OLD,MALT,CHOCOLATE,Buffer2,Buffer,88,90,JOL,User,-,"How likely are you to correctly recall the second item in the pair?|Type your response on a scale from 0-100 and then press Enter.",Study/JOL,BUFFER4,1153,,,639,895,,,,27,1
w10052154_DJM,d19w035bd3,Emily_Honors_Thesis_Part_2,1,279,2020-05-05T15:15:13-07:00,1.7592279911041,2,versionA_stim.csv,READ_JOLVersionB.csv,"READ Version B",OLD,GEESE,GOOSE,Buffer2,Buffer,86,89,JOL,User,-,"How likely are you to correctly recall the second item in the pair?|Type your response on a scale from 0-100 and then press Enter.",Study/JOL,BUFFER4,1457,,,720,1136,,,,29,1
w10052154_DJM,d19w035bd3,Emily_Honors_Thesis_Part_2,1,280,2020-05-05T15:15:15-07:00,1.5614051818848,2,versionA_stim.csv,READ_JOLVersionB.csv,"READ Version B",OLD,SHERIFF,POLICE,Buffer2,Buffer,87,87,JOL,User,-,"How likely are you to correctly recall the second item in the pair?|Type your response on a scale from 0-100 and then press Enter.",Study/JOL,BUFFER4,1253,,,708,995,,,,28,1
w10052154_DJM,d19w035bd3,Emily_Honors_Thesis_Part_2,1,281,2020-05-05T15:15:16-07:00,1.4305548667908,2,versionA_stim.csv,READ_JOLVersionB.csv,"READ Version B",OLD,THING,STUFF,Buffer2,Buffer,90,88,JOL,User,-,"How likely are you to correctly recall the second item in the pair?|Type your response on a scale from 0-100 and then press Enter.",Study/JOL,BUFFER4,1118,,,605,797,,,,24,1
w10052154_DJM,d19w035bd3,Emily_Honors_Thesis_Part_2,1,282,2020-05-05T15:15:17-07:00,1.1660349369049,2,versionA_stim.csv,READ_JOLVersionB.csv,"READ Version B",OLD,MOON,SPACE,Buffer2,Buffer,89,91,JOL,User,-,"How likely are you to correctly recall the second item in the pair?|Type your response on a scale from 0-100 and then press Enter.",Study/JOL,BUFFER4,879,,,334,588,,,,26,1
w10052154_DJM,d19w035bd3,Emily_Honors_Thesis_Part_2,1,283,2020-05-05T15:15:20-07:00,2.773891210556,2,versionA_stim.csv,READ_JOLVersionB.csv,"READ Version B",OLD,,,,,,0,Instruct,User,-,"You have completed this section. Please press Enter.",Filler_Instruction,Instruct5,2416,,,-1,-1,,,,,1
w10052154_DJM,d19w035bd3,Emily_Honors_Thesis_Part_2,1,284,2020-05-05T15:17:21-07:00,120.38390493393,2,versionA_stim.csv,READ_JOLVersionB.csv,"READ Version B",OLD,,,,,,0,FreeRecall,120,120,"Please list the 50 US states in reverse alphabetical order (z - a). The task will automatically advance to the next screen after two minutes.",,Filler2,120003,"wyoming wisconsin west virginia washinton virginia vermont utah texas tennessee south dakota south carolina rhode island pennsylvania oregon oklahoma ohia north dakota north carolina new york new mexico new jersy new hampshire nevada nebraska montana missouri mississippi minnesota michigan massachusetts maryland maine louisiana kentucky mansas iowa indiana illinois idaho hawaii georgia f",0,31618,119932,0,0,,,0.874
w10052154_DJM,d19w035bd3,Emily_Honors_Thesis_Part_2,1,285,2020-05-05T15:17:32-07:00,11.006511926651,2,versionA_stim.csv,READ_JOLVersionB.csv,"READ Version B",OLD,,,,,,0,Instruct,-,10,"You will now be presented with the first word from each of the previously studied item pairs. Please type the missing word. If you do not know the word, you may guess or press Enter to skip forward to the next pair.",,Instruct6,10620,,,-1,-1,,,,,0.944
w10052154_DJM,d19w035bd3,Emily_Honors_Thesis_Part_2,1,286,2020-05-05T15:17:37-07:00,5.3382720947266,2,versionA_stim.csv,READ_JOLVersionB.csv,"READ Version B",OLD,WORK,CHORE,ON,B,39,62,Test,User,-,,Recall,Recall2,4952,Wage,22.222222222222,4318,4735,0,0,,,1
w10052154_DJM,d19w035bd3,Emily_Honors_Thesis_Part_2,1,287,2020-05-05T15:17:40-07:00,2.6915459632874,2,versionA_stim.csv,READ_JOLVersionB.csv,"READ Version B",OLD,CLOTHES,ATTIRE,ON,B,43,19,Test,User,-,,Recall,Recall2,2253,SUIT,20,1803,2124,0,0,,,1
w10052154_DJM,d19w035bd3,Emily_Honors_Thesis_Part_2,1,288,2020-05-05T15:17:42-07:00,2.7198178768158,2,versionA_stim.csv,READ_JOLVersionB.csv,"READ Version B",OLD,FIRE,BLAZE,ON,B,45,85,Test,User,-,,Recall,Recall2,2338,HAZARD,36.363636363636,1184,2144,0,0,,,1
