Username,ID,ExperimentName,Session,Trial,Date,TimeDif,"Condition Number","Stimuli File","Order File","Condition Description","Condition Notes",Stimuli*Cue,Stimuli*Answer,Stimuli*Shuffle,"Stimuli*Stimuli Notes",Stimuli*Value,Procedure*Item,"Procedure*Trial Type","Procedure*Max Time","Procedure*Min Time",Procedure*Text,"Procedure*Procedure Notes",Procedure*Shuffle,Response*RT,Response*Response,Response*Accuracy,Response*RTfirst,Response*RTlast,Response*strictAcc,Response*lenientAcc,Response*focus,Response*JOL,Response*Focus
w10092569,anubrti9ct,Emily_Honors_Thesis_Part_2,1,1,2020-07-28T21:40:12-07:00,13.337489128113,15,versionC_stim_BACKWARD.csv,BACKWARD_READ_JOLVersionC.csv,"BACKWARD READ VERSION C",NEW,,,,,,0,Instruct,-,10,"In this section, you will be presented with a series of word pairs. As you study, you will be asked to rate your ability to remember the second item in the pair if you were only shown the first at test. You will make these ratings using a 0 to 100 Scale.",,Instruct13,13031,,,-1,-1,,,,,1
w10092569,anubrti9ct,Emily_Honors_Thesis_Part_2,1,2,2020-07-28T21:40:25-07:00,12.926308870316,15,versionC_stim_BACKWARD.csv,BACKWARD_READ_JOLVersionC.csv,"BACKWARD READ VERSION C",NEW,,,,,,0,Instruct,-,10,"For example, if you are given the pair CAT - DOG, a rating of 0 indicates that you would not remember DOG at test, while a rating of 100 indicates full certainty that you would remember the word DOG at test.",,Instruct14,12584,,,-1,-1,,,,,1
w10092569,anubrti9ct,Emily_Honors_Thesis_Part_2,1,3,2020-07-28T21:40:37-07:00,12.794744968414,15,versionC_stim_BACKWARD.csv,BACKWARD_READ_JOLVersionC.csv,"BACKWARD READ VERSION C",NEW,,,,,,0,Instruct,-,10,"When making your ratings, it is criticial that you use the full range of the scale. You will be disqualified for only giving ratings of 0 or 100! After making your rating, press Enter to advance to the next pair.",,Instruct15,12477,,,-1,-1,,,,,1
w10092569,anubrti9ct,Emily_Honors_Thesis_Part_2,1,4,2020-07-28T21:40:45-07:00,7.2868809700012,15,versionC_stim_BACKWARD.csv,BACKWARD_READ_JOLVersionC.csv,"BACKWARD READ VERSION C",NEW,,,,,,0,Instruct,-,5,"You will now complete a practice session. Please study the following items and rate your ability to remember them.",,Instruct17,7004,,,-1,-1,,,,,1
w10092569,anubrti9ct,Emily_Honors_Thesis_Part_2,1,5,2020-07-28T21:40:53-07:00,8.4704291820526,15,versionC_stim_BACKWARD.csv,BACKWARD_READ_JOLVersionC.csv,"BACKWARD READ VERSION C",NEW,BEHAVIOR,SOCIAL,PRACTICE,PRACTICE,189,183,JOL,User,-,"How likely are you to correctly recall the second item in the pair?|Type your response on a scale from 0-100 and then press Enter.",Study/JOL,PRACTICE,8131,,,3461,7745,,,,95,1
w10092569,anubrti9ct,Emily_Honors_Thesis_Part_2,1,6,2020-07-28T21:40:58-07:00,4.573086977005,15,versionC_stim_BACKWARD.csv,BACKWARD_READ_JOLVersionC.csv,"BACKWARD READ VERSION C",NEW,DEAF,MUTE,PRACTICE,PRACTICE,182,189,JOL,User,-,"How likely are you to correctly recall the second item in the pair?|Type your response on a scale from 0-100 and then press Enter.",Study/JOL,PRACTICE,4222,,,3689,3839,,,,99,1
w10092569,anubrti9ct,Emily_Honors_Thesis_Part_2,1,7,2020-07-28T21:41:03-07:00,5.3905589580536,15,versionC_stim_BACKWARD.csv,BACKWARD_READ_JOLVersionC.csv,"BACKWARD READ VERSION C",NEW,DISBELIEVE,SKEPTIC,PRACTICE,PRACTICE,186,184,JOL,User,-,"How likely are you to correctly recall the second item in the pair?|Type your response on a scale from 0-100 and then press Enter.",Study/JOL,PRACTICE,4984,,,4428,4614,,,,50,1
w10092569,anubrti9ct,Emily_Honors_Thesis_Part_2,1,8,2020-07-28T21:41:07-07:00,3.9100570678711,15,versionC_stim_BACKWARD.csv,BACKWARD_READ_JOLVersionC.csv,"BACKWARD READ VERSION C",NEW,CHOCOLATE,BAR,PRACTICE,PRACTICE,187,188,JOL,User,-,"How likely are you to correctly recall the second item in the pair?|Type your response on a scale from 0-100 and then press Enter.",Study/JOL,PRACTICE,3591,,,3076,3216,,,,85,1
w10092569,anubrti9ct,Emily_Honors_Thesis_Part_2,1,9,2020-07-28T21:41:10-07:00,2.9420969486237,15,versionC_stim_BACKWARD.csv,BACKWARD_READ_JOLVersionC.csv,"BACKWARD READ VERSION C",NEW,AARDVARK,ZOO,PRACTICE,PRACTICE,181,182,JOL,User,-,"How likely are you to correctly recall the second item in the pair?|Type your response on a scale from 0-100 and then press Enter.",Study/JOL,PRACTICE,2630,,,2289,2289,,,,0,1
w10092569,anubrti9ct,Emily_Honors_Thesis_Part_2,1,10,2020-07-28T21:41:19-07:00,9.4758388996124,15,versionC_stim_BACKWARD.csv,BACKWARD_READ_JOLVersionC.csv,"BACKWARD READ VERSION C",NEW,CHIME,MUSIC,PRACTICE,PRACTICE,188,190,JOL,User,-,"How likely are you to correctly recall the second item in the pair?|Type your response on a scale from 0-100 and then press Enter.",Study/JOL,PRACTICE,9165,,,8610,8847,,,,40,1
w10092569,anubrti9ct,Emily_Honors_Thesis_Part_2,1,11,2020-07-28T21:41:24-07:00,5.0125441551208,15,versionC_stim_BACKWARD.csv,BACKWARD_READ_JOLVersionC.csv,"BACKWARD READ VERSION C",NEW,FASHION,MODEL,PRACTICE,PRACTICE,190,185,JOL,User,-,"How likely are you to correctly recall the second item in the pair?|Type your response on a scale from 0-100 and then press Enter.",Study/JOL,PRACTICE,4681,,,3990,4287,,,,75,1
w10092569,anubrti9ct,Emily_Honors_Thesis_Part_2,1,12,2020-07-28T21:41:29-07:00,4.6411848068237,15,versionC_stim_BACKWARD.csv,BACKWARD_READ_JOLVersionC.csv,"BACKWARD READ VERSION C",NEW,HAM,BONE,PRACTICE,PRACTICE,183,187,JOL,User,-,"How likely are you to correctly recall the second item in the pair?|Type your response on a scale from 0-100 and then press Enter.",Study/JOL,PRACTICE,4330,,,3084,4074,,,,88,1
w10092569,anubrti9ct,Emily_Honors_Thesis_Part_2,1,13,2020-07-28T21:41:34-07:00,4.9891381263733,15,versionC_stim_BACKWARD.csv,BACKWARD_READ_JOLVersionC.csv,"BACKWARD READ VERSION C",NEW,PADDLE,ROW,PRACTICE,PRACTICE,184,186,JOL,User,-,"How likely are you to correctly recall the second item in the pair?|Type your response on a scale from 0-100 and then press Enter.",Study/JOL,PRACTICE,4607,,,3884,4269,,,,25,1
w10092569,anubrti9ct,Emily_Honors_Thesis_Part_2,1,14,2020-07-28T21:41:41-07:00,6.435250043869,15,versionC_stim_BACKWARD.csv,BACKWARD_READ_JOLVersionC.csv,"BACKWARD READ VERSION C",NEW,HINGE,SWING,PRACTICE,PRACTICE,185,191,JOL,User,-,"How likely are you to correctly recall the second item in the pair?|Type your response on a scale from 0-100 and then press Enter.",Study/JOL,PRACTICE,6034,,,5455,5584,,,,30,1
w10092569,anubrti9ct,Emily_Honors_Thesis_Part_2,1,15,2020-07-28T21:41:43-07:00,2.2268178462982,15,versionC_stim_BACKWARD.csv,BACKWARD_READ_JOLVersionC.csv,"BACKWARD READ VERSION C",NEW,,,,,,0,Instruct,User,-,"You have completed this section. Please press Enter to continue.",,Instruct18,1922,,,-1,-1,,,,,1
w10092569,anubrti9ct,Emily_Honors_Thesis_Part_2,1,16,2020-07-28T21:41:45-07:00,2.0569150447845,15,versionC_stim_BACKWARD.csv,BACKWARD_READ_JOLVersionC.csv,"BACKWARD READ VERSION C",NEW,,,,,,0,Instruct,User,-,"You will now begin the study. Press Enter when you are ready to begin.",,Instruct16,1753,,,-1,-1,,,,,1
w10092569,anubrti9ct,Emily_Honors_Thesis_Part_2,1,17,2020-07-28T21:41:51-07:00,6.19806599617,15,versionC_stim_BACKWARD.csv,BACKWARD_READ_JOLVersionC.csv,"BACKWARD READ VERSION C",NEW,HIDE,SCARE,Buffer,Buffer,4,5,JOL,User,-,"How likely are you to correctly recall the second item in the pair?|Type your response on a scale from 0-100 and then press Enter.",Study/JOL,BUFFER,5856,,,4840,5328,,,,40,1
w10092569,anubrti9ct,Emily_Honors_Thesis_Part_2,1,18,2020-07-28T21:41:56-07:00,4.7615129947662,15,versionC_stim_BACKWARD.csv,BACKWARD_READ_JOLVersionC.csv,"BACKWARD READ VERSION C",NEW,CATCHER,BASEBALL,Buffer,Buffer,2,2,JOL,User,-,"How likely are you to correctly recall the second item in the pair?|Type your response on a scale from 0-100 and then press Enter.",Study/JOL,BUFFER,4437,,,3955,4190,,,,60,1
w10092569,anubrti9ct,Emily_Honors_Thesis_Part_2,1,19,2020-07-28T21:41:58-07:00,2.5909600257874,15,versionC_stim_BACKWARD.csv,BACKWARD_READ_JOLVersionC.csv,"BACKWARD READ VERSION C",NEW,BUTTER,PEANUT,Buffer,Buffer,3,4,JOL,User,-,"How likely are you to correctly recall the second item in the pair?|Type your response on a scale from 0-100 and then press Enter.",Study/JOL,BUFFER,2294,,,1652,2059,,,,100,1
w10092569,anubrti9ct,Emily_Honors_Thesis_Part_2,1,20,2020-07-28T21:42:02-07:00,3.558121919632,15,versionC_stim_BACKWARD.csv,BACKWARD_READ_JOLVersionC.csv,"BACKWARD READ VERSION C",NEW,JAM,SPACE,Buffer,Buffer,5,6,JOL,User,-,"How likely are you to correctly recall the second item in the pair?|Type your response on a scale from 0-100 and then press Enter.",Study/JOL,BUFFER,3268,,,2650,2803,,,,85,1
w10092569,anubrti9ct,Emily_Honors_Thesis_Part_2,1,21,2020-07-28T21:42:07-07:00,4.7035720348358,15,versionC_stim_BACKWARD.csv,BACKWARD_READ_JOLVersionC.csv,"BACKWARD READ VERSION C",NEW,GREEN,TREES,Buffer,Buffer,1,3,JOL,User,-,"How likely are you to correctly recall the second item in the pair?|Type your response on a scale from 0-100 and then press Enter.",Study/JOL,BUFFER,4406,,,3896,4097,,,,75,1
w10092569,anubrti9ct,Emily_Honors_Thesis_Part_2,1,22,2020-07-28T21:42:11-07:00,4.3640730381012,15,versionC_stim_BACKWARD.csv,BACKWARD_READ_JOLVersionC.csv,"BACKWARD READ VERSION C",NEW,CHORE,WORK,ON,F,39,65,JOL,User,-,"How likely are you to correctly recall the second item in the pair?|Type your response on a scale from 0-100 and then press Enter.",Study/JOL,"Study Phase",4032,,,3580,3731,,,,85,1
w10092569,anubrti9ct,Emily_Honors_Thesis_Part_2,1,23,2020-07-28T21:42:14-07:00,3.2859320640564,15,versionC_stim_BACKWARD.csv,BACKWARD_READ_JOLVersionC.csv,"BACKWARD READ VERSION C",NEW,FOOT,SHOE,ON,S,60,64,JOL,User,-,"How likely are you to correctly recall the second item in the pair?|Type your response on a scale from 0-100 and then press Enter.",Study/JOL,"Study Phase",2943,,,2248,2402,,,,99,1
w10092569,anubrti9ct,Emily_Honors_Thesis_Part_2,1,24,2020-07-28T21:42:17-07:00,2.9609570503235,15,versionC_stim_BACKWARD.csv,BACKWARD_READ_JOLVersionC.csv,"BACKWARD READ VERSION C",NEW,ADD,VALLEY,ON,U,82,66,JOL,User,-,"How likely are you to correctly recall the second item in the pair?|Type your response on a scale from 0-100 and then press Enter.",Study/JOL,"Study Phase",2676,,,2093,2373,,,,25,1
w10092569,anubrti9ct,Emily_Honors_Thesis_Part_2,1,25,2020-07-28T21:42:22-07:00,5.2138109207153,15,versionC_stim_BACKWARD.csv,BACKWARD_READ_JOLVersionC.csv,"BACKWARD READ VERSION C",NEW,ATTORNEY,LAW,ON,F,34,33,JOL,User,-,"How likely are you to correctly recall the second item in the pair?|Type your response on a scale from 0-100 and then press Enter.",Study/JOL,"Study Phase",4883,,,4306,4465,,,,77,1
w10092569,anubrti9ct,Emily_Honors_Thesis_Part_2,1,26,2020-07-28T21:42:26-07:00,3.8988819122314,15,versionC_stim_BACKWARD.csv,BACKWARD_READ_JOLVersionC.csv,"BACKWARD READ VERSION C",NEW,WASTE,DUMP,ON,S,49,67,JOL,User,-,"How likely are you to correctly recall the second item in the pair?|Type your response on a scale from 0-100 and then press Enter.",Study/JOL,"Study Phase",3585,,,3072,3277,,,,87,1
w10092569,anubrti9ct,Emily_Honors_Thesis_Part_2,1,27,2020-07-28T21:42:31-07:00,4.2763609886169,15,versionC_stim_BACKWARD.csv,BACKWARD_READ_JOLVersionC.csv,"BACKWARD READ VERSION C",NEW,WOULD,CASH,ON,U,83,7,JOL,User,-,"How likely are you to correctly recall the second item in the pair?|Type your response on a scale from 0-100 and then press Enter.",Study/JOL,"Study Phase",3935,,,3155,3386,,,,10,1
w10092569,anubrti9ct,Emily_Honors_Thesis_Part_2,1,28,2020-07-28T21:42:33-07:00,2.8591411113739,15,versionC_stim_BACKWARD.csv,BACKWARD_READ_JOLVersionC.csv,"BACKWARD READ VERSION C",NEW,DOG,PAW,ON,B,15,83,JOL,User,-,"How likely are you to correctly recall the second item in the pair?|Type your response on a scale from 0-100 and then press Enter.",Study/JOL,"Study Phase",2559,,,1832,2263,,,,100,1
w10092569,anubrti9ct,Emily_Honors_Thesis_Part_2,1,29,2020-07-28T21:42:38-07:00,4.3187329769135,15,versionC_stim_BACKWARD.csv,BACKWARD_READ_JOLVersionC.csv,"BACKWARD READ VERSION C",NEW,FUTURE,PAST,ON,S,61,55,JOL,User,-,"How likely are you to correctly recall the second item in the pair?|Type your response on a scale from 0-100 and then press Enter.",Study/JOL,"Study Phase",4020,,,3018,3529,,,,65,1
w10092569,anubrti9ct,Emily_Honors_Thesis_Part_2,1,30,2020-07-28T21:42:43-07:00,5.4743480682373,15,versionC_stim_BACKWARD.csv,BACKWARD_READ_JOLVersionC.csv,"BACKWARD READ VERSION C",NEW,STING,HORNET,ON,B,11,25,JOL,User,-,"How likely are you to correctly recall the second item in the pair?|Type your response on a scale from 0-100 and then press Enter.",Study/JOL,"Study Phase",5155,,,3932,4429,,,,40,1
w10092569,anubrti9ct,Emily_Honors_Thesis_Part_2,1,31,2020-07-28T21:42:46-07:00,2.4552049636841,15,versionC_stim_BACKWARD.csv,BACKWARD_READ_JOLVersionC.csv,"BACKWARD READ VERSION C",NEW,CHILD,BABY,ON,S,64,61,JOL,User,-,"How likely are you to correctly recall the second item in the pair?|Type your response on a scale from 0-100 and then press Enter.",Study/JOL,"Study Phase",2147,,,1377,1837,,,,100,1
w10092569,anubrti9ct,Emily_Honors_Thesis_Part_2,1,32,2020-07-28T21:42:51-07:00,5.2698919773102,15,versionC_stim_BACKWARD.csv,BACKWARD_READ_JOLVersionC.csv,"BACKWARD READ VERSION C",NEW,WATER,BRIDGE,ON,B,18,39,JOL,User,-,"How likely are you to correctly recall the second item in the pair?|Type your response on a scale from 0-100 and then press Enter.",Study/JOL,"Study Phase",4954,,,3792,4108,,,,30,1
w10092569,anubrti9ct,Emily_Honors_Thesis_Part_2,1,33,2020-07-28T21:42:55-07:00,3.7063090801239,15,versionC_stim_BACKWARD.csv,BACKWARD_READ_JOLVersionC.csv,"BACKWARD READ VERSION C",NEW,BIRD,SWAN,ON,B,14,71,JOL,User,-,"How likely are you to correctly recall the second item in the pair?|Type your response on a scale from 0-100 and then press Enter.",Study/JOL,"Study Phase",3359,,,2637,2867,,,,45,1
w10092569,anubrti9ct,Emily_Honors_Thesis_Part_2,1,34,2020-07-28T21:42:59-07:00,4.635999917984,15,versionC_stim_BACKWARD.csv,BACKWARD_READ_JOLVersionC.csv,"BACKWARD READ VERSION C",NEW,HUNGRY,PARK,ON,U,68,18,JOL,User,-,"How likely are you to correctly recall the second item in the pair?|Type your response on a scale from 0-100 and then press Enter.",Study/JOL,"Study Phase",4345,,,3321,3626,,,,60,1
w10092569,anubrti9ct,Emily_Honors_Thesis_Part_2,1,35,2020-07-28T21:43:05-07:00,5.6542088985443,15,versionC_stim_BACKWARD.csv,BACKWARD_READ_JOLVersionC.csv,"BACKWARD READ VERSION C",NEW,CLEAN,HYGIENE,ON,B,17,21,JOL,User,-,"How likely are you to correctly recall the second item in the pair?|Type your response on a scale from 0-100 and then press Enter.",Study/JOL,"Study Phase",5344,,,4499,4765,,,,90,1
w10092569,anubrti9ct,Emily_Honors_Thesis_Part_2,1,36,2020-07-28T21:43:10-07:00,4.9744200706482,15,versionC_stim_BACKWARD.csv,BACKWARD_READ_JOLVersionC.csv,"BACKWARD READ VERSION C",NEW,DEFINITION,MEANING,ON,S,62,30,JOL,User,-,"How likely are you to correctly recall the second item in the pair?|Type your response on a scale from 0-100 and then press Enter.",Study/JOL,"Study Phase",4629,,,3970,4142,,,,89,1
w10092569,anubrti9ct,Emily_Honors_Thesis_Part_2,1,37,2020-07-28T21:43:17-07:00,7.1935329437256,15,versionC_stim_BACKWARD.csv,BACKWARD_READ_JOLVersionC.csv,"BACKWARD READ VERSION C",NEW,FLOWER,ORCHID,ON,B,24,42,JOL,User,-,"How likely are you to correctly recall the second item in the pair?|Type your response on a scale from 0-100 and then press Enter.",Study/JOL,"Study Phase",6885,,,6043,6524,,,,74,1
w10092569,anubrti9ct,Emily_Honors_Thesis_Part_2,1,38,2020-07-28T21:43:20-07:00,3.1265289783478,15,versionC_stim_BACKWARD.csv,BACKWARD_READ_JOLVersionC.csv,"BACKWARD READ VERSION C",NEW,WOMAN,LIFT,ON,U,69,82,JOL,User,-,"How likely are you to correctly recall the second item in the pair?|Type your response on a scale from 0-100 and then press Enter.",Study/JOL,"Study Phase",2823,,,2201,2387,,,,10,1
w10092569,anubrti9ct,Emily_Honors_Thesis_Part_2,1,39,2020-07-28T21:43:25-07:00,4.4735181331635,15,versionC_stim_BACKWARD.csv,BACKWARD_READ_JOLVersionC.csv,"BACKWARD READ VERSION C",NEW,DIVISION,MATH,ON,F,33,77,JOL,User,-,"How likely are you to correctly recall the second item in the pair?|Type your response on a scale from 0-100 and then press Enter.",Study/JOL,"Study Phase",4167,,,3637,3821,,,,98,1
w10092569,anubrti9ct,Emily_Honors_Thesis_Part_2,1,40,2020-07-28T21:43:31-07:00,5.8231098651886,15,versionC_stim_BACKWARD.csv,BACKWARD_READ_JOLVersionC.csv,"BACKWARD READ VERSION C",NEW,SODA,POP,ON,S,56,52,JOL,User,-,"How likely are you to correctly recall the second item in the pair?|Type your response on a scale from 0-100 and then press Enter.",Study/JOL,"Study Phase",5502,,,4345,4642,,,,68,1
w10092569,anubrti9ct,Emily_Honors_Thesis_Part_2,1,41,2020-07-28T21:43:36-07:00,4.9903781414032,15,versionC_stim_BACKWARD.csv,BACKWARD_READ_JOLVersionC.csv,"BACKWARD READ VERSION C",NEW,RIDDLE,SUGAR,ON,U,81,27,JOL,User,-,"How likely are you to correctly recall the second item in the pair?|Type your response on a scale from 0-100 and then press Enter.",Study/JOL,"Study Phase",4670,,,4087,4321,,,,24,1
w10092569,anubrti9ct,Emily_Honors_Thesis_Part_2,1,42,2020-07-28T21:43:43-07:00,7.5362420082092,15,versionC_stim_BACKWARD.csv,BACKWARD_READ_JOLVersionC.csv,"BACKWARD READ VERSION C",NEW,FAMINE,HUNGER,ON,F,40,44,JOL,User,-,"How likely are you to correctly recall the second item in the pair?|Type your response on a scale from 0-100 and then press Enter.",Study/JOL,"Study Phase",7199,,,6003,6361,,,,30,1
w10092569,anubrti9ct,Emily_Honors_Thesis_Part_2,1,43,2020-07-28T21:43:47-07:00,3.6370069980621,15,versionC_stim_BACKWARD.csv,BACKWARD_READ_JOLVersionC.csv,"BACKWARD READ VERSION C",NEW,WASP,BUG,ON,F,32,56,JOL,User,-,"How likely are you to correctly recall the second item in the pair?|Type your response on a scale from 0-100 and then press Enter.",Study/JOL,"Study Phase",3322,,,2591,2837,,,,10,1
w10092569,anubrti9ct,Emily_Honors_Thesis_Part_2,1,44,2020-07-28T21:43:51-07:00,4.2314109802246,15,versionC_stim_BACKWARD.csv,BACKWARD_READ_JOLVersionC.csv,"BACKWARD READ VERSION C",NEW,ACCIDENT,STRONG,ON,U,80,84,JOL,User,-,"How likely are you to correctly recall the second item in the pair?|Type your response on a scale from 0-100 and then press Enter.",Study/JOL,"Study Phase",3908,,,3075,3213,,,,14,1
w10092569,anubrti9ct,Emily_Honors_Thesis_Part_2,1,45,2020-07-28T21:43:57-07:00,5.7495150566101,15,versionC_stim_BACKWARD.csv,BACKWARD_READ_JOLVersionC.csv,"BACKWARD READ VERSION C",NEW,END,BEGIN,ON,S,54,13,JOL,User,-,"How likely are you to correctly recall the second item in the pair?|Type your response on a scale from 0-100 and then press Enter.",Study/JOL,"Study Phase",5405,,,4587,4891,,,,68,1
w10092569,anubrti9ct,Emily_Honors_Thesis_Part_2,1,46,2020-07-28T21:44:07-07:00,9.8804969787598,15,versionC_stim_BACKWARD.csv,BACKWARD_READ_JOLVersionC.csv,"BACKWARD READ VERSION C",NEW,DESIGN,ARCHITECTURE,ON,S,51,76,JOL,User,-,"How likely are you to correctly recall the second item in the pair?|Type your response on a scale from 0-100 and then press Enter.",Study/JOL,"Study Phase",9567,,,6810,9142,,,,25,1
w10092569,anubrti9ct,Emily_Honors_Thesis_Part_2,1,47,2020-07-28T21:44:12-07:00,4.9654428958893,15,versionC_stim_BACKWARD.csv,BACKWARD_READ_JOLVersionC.csv,"BACKWARD READ VERSION C",NEW,OUT,WAY,ON,B,16,36,JOL,User,-,"How likely are you to correctly recall the second item in the pair?|Type your response on a scale from 0-100 and then press Enter.",Study/JOL,"Study Phase",4623,,,2491,4314,,,,40,1
w10092569,anubrti9ct,Emily_Honors_Thesis_Part_2,1,48,2020-07-28T21:44:18-07:00,6.0534539222717,15,versionC_stim_BACKWARD.csv,BACKWARD_READ_JOLVersionC.csv,"BACKWARD READ VERSION C",NEW,STENCH,SMELL,ON,F,42,20,JOL,User,-,"How likely are you to correctly recall the second item in the pair?|Type your response on a scale from 0-100 and then press Enter.",Study/JOL,"Study Phase",5725,,,4846,5040,,,,58,1
w10092569,anubrti9ct,Emily_Honors_Thesis_Part_2,1,49,2020-07-28T21:44:22-07:00,4.8456602096558,15,versionC_stim_BACKWARD.csv,BACKWARD_READ_JOLVersionC.csv,"BACKWARD READ VERSION C",NEW,COLD,BITTER,ON,B,12,37,JOL,User,-,"How likely are you to correctly recall the second item in the pair?|Type your response on a scale from 0-100 and then press Enter.",Study/JOL,"Study Phase",4549,,,3949,4149,,,,63,1
w10092569,anubrti9ct,Emily_Honors_Thesis_Part_2,1,50,2020-07-28T21:44:26-07:00,3.8431890010834,15,versionC_stim_BACKWARD.csv,BACKWARD_READ_JOLVersionC.csv,"BACKWARD READ VERSION C",NEW,CHILI,HOT,ON,F,37,86,JOL,User,-,"How likely are you to correctly recall the second item in the pair?|Type your response on a scale from 0-100 and then press Enter.",Study/JOL,"Study Phase",3531,,,2758,2911,,,,41,1
w10092569,anubrti9ct,Emily_Honors_Thesis_Part_2,1,51,2020-07-28T21:44:31-07:00,4.9126968383789,15,versionC_stim_BACKWARD.csv,BACKWARD_READ_JOLVersionC.csv,"BACKWARD READ VERSION C",NEW,LIVER,KIDNEY,ON,S,53,22,JOL,User,-,"How likely are you to correctly recall the second item in the pair?|Type your response on a scale from 0-100 and then press Enter.",Study/JOL,"Study Phase",4606,,,3917,4142,,,,20,1
w10092569,anubrti9ct,Emily_Honors_Thesis_Part_2,1,52,2020-07-28T21:44:39-07:00,7.5971510410309,15,versionC_stim_BACKWARD.csv,BACKWARD_READ_JOLVersionC.csv,"BACKWARD READ VERSION C",NEW,SEIZE,TAKE,ON,F,29,62,JOL,User,-,"How likely are you to correctly recall the second item in the pair?|Type your response on a scale from 0-100 and then press Enter.",Study/JOL,"Study Phase",7278,,,6579,6787,,,,75,1
w10092569,anubrti9ct,Emily_Honors_Thesis_Part_2,1,53,2020-07-28T21:44:45-07:00,6.0838830471039,15,versionC_stim_BACKWARD.csv,BACKWARD_READ_JOLVersionC.csv,"BACKWARD READ VERSION C",NEW,TALK,DISCUSSION,ON,B,21,40,JOL,User,-,"How likely are you to correctly recall the second item in the pair?|Type your response on a scale from 0-100 and then press Enter.",Study/JOL,"Study Phase",5753,,,4765,5115,,,,79,1
w10092569,anubrti9ct,Emily_Honors_Thesis_Part_2,1,54,2020-07-28T21:44:54-07:00,9.4804170131683,15,versionC_stim_BACKWARD.csv,BACKWARD_READ_JOLVersionC.csv,"BACKWARD READ VERSION C",NEW,WORD,SENTENCE,ON,F,31,9,JOL,User,-,"How likely are you to correctly recall the second item in the pair?|Type your response on a scale from 0-100 and then press Enter.",Study/JOL,"Study Phase",9150,,,8578,8838,,,,35,1
w10092569,anubrti9ct,Emily_Honors_Thesis_Part_2,1,55,2020-07-28T21:45:01-07:00,6.4498770236969,15,versionC_stim_BACKWARD.csv,BACKWARD_READ_JOLVersionC.csv,"BACKWARD READ VERSION C",NEW,BELT,SOON,ON,U,70,81,JOL,User,-,"How likely are you to correctly recall the second item in the pair?|Type your response on a scale from 0-100 and then press Enter.",Study/JOL,"Study Phase",6120,,,5688,5688,,,,5,1
w10092569,anubrti9ct,Emily_Honors_Thesis_Part_2,1,56,2020-07-28T21:45:07-07:00,5.7403898239136,15,versionC_stim_BACKWARD.csv,BACKWARD_READ_JOLVersionC.csv,"BACKWARD READ VERSION C",NEW,SIGHT,DEBATE,ON,U,73,68,JOL,User,-,"How likely are you to correctly recall the second item in the pair?|Type your response on a scale from 0-100 and then press Enter.",Study/JOL,"Study Phase",5381,,,4280,4751,,,,15,1
w10092569,anubrti9ct,Emily_Honors_Thesis_Part_2,1,57,2020-07-28T21:45:13-07:00,6.2252631187439,15,versionC_stim_BACKWARD.csv,BACKWARD_READ_JOLVersionC.csv,"BACKWARD READ VERSION C",NEW,GROWTH,HEIGHT,ON,F,30,60,JOL,User,-,"How likely are you to correctly recall the second item in the pair?|Type your response on a scale from 0-100 and then press Enter.",Study/JOL,"Study Phase",5882,,,5207,5399,,,,75,1
w10092569,anubrti9ct,Emily_Honors_Thesis_Part_2,1,58,2020-07-28T21:45:19-07:00,6.4241609573364,15,versionC_stim_BACKWARD.csv,BACKWARD_READ_JOLVersionC.csv,"BACKWARD READ VERSION C",NEW,HAND,FIX,ON,U,75,53,JOL,User,-,"How likely are you to correctly recall the second item in the pair?|Type your response on a scale from 0-100 and then press Enter.",Study/JOL,"Study Phase",6095,,,3377,5649,,,,62,1
w10092569,anubrti9ct,Emily_Honors_Thesis_Part_2,1,59,2020-07-28T21:45:23-07:00,3.7030639648438,15,versionC_stim_BACKWARD.csv,BACKWARD_READ_JOLVersionC.csv,"BACKWARD READ VERSION C",NEW,BAR,GRILL,ON,S,52,19,JOL,User,-,"How likely are you to correctly recall the second item in the pair?|Type your response on a scale from 0-100 and then press Enter.",Study/JOL,"Study Phase",3370,,,2430,2589,,,,89,1
w10092569,anubrti9ct,Emily_Honors_Thesis_Part_2,1,60,2020-07-28T21:45:27-07:00,3.7540700435638,15,versionC_stim_BACKWARD.csv,BACKWARD_READ_JOLVersionC.csv,"BACKWARD READ VERSION C",NEW,VASE,KING,ON,U,85,35,JOL,User,-,"How likely are you to correctly recall the second item in the pair?|Type your response on a scale from 0-100 and then press Enter.",Study/JOL,"Study Phase",3454,,,2861,3046,,,,10,1
w10092569,anubrti9ct,Emily_Honors_Thesis_Part_2,1,61,2020-07-28T21:45:31-07:00,4.3306269645691,15,versionC_stim_BACKWARD.csv,BACKWARD_READ_JOLVersionC.csv,"BACKWARD READ VERSION C",NEW,DROWSY,SLEEP,ON,F,41,54,JOL,User,-,"How likely are you to correctly recall the second item in the pair?|Type your response on a scale from 0-100 and then press Enter.",Study/JOL,"Study Phase",4023,,,3385,3618,,,,80,1
w10092569,anubrti9ct,Emily_Honors_Thesis_Part_2,1,62,2020-07-28T21:45:37-07:00,6.0494141578674,15,versionC_stim_BACKWARD.csv,BACKWARD_READ_JOLVersionC.csv,"BACKWARD READ VERSION C",NEW,STOMACH,DIGESTION,ON,B,7,46,JOL,User,-,"How likely are you to correctly recall the second item in the pair?|Type your response on a scale from 0-100 and then press Enter.",Study/JOL,"Study Phase",5743,,,5013,5338,,,,76,1
w10092569,anubrti9ct,Emily_Honors_Thesis_Part_2,1,63,2020-07-28T21:45:41-07:00,3.7817168235779,15,versionC_stim_BACKWARD.csv,BACKWARD_READ_JOLVersionC.csv,"BACKWARD READ VERSION C",NEW,BEE,HONEY,ON,S,63,47,JOL,User,-,"How likely are you to correctly recall the second item in the pair?|Type your response on a scale from 0-100 and then press Enter.",Study/JOL,"Study Phase",3456,,,2780,2945,,,,99,1
w10092569,anubrti9ct,Emily_Honors_Thesis_Part_2,1,64,2020-07-28T21:45:45-07:00,3.6871860027313,15,versionC_stim_BACKWARD.csv,BACKWARD_READ_JOLVersionC.csv,"BACKWARD READ VERSION C",NEW,ENOUGH,FULL,ON,F,26,48,JOL,User,-,"How likely are you to correctly recall the second item in the pair?|Type your response on a scale from 0-100 and then press Enter.",Study/JOL,"Study Phase",3343,,,2609,2799,,,,98,1
w10092569,anubrti9ct,Emily_Honors_Thesis_Part_2,1,65,2020-07-28T21:45:47-07:00,2.6931600570679,15,versionC_stim_BACKWARD.csv,BACKWARD_READ_JOLVersionC.csv,"BACKWARD READ VERSION C",NEW,CARD,CREDIT,ON,B,23,12,JOL,User,-,"How likely are you to correctly recall the second item in the pair?|Type your response on a scale from 0-100 and then press Enter.",Study/JOL,"Study Phase",2208,,,1493,1887,,,,100,1
w10092569,anubrti9ct,Emily_Honors_Thesis_Part_2,1,66,2020-07-28T21:45:53-07:00,5.5447659492493,15,versionC_stim_BACKWARD.csv,BACKWARD_READ_JOLVersionC.csv,"BACKWARD READ VERSION C",NEW,HAMMER,CHISEL,ON,B,9,70,JOL,User,-,"How likely are you to correctly recall the second item in the pair?|Type your response on a scale from 0-100 and then press Enter.",Study/JOL,"Study Phase",5246,,,4847,4847,,,,7,1
w10092569,anubrti9ct,Emily_Honors_Thesis_Part_2,1,67,2020-07-28T21:45:56-07:00,3.0091819763184,15,versionC_stim_BACKWARD.csv,BACKWARD_READ_JOLVersionC.csv,"BACKWARD READ VERSION C",NEW,MONEY,WAGE,ON,B,8,15,JOL,User,-,"How likely are you to correctly recall the second item in the pair?|Type your response on a scale from 0-100 and then press Enter.",Study/JOL,"Study Phase",2677,,,2142,2329,,,,20,1
w10092569,anubrti9ct,Emily_Honors_Thesis_Part_2,1,68,2020-07-28T21:46:00-07:00,4.4526131153107,15,versionC_stim_BACKWARD.csv,BACKWARD_READ_JOLVersionC.csv,"BACKWARD READ VERSION C",NEW,SACKING,DIETARY,ON,U,67,8,JOL,User,-,"How likely are you to correctly recall the second item in the pair?|Type your response on a scale from 0-100 and then press Enter.",Study/JOL,"Study Phase",4124,,,3472,3722,,,,30,1
w10092569,anubrti9ct,Emily_Honors_Thesis_Part_2,1,69,2020-07-28T21:46:05-07:00,4.7128479480743,15,versionC_stim_BACKWARD.csv,BACKWARD_READ_JOLVersionC.csv,"BACKWARD READ VERSION C",NEW,BUSINESS,DEATH,ON,U,72,63,JOL,User,-,"How likely are you to correctly recall the second item in the pair?|Type your response on a scale from 0-100 and then press Enter.",Study/JOL,"Study Phase",4328,,,3533,3534,,,,5,1
w10092569,anubrti9ct,Emily_Honors_Thesis_Part_2,1,70,2020-07-28T21:46:10-07:00,5.3651189804077,15,versionC_stim_BACKWARD.csv,BACKWARD_READ_JOLVersionC.csv,"BACKWARD READ VERSION C",NEW,ROCK,GEOLOGY,ON,B,19,29,JOL,User,-,"How likely are you to correctly recall the second item in the pair?|Type your response on a scale from 0-100 and then press Enter.",Study/JOL,"Study Phase",5056,,,4343,4343,,,,0,1
w10092569,anubrti9ct,Emily_Honors_Thesis_Part_2,1,71,2020-07-28T21:46:14-07:00,3.5118610858917,15,versionC_stim_BACKWARD.csv,BACKWARD_READ_JOLVersionC.csv,"BACKWARD READ VERSION C",NEW,CAVE,DARK,ON,F,28,80,JOL,User,-,"How likely are you to correctly recall the second item in the pair?|Type your response on a scale from 0-100 and then press Enter.",Study/JOL,"Study Phase",3162,,,2381,2547,,,,69,1
w10092569,anubrti9ct,Emily_Honors_Thesis_Part_2,1,72,2020-07-28T21:46:19-07:00,5.4290850162506,15,versionC_stim_BACKWARD.csv,BACKWARD_READ_JOLVersionC.csv,"BACKWARD READ VERSION C",NEW,LATCH,KEY,ON,F,36,10,JOL,User,-,"How likely are you to correctly recall the second item in the pair?|Type your response on a scale from 0-100 and then press Enter.",Study/JOL,"Study Phase",5129,,,4044,4300,,,,36,1
w10092569,anubrti9ct,Emily_Honors_Thesis_Part_2,1,73,2020-07-28T21:46:24-07:00,4.8069958686829,15,versionC_stim_BACKWARD.csv,BACKWARD_READ_JOLVersionC.csv,"BACKWARD READ VERSION C",NEW,BRONZE,ARTERY,ON,U,74,45,JOL,User,-,"How likely are you to correctly recall the second item in the pair?|Type your response on a scale from 0-100 and then press Enter.",Study/JOL,"Study Phase",4494,,,3839,4005,,,,15,1
w10092569,anubrti9ct,Emily_Honors_Thesis_Part_2,1,74,2020-07-28T21:46:28-07:00,4.0800189971924,15,versionC_stim_BACKWARD.csv,BACKWARD_READ_JOLVersionC.csv,"BACKWARD READ VERSION C",NEW,FANTASTIC,GREAT,ON,F,35,78,JOL,User,-,"How likely are you to correctly recall the second item in the pair?|Type your response on a scale from 0-100 and then press Enter.",Study/JOL,"Study Phase",3765,,,3107,3310,,,,98,1
w10092569,anubrti9ct,Emily_Honors_Thesis_Part_2,1,75,2020-07-28T21:46:31-07:00,3.1385290622711,15,versionC_stim_BACKWARD.csv,BACKWARD_READ_JOLVersionC.csv,"BACKWARD READ VERSION C",NEW,TOILET,BATHROOM,ON,S,58,58,JOL,User,-,"How likely are you to correctly recall the second item in the pair?|Type your response on a scale from 0-100 and then press Enter.",Study/JOL,"Study Phase",2823,,,1851,2243,,,,100,1
w10092569,anubrti9ct,Emily_Honors_Thesis_Part_2,1,76,2020-07-28T21:46:36-07:00,4.4271891117096,15,versionC_stim_BACKWARD.csv,BACKWARD_READ_JOLVersionC.csv,"BACKWARD READ VERSION C",NEW,WAR,REVOLUTION,ON,B,20,69,JOL,User,-,"How likely are you to correctly recall the second item in the pair?|Type your response on a scale from 0-100 and then press Enter.",Study/JOL,"Study Phase",4107,,,3453,3648,,,,78,1
w10092569,anubrti9ct,Emily_Honors_Thesis_Part_2,1,77,2020-07-28T21:46:40-07:00,3.9187788963318,15,versionC_stim_BACKWARD.csv,BACKWARD_READ_JOLVersionC.csv,"BACKWARD READ VERSION C",NEW,ROUND,CIRCLE,ON,S,65,38,JOL,User,-,"How likely are you to correctly recall the second item in the pair?|Type your response on a scale from 0-100 and then press Enter.",Study/JOL,"Study Phase",3574,,,2911,3149,,,,97,1
w10092569,anubrti9ct,Emily_Honors_Thesis_Part_2,1,78,2020-07-28T21:46:45-07:00,5.2864809036255,15,versionC_stim_BACKWARD.csv,BACKWARD_READ_JOLVersionC.csv,"BACKWARD READ VERSION C",NEW,AMOUNT,NUMBER,ON,S,47,59,JOL,User,-,"How likely are you to correctly recall the second item in the pair?|Type your response on a scale from 0-100 and then press Enter.",Study/JOL,"Study Phase",4971,,,4320,4456,,,,85,1
w10092569,anubrti9ct,Emily_Honors_Thesis_Part_2,1,79,2020-07-28T21:46:50-07:00,5.0691120624542,15,versionC_stim_BACKWARD.csv,BACKWARD_READ_JOLVersionC.csv,"BACKWARD READ VERSION C",NEW,SICK,HIDE,ON,U,84,32,JOL,User,-,"How likely are you to correctly recall the second item in the pair?|Type your response on a scale from 0-100 and then press Enter.",Study/JOL,"Study Phase",4741,,,4163,4312,,,,10,1
w10092569,anubrti9ct,Emily_Honors_Thesis_Part_2,1,80,2020-07-28T21:46:55-07:00,4.7097809314728,15,versionC_stim_BACKWARD.csv,BACKWARD_READ_JOLVersionC.csv,"BACKWARD READ VERSION C",NEW,RACKET,BALL,ON,F,38,17,JOL,User,-,"How likely are you to correctly recall the second item in the pair?|Type your response on a scale from 0-100 and then press Enter.",Study/JOL,"Study Phase",4405,,,3751,3971,,,,65,1
w10092569,anubrti9ct,Emily_Honors_Thesis_Part_2,1,81,2020-07-28T21:46:59-07:00,3.8618941307068,15,versionC_stim_BACKWARD.csv,BACKWARD_READ_JOLVersionC.csv,"BACKWARD READ VERSION C",NEW,JURY,TRIAL,ON,S,50,57,JOL,User,-,"How likely are you to correctly recall the second item in the pair?|Type your response on a scale from 0-100 and then press Enter.",Study/JOL,"Study Phase",3515,,,2891,3007,,,,85,1
w10092569,anubrti9ct,Emily_Honors_Thesis_Part_2,1,82,2020-07-28T21:47:02-07:00,3.7615990638733,15,versionC_stim_BACKWARD.csv,BACKWARD_READ_JOLVersionC.csv,"BACKWARD READ VERSION C",NEW,COW,HERD,ON,B,22,41,JOL,User,-,"How likely are you to correctly recall the second item in the pair?|Type your response on a scale from 0-100 and then press Enter.",Study/JOL,"Study Phase",3199,,,2485,2690,,,,35,1
w10092569,anubrti9ct,Emily_Honors_Thesis_Part_2,1,83,2020-07-28T21:47:07-07:00,4.8972578048706,15,versionC_stim_BACKWARD.csv,BACKWARD_READ_JOLVersionC.csv,"BACKWARD READ VERSION C",NEW,LION,ART,ON,U,79,85,JOL,User,-,"How likely are you to correctly recall the second item in the pair?|Type your response on a scale from 0-100 and then press Enter.",Study/JOL,"Study Phase",4568,,,4014,4138,,,,10,1
w10092569,anubrti9ct,Emily_Honors_Thesis_Part_2,1,84,2020-07-28T21:47:11-07:00,4.107164144516,15,versionC_stim_BACKWARD.csv,BACKWARD_READ_JOLVersionC.csv,"BACKWARD READ VERSION C",NEW,PLANT,ROOT,ON,B,13,74,JOL,User,-,"How likely are you to correctly recall the second item in the pair?|Type your response on a scale from 0-100 and then press Enter.",Study/JOL,"Study Phase",3749,,,3161,3352,,,,69,1
w10092569,anubrti9ct,Emily_Honors_Thesis_Part_2,1,85,2020-07-28T21:47:15-07:00,4.1796429157257,15,versionC_stim_BACKWARD.csv,BACKWARD_READ_JOLVersionC.csv,"BACKWARD READ VERSION C",NEW,SITE,LOCATION,ON,S,48,79,JOL,User,-,"How likely are you to correctly recall the second item in the pair?|Type your response on a scale from 0-100 and then press Enter.",Study/JOL,"Study Phase",3850,,,3125,3441,,,,75,1
w10092569,anubrti9ct,Emily_Honors_Thesis_Part_2,1,86,2020-07-28T21:47:21-07:00,5.2106161117554,15,versionC_stim_BACKWARD.csv,BACKWARD_READ_JOLVersionC.csv,"BACKWARD READ VERSION C",NEW,FISH,TUNA,ON,B,25,16,JOL,User,-,"How likely are you to correctly recall the second item in the pair?|Type your response on a scale from 0-100 and then press Enter.",Study/JOL,"Study Phase",4901,,,4025,4372,,,,96,1
w10092569,anubrti9ct,Emily_Honors_Thesis_Part_2,1,87,2020-07-28T21:47:25-07:00,3.8428518772125,15,versionC_stim_BACKWARD.csv,BACKWARD_READ_JOLVersionC.csv,"BACKWARD READ VERSION C",NEW,ASSIGNMENT,DUE,ON,S,46,28,JOL,User,-,"How likely are you to correctly recall the second item in the pair?|Type your response on a scale from 0-100 and then press Enter.",Study/JOL,"Study Phase",3531,,,2493,2734,,,,97,1
w10092569,anubrti9ct,Emily_Honors_Thesis_Part_2,1,88,2020-07-28T21:47:33-07:00,8.3571519851685,15,versionC_stim_BACKWARD.csv,BACKWARD_READ_JOLVersionC.csv,"BACKWARD READ VERSION C",NEW,BLAZE,FIRE,ON,F,45,73,JOL,User,-,"How likely are you to correctly recall the second item in the pair?|Type your response on a scale from 0-100 and then press Enter.",Study/JOL,"Study Phase",8061,,,7342,7476,,,,14,1
w10092569,anubrti9ct,Emily_Honors_Thesis_Part_2,1,89,2020-07-28T21:47:38-07:00,4.9117550849915,15,versionC_stim_BACKWARD.csv,BACKWARD_READ_JOLVersionC.csv,"BACKWARD READ VERSION C",NEW,SALAD,LETTUCE,ON,S,59,31,JOL,User,-,"How likely are you to correctly recall the second item in the pair?|Type your response on a scale from 0-100 and then press Enter.",Study/JOL,"Study Phase",4577,,,2751,3790,,,,65,1
w10092569,anubrti9ct,Emily_Honors_Thesis_Part_2,1,90,2020-07-28T21:47:44-07:00,6.190465927124,15,versionC_stim_BACKWARD.csv,BACKWARD_READ_JOLVersionC.csv,"BACKWARD READ VERSION C",NEW,POSITION,MACHINE,ON,U,76,50,JOL,User,-,"How likely are you to correctly recall the second item in the pair?|Type your response on a scale from 0-100 and then press Enter.",Study/JOL,"Study Phase",5862,,,5129,5425,,,,62,1
w10092569,anubrti9ct,Emily_Honors_Thesis_Part_2,1,91,2020-07-28T21:47:49-07:00,5.0044510364532,15,versionC_stim_BACKWARD.csv,BACKWARD_READ_JOLVersionC.csv,"BACKWARD READ VERSION C",NEW,TUCK,ALLOW,ON,U,78,51,JOL,User,-,"How likely are you to correctly recall the second item in the pair?|Type your response on a scale from 0-100 and then press Enter.",Study/JOL,"Study Phase",4686,,,3927,4150,,,,20,1
w10092569,anubrti9ct,Emily_Honors_Thesis_Part_2,1,92,2020-07-28T21:47:54-07:00,4.9629530906677,15,versionC_stim_BACKWARD.csv,BACKWARD_READ_JOLVersionC.csv,"BACKWARD READ VERSION C",NEW,CLUTTER,PUSHER,ON,U,66,72,JOL,User,-,"How likely are you to correctly recall the second item in the pair?|Type your response on a scale from 0-100 and then press Enter.",Study/JOL,"Study Phase",4672,,,4155,4293,,,,10,1
w10092569,anubrti9ct,Emily_Honors_Thesis_Part_2,1,93,2020-07-28T21:47:58-07:00,3.9924638271332,15,versionC_stim_BACKWARD.csv,BACKWARD_READ_JOLVersionC.csv,"BACKWARD READ VERSION C",NEW,WIND,BLOW,ON,S,55,43,JOL,User,-,"How likely are you to correctly recall the second item in the pair?|Type your response on a scale from 0-100 and then press Enter.",Study/JOL,"Study Phase",3672,,,2497,2609,,,,69,1
w10092569,anubrti9ct,Emily_Honors_Thesis_Part_2,1,94,2020-07-28T21:48:01-07:00,3.3905141353607,15,versionC_stim_BACKWARD.csv,BACKWARD_READ_JOLVersionC.csv,"BACKWARD READ VERSION C",NEW,NEWS,EDITOR,ON,B,10,34,JOL,User,-,"How likely are you to correctly recall the second item in the pair?|Type your response on a scale from 0-100 and then press Enter.",Study/JOL,"Study Phase",3075,,,2344,2555,,,,75,1
w10092569,anubrti9ct,Emily_Honors_Thesis_Part_2,1,95,2020-07-28T21:48:07-07:00,5.7131509780884,15,versionC_stim_BACKWARD.csv,BACKWARD_READ_JOLVersionC.csv,"BACKWARD READ VERSION C",NEW,ATTIRE,CLOTHES,ON,F,43,75,JOL,User,-,"How likely are you to correctly recall the second item in the pair?|Type your response on a scale from 0-100 and then press Enter.",Study/JOL,"Study Phase",5417,,,2929,3857,,,,84,1
w10092569,anubrti9ct,Emily_Honors_Thesis_Part_2,1,96,2020-07-28T21:48:11-07:00,3.627888917923,15,versionC_stim_BACKWARD.csv,BACKWARD_READ_JOLVersionC.csv,"BACKWARD READ VERSION C",NEW,SIP,DRINK,ON,F,27,26,JOL,User,-,"How likely are you to correctly recall the second item in the pair?|Type your response on a scale from 0-100 and then press Enter.",Study/JOL,"Study Phase",3315,,,2799,2996,,,,88,1
w10092569,anubrti9ct,Emily_Honors_Thesis_Part_2,1,97,2020-07-28T21:48:16-07:00,5.5282549858093,15,versionC_stim_BACKWARD.csv,BACKWARD_READ_JOLVersionC.csv,"BACKWARD READ VERSION C",NEW,CHEESE,WINE,ON,S,57,11,JOL,User,-,"How likely are you to correctly recall the second item in the pair?|Type your response on a scale from 0-100 and then press Enter.",Study/JOL,"Study Phase",5200,,,4192,4740,,,,34,1
w10092569,anubrti9ct,Emily_Honors_Thesis_Part_2,1,98,2020-07-28T21:48:22-07:00,5.8910131454468,15,versionC_stim_BACKWARD.csv,BACKWARD_READ_JOLVersionC.csv,"BACKWARD READ VERSION C",NEW,BAD,DELINQUENT,ON,B,6,24,JOL,User,-,"How likely are you to correctly recall the second item in the pair?|Type your response on a scale from 0-100 and then press Enter.",Study/JOL,"Study Phase",5582,,,4784,4939,,,,14,1
w10092569,anubrti9ct,Emily_Honors_Thesis_Part_2,1,99,2020-07-28T21:48:27-07:00,5.1689870357513,15,versionC_stim_BACKWARD.csv,BACKWARD_READ_JOLVersionC.csv,"BACKWARD READ VERSION C",NEW,CAR,HAPPY,ON,U,77,49,JOL,User,-,"How likely are you to correctly recall the second item in the pair?|Type your response on a scale from 0-100 and then press Enter.",Study/JOL,"Study Phase",4827,,,3744,4070,,,,36,1
w10092569,anubrti9ct,Emily_Honors_Thesis_Part_2,1,100,2020-07-28T21:48:32-07:00,4.2299978733063,15,versionC_stim_BACKWARD.csv,BACKWARD_READ_JOLVersionC.csv,"BACKWARD READ VERSION C",NEW,FLOOR,DISCOVER,ON,U,71,23,JOL,User,-,"How likely are you to correctly recall the second item in the pair?|Type your response on a scale from 0-100 and then press Enter.",Study/JOL,"Study Phase",3918,,,2996,3407,,,,58,1
w10092569,anubrti9ct,Emily_Honors_Thesis_Part_2,1,101,2020-07-28T21:48:36-07:00,4.3978660106659,15,versionC_stim_BACKWARD.csv,BACKWARD_READ_JOLVersionC.csv,"BACKWARD READ VERSION C",NEW,PILOT,PLANE,ON,F,44,14,JOL,User,-,"How likely are you to correctly recall the second item in the pair?|Type your response on a scale from 0-100 and then press Enter.",Study/JOL,"Study Phase",4101,,,3591,3778,,,,87,1
w10092569,anubrti9ct,Emily_Honors_Thesis_Part_2,1,102,2020-07-28T21:48:40-07:00,4.37526512146,15,versionC_stim_BACKWARD.csv,BACKWARD_READ_JOLVersionC.csv,"BACKWARD READ VERSION C",NEW,CHOCOLATE,MALT,Buffer2,Buffer,88,91,JOL,User,-,"How likely are you to correctly recall the second item in the pair?|Type your response on a scale from 0-100 and then press Enter.",Study/JOL,BUFFER2,4058,,,3287,3621,,,,10,1
w10092569,anubrti9ct,Emily_Honors_Thesis_Part_2,1,103,2020-07-28T21:48:44-07:00,3.6978678703308,15,versionC_stim_BACKWARD.csv,BACKWARD_READ_JOLVersionC.csv,"BACKWARD READ VERSION C",NEW,POLICE,SHERIFF,Buffer2,Buffer,87,89,JOL,User,-,"How likely are you to correctly recall the second item in the pair?|Type your response on a scale from 0-100 and then press Enter.",Study/JOL,BUFFER2,3379,,,2440,2600,,,,36,1
w10092569,anubrti9ct,Emily_Honors_Thesis_Part_2,1,104,2020-07-28T21:48:47-07:00,3.2947161197662,15,versionC_stim_BACKWARD.csv,BACKWARD_READ_JOLVersionC.csv,"BACKWARD READ VERSION C",NEW,SPACE,MOON,Buffer2,Buffer,89,87,JOL,User,-,"How likely are you to correctly recall the second item in the pair?|Type your response on a scale from 0-100 and then press Enter.",Study/JOL,BUFFER2,2955,,,2154,2316,,,,74,1
w10092569,anubrti9ct,Emily_Honors_Thesis_Part_2,1,105,2020-07-28T21:48:54-07:00,6.3436288833618,15,versionC_stim_BACKWARD.csv,BACKWARD_READ_JOLVersionC.csv,"BACKWARD READ VERSION C",NEW,STUFF,THING,Buffer2,Buffer,90,88,JOL,User,-,"How likely are you to correctly recall the second item in the pair?|Type your response on a scale from 0-100 and then press Enter.",Study/JOL,BUFFER2,6025,,,5090,5480,,,,82,1
w10092569,anubrti9ct,Emily_Honors_Thesis_Part_2,1,106,2020-07-28T21:48:58-07:00,3.8946290016174,15,versionC_stim_BACKWARD.csv,BACKWARD_READ_JOLVersionC.csv,"BACKWARD READ VERSION C",NEW,GOOSE,GEESE,Buffer2,Buffer,86,90,JOL,User,-,"How likely are you to correctly recall the second item in the pair?|Type your response on a scale from 0-100 and then press Enter.",Study/JOL,BUFFER2,3569,,,2548,2907,,,,92,1
w10092569,anubrti9ct,Emily_Honors_Thesis_Part_2,1,107,2020-07-28T21:48:59-07:00,1.7128159999847,15,versionC_stim_BACKWARD.csv,BACKWARD_READ_JOLVersionC.csv,"BACKWARD READ VERSION C",NEW,,,,,,0,Instruct,User,-,"You have completed this section. Please press Enter.",Filler_Instruction,Instruct2,1415,,,-1,-1,,,,,1
w10092569,anubrti9ct,Emily_Honors_Thesis_Part_2,1,108,2020-07-28T21:51:00-07:00,120.34775900841,15,versionC_stim_BACKWARD.csv,BACKWARD_READ_JOLVersionC.csv,"BACKWARD READ VERSION C",NEW,,,,,,0,FreeRecall,120,120,"Please list the 50 US states in alphabetical order. The task will automatically advance to the next screen after two minutes.",,Filler1,120009,"Alabama Alaska Arizona Arkansas California Colorado Connecticut Delaware Florida Georgia Hawaii Idaho Illinois India",0,2817,119892,0,0,,,1
w10092569,anubrti9ct,Emily_Honors_Thesis_Part_2,1,109,2020-07-28T21:51:11-07:00,11.432224988937,15,versionC_stim_BACKWARD.csv,BACKWARD_READ_JOLVersionC.csv,"BACKWARD READ VERSION C",NEW,,,,,,0,Instruct,-,10,"You will now be presented with the first word from each of the previously studied item pairs. Please type the missing word. If you do not know the word, you may guess or press Enter to skip forward to the next pair.",,Instruct3,11062,,,-1,-1,,,,,1
w10092569,anubrti9ct,Emily_Honors_Thesis_Part_2,1,110,2020-07-28T21:51:15-07:00,4.1361169815063,15,versionC_stim_BACKWARD.csv,BACKWARD_READ_JOLVersionC.csv,"BACKWARD READ VERSION C",NEW,FANTASTIC,GREAT,ON,F,35,78,Test,User,-,,Recall,Recall1,3661,great,100,2204,3125,1,1,,,1
w10092569,anubrti9ct,Emily_Honors_Thesis_Part_2,1,111,2020-07-28T21:51:18-07:00,3.1333200931549,15,versionC_stim_BACKWARD.csv,BACKWARD_READ_JOLVersionC.csv,"BACKWARD READ VERSION C",NEW,SACKING,DIETARY,ON,U,67,8,Test,User,-,,Recall,Recall1,2726,,0,-1,-1,0,0,,,1
w10092569,anubrti9ct,Emily_Honors_Thesis_Part_2,1,112,2020-07-28T21:51:22-07:00,3.6383819580078,15,versionC_stim_BACKWARD.csv,BACKWARD_READ_JOLVersionC.csv,"BACKWARD READ VERSION C",NEW,STING,HORNET,ON,B,11,25,Test,User,-,,Recall,Recall1,3331,bee,22.222222222222,2686,3107,0,0,,,1
w10092569,anubrti9ct,Emily_Honors_Thesis_Part_2,1,113,2020-07-28T21:51:26-07:00,4.1516890525818,15,versionC_stim_BACKWARD.csv,BACKWARD_READ_JOLVersionC.csv,"BACKWARD READ VERSION C",NEW,COW,HERD,ON,B,22,41,Test,User,-,,Recall,Recall1,3797,herd,100,1291,3551,1,1,,,1
w10092569,anubrti9ct,Emily_Honors_Thesis_Part_2,1,114,2020-07-28T21:51:29-07:00,2.7783980369568,15,versionC_stim_BACKWARD.csv,BACKWARD_READ_JOLVersionC.csv,"BACKWARD READ VERSION C",NEW,DIVISION,MATH,ON,F,33,77,Test,User,-,,Recall,Recall1,2440,math,100,1402,2040,1,1,,,1
w10092569,anubrti9ct,Emily_Honors_Thesis_Part_2,1,115,2020-07-28T21:51:31-07:00,2.1485970020294,15,versionC_stim_BACKWARD.csv,BACKWARD_READ_JOLVersionC.csv,"BACKWARD READ VERSION C",NEW,ASSIGNMENT,DUE,ON,S,46,28,Test,User,-,,Recall,Recall1,1815,due,100,1317,1681,1,1,,,1
w10092569,anubrti9ct,Emily_Honors_Thesis_Part_2,1,116,2020-07-28T21:51:34-07:00,2.6322200298309,15,versionC_stim_BACKWARD.csv,BACKWARD_READ_JOLVersionC.csv,"BACKWARD READ VERSION C",NEW,ATTIRE,CLOTHES,ON,F,43,75,Test,User,-,,Recall,Recall1,2319,clothes,100,984,2137,1,1,,,1
w10092569,anubrti9ct,Emily_Honors_Thesis_Part_2,1,117,2020-07-28T21:51:43-07:00,9.247330904007,15,versionC_stim_BACKWARD.csv,BACKWARD_READ_JOLVersionC.csv,"BACKWARD READ VERSION C",NEW,SIGHT,DEBATE,ON,U,73,68,Test,User,-,,Recall,Recall1,8916,discussion,12.5,6215,8539,0,0,,,1
w10092569,anubrti9ct,Emily_Honors_Thesis_Part_2,1,118,2020-07-28T21:51:47-07:00,3.7374229431152,15,versionC_stim_BACKWARD.csv,BACKWARD_READ_JOLVersionC.csv,"BACKWARD READ VERSION C",NEW,FLOWER,ORCHID,ON,B,24,42,Test,User,-,,Recall,Recall1,3413,orchid,100,2047,3094,1,1,,,1
w10092569,anubrti9ct,Emily_Honors_Thesis_Part_2,1,119,2020-07-28T21:51:49-07:00,2.6232640743256,15,versionC_stim_BACKWARD.csv,BACKWARD_READ_JOLVersionC.csv,"BACKWARD READ VERSION C",NEW,PILOT,PLANE,ON,F,44,14,Test,User,-,,Recall,Recall1,2311,plane,100,1253,2089,1,1,,,1
w10092569,anubrti9ct,Emily_Honors_Thesis_Part_2,1,120,2020-07-28T21:51:52-07:00,2.6696648597717,15,versionC_stim_BACKWARD.csv,BACKWARD_READ_JOLVersionC.csv,"BACKWARD READ VERSION C",NEW,SIP,DRINK,ON,F,27,26,Test,User,-,,Recall,Recall1,2376,drink,100,1208,2069,1,1,,,1
w10092569,anubrti9ct,Emily_Honors_Thesis_Part_2,1,121,2020-07-28T21:51:55-07:00,2.6114912033081,15,versionC_stim_BACKWARD.csv,BACKWARD_READ_JOLVersionC.csv,"BACKWARD READ VERSION C",NEW,LION,ART,ON,U,79,85,Test,User,-,,Recall,Recall1,2291,art,100,1512,2060,1,1,,,1
w10092569,anubrti9ct,Emily_Honors_Thesis_Part_2,1,122,2020-07-28T21:52:00-07:00,5.0673809051514,15,versionC_stim_BACKWARD.csv,BACKWARD_READ_JOLVersionC.csv,"BACKWARD READ VERSION C",NEW,WATER,BRIDGE,ON,B,18,39,Test,User,-,,Recall,Recall1,4748,,0,-1,-1,0,0,,,1
w10092569,anubrti9ct,Emily_Honors_Thesis_Part_2,1,123,2020-07-28T21:52:03-07:00,3.6567239761353,15,versionC_stim_BACKWARD.csv,BACKWARD_READ_JOLVersionC.csv,"BACKWARD READ VERSION C",NEW,CAR,HAPPY,ON,U,77,49,Test,User,-,,Recall,Recall1,3327,happy,100,2330,3154,1,1,,,1
w10092569,anubrti9ct,Emily_Honors_Thesis_Part_2,1,124,2020-07-28T21:52:08-07:00,4.8111310005188,15,versionC_stim_BACKWARD.csv,BACKWARD_READ_JOLVersionC.csv,"BACKWARD READ VERSION C",NEW,ROCK,GEOLOGY,ON,B,19,29,Test,User,-,,Recall,Recall1,4500,,0,-1,-1,0,0,,,1
w10092569,anubrti9ct,Emily_Honors_Thesis_Part_2,1,125,2020-07-28T21:52:16-07:00,7.9559350013733,15,versionC_stim_BACKWARD.csv,BACKWARD_READ_JOLVersionC.csv,"BACKWARD READ VERSION C",NEW,HUNGRY,PARK,ON,U,68,18,Test,User,-,,Recall,Recall1,7626,car,57.142857142857,6872,7401,0,0,,,1
w10092569,anubrti9ct,Emily_Honors_Thesis_Part_2,1,126,2020-07-28T21:52:19-07:00,3.2282531261444,15,versionC_stim_BACKWARD.csv,BACKWARD_READ_JOLVersionC.csv,"BACKWARD READ VERSION C",NEW,DOG,PAW,ON,B,15,83,Test,User,-,,Recall,Recall1,2917,paw,100,1215,2705,1,1,,,1
w10092569,anubrti9ct,Emily_Honors_Thesis_Part_2,1,127,2020-07-28T21:52:27-07:00,8.0974948406219,15,versionC_stim_BACKWARD.csv,BACKWARD_READ_JOLVersionC.csv,"BACKWARD READ VERSION C",NEW,HAMMER,CHISEL,ON,B,9,70,Test,User,-,,Recall,Recall1,7763,climmer,30.769230769231,4570,5751,0,0,,,1
w10092569,anubrti9ct,Emily_Honors_Thesis_Part_2,1,128,2020-07-28T21:52:30-07:00,2.4934320449829,15,versionC_stim_BACKWARD.csv,BACKWARD_READ_JOLVersionC.csv,"BACKWARD READ VERSION C",NEW,SODA,POP,ON,S,56,52,Test,User,-,,Recall,Recall1,2170,pop,100,1362,1879,1,1,,,1
w10092569,anubrti9ct,Emily_Honors_Thesis_Part_2,1,129,2020-07-28T21:52:37-07:00,7.0973770618439,15,versionC_stim_BACKWARD.csv,BACKWARD_READ_JOLVersionC.csv,"BACKWARD READ VERSION C",NEW,SICK,HIDE,ON,U,84,32,Test,User,-,,Recall,Recall1,6791,bay,0,5545,6595,0,0,,,1
w10092569,anubrti9ct,Emily_Honors_Thesis_Part_2,1,130,2020-07-28T21:52:39-07:00,2.3802728652954,15,versionC_stim_BACKWARD.csv,BACKWARD_READ_JOLVersionC.csv,"BACKWARD READ VERSION C",NEW,RIDDLE,SUGAR,ON,U,81,27,Test,User,-,,Recall,Recall1,2065,,0,-1,-1,0,0,,,1
w10092569,anubrti9ct,Emily_Honors_Thesis_Part_2,1,131,2020-07-28T21:52:45-07:00,5.3488299846649,15,versionC_stim_BACKWARD.csv,BACKWARD_READ_JOLVersionC.csv,"BACKWARD READ VERSION C",NEW,WAR,REVOLUTION,ON,B,20,69,Test,User,-,,Recall,Recall1,5032,revolution,100,2596,4543,1,1,,,1
w10092569,anubrti9ct,Emily_Honors_Thesis_Part_2,1,132,2020-07-28T21:52:48-07:00,3.7979280948639,15,versionC_stim_BACKWARD.csv,BACKWARD_READ_JOLVersionC.csv,"BACKWARD READ VERSION C",NEW,BLAZE,FIRE,ON,F,45,73,Test,User,-,,Recall,Recall1,3457,fire,100,2860,3312,1,1,,,1
w10092569,anubrti9ct,Emily_Honors_Thesis_Part_2,1,133,2020-07-28T21:52:54-07:00,5.5482039451599,15,versionC_stim_BACKWARD.csv,BACKWARD_READ_JOLVersionC.csv,"BACKWARD READ VERSION C",NEW,ADD,VALLEY,ON,U,82,66,Test,User,-,,Recall,Recall1,5234,math,20,3385,5024,0,0,,,1
w10092569,anubrti9ct,Emily_Honors_Thesis_Part_2,1,134,2020-07-28T21:52:57-07:00,3.283478975296,15,versionC_stim_BACKWARD.csv,BACKWARD_READ_JOLVersionC.csv,"BACKWARD READ VERSION C",NEW,ROUND,CIRCLE,ON,S,65,38,Test,User,-,,Recall,Recall1,2948,circle,100,1316,2766,1,1,,,1
w10092569,anubrti9ct,Emily_Honors_Thesis_Part_2,1,135,2020-07-28T21:53:00-07:00,2.712818145752,15,versionC_stim_BACKWARD.csv,BACKWARD_READ_JOLVersionC.csv,"BACKWARD READ VERSION C",NEW,CHILD,BABY,ON,S,64,61,Test,User,-,,Recall,Recall1,2381,baby,100,1353,1929,1,1,,,1
w10092569,anubrti9ct,Emily_Honors_Thesis_Part_2,1,136,2020-07-28T21:53:04-07:00,3.7234919071198,15,versionC_stim_BACKWARD.csv,BACKWARD_READ_JOLVersionC.csv,"BACKWARD READ VERSION C",NEW,ENOUGH,FULL,ON,F,26,48,Test,User,-,,Recall,Recall1,3403,full,100,1599,3177,1,1,,,1
w10092569,anubrti9ct,Emily_Honors_Thesis_Part_2,1,137,2020-07-28T21:53:06-07:00,2.7364521026611,15,versionC_stim_BACKWARD.csv,BACKWARD_READ_JOLVersionC.csv,"BACKWARD READ VERSION C",NEW,LATCH,KEY,ON,F,36,10,Test,User,-,,Recall,Recall1,2394,key,100,1795,2057,1,1,,,1
w10092569,anubrti9ct,Emily_Honors_Thesis_Part_2,1,138,2020-07-28T21:53:09-07:00,2.9593088626862,15,versionC_stim_BACKWARD.csv,BACKWARD_READ_JOLVersionC.csv,"BACKWARD READ VERSION C",NEW,CAVE,DARK,ON,F,28,80,Test,User,-,,Recall,Recall1,2661,dark,100,1723,2402,1,1,,,1
w10092569,anubrti9ct,Emily_Honors_Thesis_Part_2,1,139,2020-07-28T21:53:18-07:00,8.233894109726,15,versionC_stim_BACKWARD.csv,BACKWARD_READ_JOLVersionC.csv,"BACKWARD READ VERSION C",NEW,SALAD,LETTUCE,ON,S,59,31,Test,User,-,,Recall,Recall1,6833,lettuce,100,2893,6612,1,1,,,1
w10092569,anubrti9ct,Emily_Honors_Thesis_Part_2,1,140,2020-07-28T21:53:25-07:00,7.5123689174652,15,versionC_stim_BACKWARD.csv,BACKWARD_READ_JOLVersionC.csv,"BACKWARD READ VERSION C",NEW,STOMACH,DIGESTION,ON,B,7,46,Test,User,-,,Recall,Recall1,7109,digestion,100,1632,6779,1,1,,,1
w10092569,anubrti9ct,Emily_Honors_Thesis_Part_2,1,141,2020-07-28T21:53:33-07:00,7.9388599395752,15,versionC_stim_BACKWARD.csv,BACKWARD_READ_JOLVersionC.csv,"BACKWARD READ VERSION C",NEW,NEWS,EDITOR,ON,B,10,34,Test,User,-,,Recall,Recall1,7633,editor,100,1221,7295,1,1,,,1
w10092569,anubrti9ct,Emily_Honors_Thesis_Part_2,1,142,2020-07-28T21:53:39-07:00,6.180703163147,15,versionC_stim_BACKWARD.csv,BACKWARD_READ_JOLVersionC.csv,"BACKWARD READ VERSION C",NEW,AMOUNT,NUMBER,ON,S,47,59,Test,User,-,,Recall,Recall1,5848,number,100,3334,5659,1,1,,,1
w10092569,anubrti9ct,Emily_Honors_Thesis_Part_2,1,143,2020-07-28T21:53:44-07:00,4.4274590015411,15,versionC_stim_BACKWARD.csv,BACKWARD_READ_JOLVersionC.csv,"BACKWARD READ VERSION C",NEW,CARD,CREDIT,ON,B,23,12,Test,User,-,,Recall,Recall1,4092,credit,100,845,3738,1,1,,,1
w10092569,anubrti9ct,Emily_Honors_Thesis_Part_2,1,144,2020-07-28T21:53:48-07:00,4.0781869888306,15,versionC_stim_BACKWARD.csv,BACKWARD_READ_JOLVersionC.csv,"BACKWARD READ VERSION C",NEW,BIRD,SWAN,ON,B,14,71,Test,User,-,,Recall,Recall1,3748,swan,100,2850,3487,1,1,,,1
w10092569,anubrti9ct,Emily_Honors_Thesis_Part_2,1,145,2020-07-28T21:53:51-07:00,3.6337878704071,15,versionC_stim_BACKWARD.csv,BACKWARD_READ_JOLVersionC.csv,"BACKWARD READ VERSION C",NEW,LIVER,KIDNEY,ON,S,53,22,Test,User,-,,Recall,Recall1,3290,kidney,100,1523,3119,1,1,,,1
w10092569,anubrti9ct,Emily_Honors_Thesis_Part_2,1,146,2020-07-28T21:53:58-07:00,6.2155439853668,15,versionC_stim_BACKWARD.csv,BACKWARD_READ_JOLVersionC.csv,"BACKWARD READ VERSION C",NEW,SITE,LOCATION,ON,S,48,79,Test,User,-,,Recall,Recall1,5872,location,100,1371,5612,1,1,,,1
w10092569,anubrti9ct,Emily_Honors_Thesis_Part_2,1,147,2020-07-28T21:54:01-07:00,3.1518139839172,15,versionC_stim_BACKWARD.csv,BACKWARD_READ_JOLVersionC.csv,"BACKWARD READ VERSION C",NEW,BRONZE,ARTERY,ON,U,74,45,Test,User,-,,Recall,Recall1,2843,artery,100,1266,2584,1,1,,,1
w10092569,anubrti9ct,Emily_Honors_Thesis_Part_2,1,148,2020-07-28T21:54:04-07:00,2.8477880954742,15,versionC_stim_BACKWARD.csv,BACKWARD_READ_JOLVersionC.csv,"BACKWARD READ VERSION C",NEW,MONEY,WAGE,ON,B,8,15,Test,User,-,,Recall,Recall1,2525,wage,100,1709,2162,1,1,,,1
w10092569,anubrti9ct,Emily_Honors_Thesis_Part_2,1,149,2020-07-28T21:54:09-07:00,5.0987920761108,15,versionC_stim_BACKWARD.csv,BACKWARD_READ_JOLVersionC.csv,"BACKWARD READ VERSION C",NEW,POSITION,MACHINE,ON,U,76,50,Test,User,-,,Recall,Recall1,4798,,0,-1,-1,0,0,,,1
w10092569,anubrti9ct,Emily_Honors_Thesis_Part_2,1,150,2020-07-28T21:54:13-07:00,4.6669149398804,15,versionC_stim_BACKWARD.csv,BACKWARD_READ_JOLVersionC.csv,"BACKWARD READ VERSION C",NEW,CLEAN,HYGIENE,ON,B,17,21,Test,User,-,,Recall,Recall1,4339,hygeine,85.714285714286,1363,3902,0,1,,,1
w10092569,anubrti9ct,Emily_Honors_Thesis_Part_2,1,151,2020-07-28T21:54:17-07:00,3.5436871051788,15,versionC_stim_BACKWARD.csv,BACKWARD_READ_JOLVersionC.csv,"BACKWARD READ VERSION C",NEW,OUT,WAY,ON,B,16,36,Test,User,-,,Recall,Recall1,3228,way,100,1007,3034,1,1,,,1
w10092569,anubrti9ct,Emily_Honors_Thesis_Part_2,1,152,2020-07-28T21:54:20-07:00,3.4575819969177,15,versionC_stim_BACKWARD.csv,BACKWARD_READ_JOLVersionC.csv,"BACKWARD READ VERSION C",NEW,GROWTH,HEIGHT,ON,F,30,60,Test,User,-,,Recall,Recall1,3085,height,100,1798,2843,1,1,,,1
w10092569,anubrti9ct,Emily_Honors_Thesis_Part_2,1,153,2020-07-28T21:54:23-07:00,2.2273018360138,15,versionC_stim_BACKWARD.csv,BACKWARD_READ_JOLVersionC.csv,"BACKWARD READ VERSION C",NEW,CHILI,HOT,ON,F,37,86,Test,User,-,,Recall,Recall1,1910,hot,100,1275,1768,1,1,,,1
w10092569,anubrti9ct,Emily_Honors_Thesis_Part_2,1,154,2020-07-28T21:54:27-07:00,4.4168140888214,15,versionC_stim_BACKWARD.csv,BACKWARD_READ_JOLVersionC.csv,"BACKWARD READ VERSION C",NEW,DESIGN,ARCHITECTURE,ON,S,51,76,Test,User,-,,Recall,Recall1,4107,model,11.764705882353,2789,3550,0,0,,,1
w10092569,anubrti9ct,Emily_Honors_Thesis_Part_2,1,155,2020-07-28T21:54:29-07:00,2.4465758800507,15,versionC_stim_BACKWARD.csv,BACKWARD_READ_JOLVersionC.csv,"BACKWARD READ VERSION C",NEW,WOMAN,LIFT,ON,U,69,82,Test,User,-,,Recall,Recall1,2094,lift,100,1144,1900,1,1,,,1
w10092569,anubrti9ct,Emily_Honors_Thesis_Part_2,1,156,2020-07-28T21:54:33-07:00,3.5829660892487,15,versionC_stim_BACKWARD.csv,BACKWARD_READ_JOLVersionC.csv,"BACKWARD READ VERSION C",NEW,JURY,TRIAL,ON,S,50,57,Test,User,-,,Recall,Recall1,3272,trail,80,1152,2323,0,1,,,1
w10092569,anubrti9ct,Emily_Honors_Thesis_Part_2,1,157,2020-07-28T21:54:39-07:00,6.116947889328,15,versionC_stim_BACKWARD.csv,BACKWARD_READ_JOLVersionC.csv,"BACKWARD READ VERSION C",NEW,WASTE,DUMP,ON,S,49,67,Test,User,-,,Recall,Recall1,5793,trash,0,4293,5480,0,0,,,1
w10092569,anubrti9ct,Emily_Honors_Thesis_Part_2,1,158,2020-07-28T21:54:44-07:00,5.3117082118988,15,versionC_stim_BACKWARD.csv,BACKWARD_READ_JOLVersionC.csv,"BACKWARD READ VERSION C",NEW,TUCK,ALLOW,ON,U,78,51,Test,User,-,,Recall,Recall1,4996,,0,3814,3814,0,0,,,1
w10092569,anubrti9ct,Emily_Honors_Thesis_Part_2,1,159,2020-07-28T21:54:49-07:00,4.8765668869019,15,versionC_stim_BACKWARD.csv,BACKWARD_READ_JOLVersionC.csv,"BACKWARD READ VERSION C",NEW,CLUTTER,PUSHER,ON,U,66,72,Test,User,-,,Recall,Recall1,4558,cut,22.222222222222,3816,4386,0,0,,,1
w10092569,anubrti9ct,Emily_Honors_Thesis_Part_2,1,160,2020-07-28T21:54:54-07:00,4.3998520374298,15,versionC_stim_BACKWARD.csv,BACKWARD_READ_JOLVersionC.csv,"BACKWARD READ VERSION C",NEW,STENCH,SMELL,ON,F,42,20,Test,User,-,,Recall,Recall1,4078,stink,20,2567,3757,0,0,,,1
w10092569,anubrti9ct,Emily_Honors_Thesis_Part_2,1,161,2020-07-28T21:54:57-07:00,3.3697400093079,15,versionC_stim_BACKWARD.csv,BACKWARD_READ_JOLVersionC.csv,"BACKWARD READ VERSION C",NEW,TOILET,BATHROOM,ON,S,58,58,Test,User,-,,Recall,Recall1,3027,bathroom,100,1078,2731,1,1,,,1
w10092569,anubrti9ct,Emily_Honors_Thesis_Part_2,1,162,2020-07-28T21:55:05-07:00,7.9779758453369,15,versionC_stim_BACKWARD.csv,BACKWARD_READ_JOLVersionC.csv,"BACKWARD READ VERSION C",NEW,FAMINE,HUNGER,ON,F,40,44,Test,User,-,,Recall,Recall1,7663,,0,-1,-1,0,0,,,1
w10092569,anubrti9ct,Emily_Honors_Thesis_Part_2,1,163,2020-07-28T21:55:07-07:00,2.2520930767059,15,versionC_stim_BACKWARD.csv,BACKWARD_READ_JOLVersionC.csv,"BACKWARD READ VERSION C",NEW,SEIZE,TAKE,ON,F,29,62,Test,User,-,,Recall,Recall1,1926,,0,-1,-1,0,0,,,1
w10092569,anubrti9ct,Emily_Honors_Thesis_Part_2,1,164,2020-07-28T21:55:14-07:00,6.3470339775085,15,versionC_stim_BACKWARD.csv,BACKWARD_READ_JOLVersionC.csv,"BACKWARD READ VERSION C",NEW,RACKET,BALL,ON,F,38,17,Test,User,-,,Recall,Recall1,5985,ship,0,2877,5523,0,0,,,1
w10092569,anubrti9ct,Emily_Honors_Thesis_Part_2,1,165,2020-07-28T21:55:17-07:00,3.347941160202,15,versionC_stim_BACKWARD.csv,BACKWARD_READ_JOLVersionC.csv,"BACKWARD READ VERSION C",NEW,DEFINITION,MEANING,ON,S,62,30,Test,User,-,,Recall,Recall1,3007,meaning,100,1696,2725,1,1,,,1
w10092569,anubrti9ct,Emily_Honors_Thesis_Part_2,1,166,2020-07-28T21:55:20-07:00,3.3239679336548,15,versionC_stim_BACKWARD.csv,BACKWARD_READ_JOLVersionC.csv,"BACKWARD READ VERSION C",NEW,ATTORNEY,LAW,ON,F,34,33,Test,User,-,,Recall,Recall1,3005,law,100,2380,2770,1,1,,,1
w10092569,anubrti9ct,Emily_Honors_Thesis_Part_2,1,167,2020-07-28T21:55:24-07:00,3.2744710445404,15,versionC_stim_BACKWARD.csv,BACKWARD_READ_JOLVersionC.csv,"BACKWARD READ VERSION C",NEW,WOULD,CASH,ON,U,83,7,Test,User,-,,Recall,Recall1,2974,cash,100,1809,2502,1,1,,,1
w10092569,anubrti9ct,Emily_Honors_Thesis_Part_2,1,168,2020-07-28T21:55:27-07:00,3.5823659896851,15,versionC_stim_BACKWARD.csv,BACKWARD_READ_JOLVersionC.csv,"BACKWARD READ VERSION C",NEW,CHEESE,WINE,ON,S,57,11,Test,User,-,,Recall,Recall1,3264,wine,100,2683,3086,1,1,,,1
w10092569,anubrti9ct,Emily_Honors_Thesis_Part_2,1,169,2020-07-28T21:55:34-07:00,7.0336689949036,15,versionC_stim_BACKWARD.csv,BACKWARD_READ_JOLVersionC.csv,"BACKWARD READ VERSION C",NEW,BAD,DELINQUENT,ON,B,6,24,Test,User,-,,Recall,Recall1,6733,delinquiet,90,1278,6140,0,1,,,1
w10092569,anubrti9ct,Emily_Honors_Thesis_Part_2,1,170,2020-07-28T21:55:40-07:00,5.9056279659271,15,versionC_stim_BACKWARD.csv,BACKWARD_READ_JOLVersionC.csv,"BACKWARD READ VERSION C",NEW,TALK,DISCUSSION,ON,B,21,40,Test,User,-,,Recall,Recall1,5581,discussion,100,2518,5028,1,1,,,1
w10092569,anubrti9ct,Emily_Honors_Thesis_Part_2,1,171,2020-07-28T21:55:48-07:00,7.5108320713043,15,versionC_stim_BACKWARD.csv,BACKWARD_READ_JOLVersionC.csv,"BACKWARD READ VERSION C",NEW,FLOOR,DISCOVER,ON,U,71,23,Test,User,-,,Recall,Recall1,7170,cleaner,40,5341,6815,0,0,,,1
w10092569,anubrti9ct,Emily_Honors_Thesis_Part_2,1,172,2020-07-28T21:55:58-07:00,10.09214091301,15,versionC_stim_BACKWARD.csv,BACKWARD_READ_JOLVersionC.csv,"BACKWARD READ VERSION C",NEW,ACCIDENT,STRONG,ON,U,80,84,Test,User,-,,Recall,Recall1,9766,,0,-1,-1,0,0,,,1
w10092569,anubrti9ct,Emily_Honors_Thesis_Part_2,1,173,2020-07-28T21:56:00-07:00,2.5742070674896,15,versionC_stim_BACKWARD.csv,BACKWARD_READ_JOLVersionC.csv,"BACKWARD READ VERSION C",NEW,BELT,SOON,ON,U,70,81,Test,User,-,,Recall,Recall1,2249,,0,-1,-1,0,0,,,1
w10092569,anubrti9ct,Emily_Honors_Thesis_Part_2,1,174,2020-07-28T21:56:07-07:00,6.3362929821014,15,versionC_stim_BACKWARD.csv,BACKWARD_READ_JOLVersionC.csv,"BACKWARD READ VERSION C",NEW,BUSINESS,DEATH,ON,U,72,63,Test,User,-,,Recall,Recall1,6012,,0,-1,-1,0,0,,,1
w10092569,anubrti9ct,Emily_Honors_Thesis_Part_2,1,175,2020-07-28T21:56:10-07:00,3.5938658714294,15,versionC_stim_BACKWARD.csv,BACKWARD_READ_JOLVersionC.csv,"BACKWARD READ VERSION C",NEW,VASE,KING,ON,U,85,35,Test,User,-,,Recall,Recall1,3277,plant,22.222222222222,2383,3099,0,0,,,1
w10092569,anubrti9ct,Emily_Honors_Thesis_Part_2,1,176,2020-07-28T21:56:15-07:00,4.9153430461884,15,versionC_stim_BACKWARD.csv,BACKWARD_READ_JOLVersionC.csv,"BACKWARD READ VERSION C",NEW,WASP,BUG,ON,F,32,56,Test,User,-,,Recall,Recall1,4598,sting,25,2964,4370,0,0,,,1
w10092569,anubrti9ct,Emily_Honors_Thesis_Part_2,1,177,2020-07-28T21:56:18-07:00,3.149209022522,15,versionC_stim_BACKWARD.csv,BACKWARD_READ_JOLVersionC.csv,"BACKWARD READ VERSION C",NEW,END,BEGIN,ON,S,54,13,Test,User,-,,Recall,Recall1,2741,begin,100,1381,2437,1,1,,,1
w10092569,anubrti9ct,Emily_Honors_Thesis_Part_2,1,178,2020-07-28T21:56:21-07:00,2.3342599868774,15,versionC_stim_BACKWARD.csv,BACKWARD_READ_JOLVersionC.csv,"BACKWARD READ VERSION C",NEW,FISH,TUNA,ON,B,25,16,Test,User,-,,Recall,Recall1,2009,tuna,100,1286,1858,1,1,,,1
w10092569,anubrti9ct,Emily_Honors_Thesis_Part_2,1,179,2020-07-28T21:56:24-07:00,3.2592968940735,15,versionC_stim_BACKWARD.csv,BACKWARD_READ_JOLVersionC.csv,"BACKWARD READ VERSION C",NEW,BAR,GRILL,ON,S,52,19,Test,User,-,,Recall,Recall1,2949,grill,100,1969,2763,1,1,,,1
w10092569,anubrti9ct,Emily_Honors_Thesis_Part_2,1,180,2020-07-28T21:56:27-07:00,3.1707592010498,15,versionC_stim_BACKWARD.csv,BACKWARD_READ_JOLVersionC.csv,"BACKWARD READ VERSION C",NEW,FUTURE,PAST,ON,S,61,55,Test,User,-,,Recall,Recall1,2854,pas,85.714285714286,1597,2290,0,1,,,1
w10092569,anubrti9ct,Emily_Honors_Thesis_Part_2,1,181,2020-07-28T21:56:36-07:00,8.5134170055389,15,versionC_stim_BACKWARD.csv,BACKWARD_READ_JOLVersionC.csv,"BACKWARD READ VERSION C",NEW,WORD,SENTENCE,ON,F,31,9,Test,User,-,,Recall,Recall1,8193,sentence,100,4301,7640,1,1,,,1
w10092569,anubrti9ct,Emily_Honors_Thesis_Part_2,1,182,2020-07-28T21:56:38-07:00,2.0449938774109,15,versionC_stim_BACKWARD.csv,BACKWARD_READ_JOLVersionC.csv,"BACKWARD READ VERSION C",NEW,WIND,BLOW,ON,S,55,43,Test,User,-,,Recall,Recall1,1749,blow,100,1117,1598,1,1,,,1
w10092569,anubrti9ct,Emily_Honors_Thesis_Part_2,1,183,2020-07-28T21:56:41-07:00,3.5712840557098,15,versionC_stim_BACKWARD.csv,BACKWARD_READ_JOLVersionC.csv,"BACKWARD READ VERSION C",NEW,COLD,BITTER,ON,B,12,37,Test,User,-,,Recall,Recall1,3262,bitter,100,1058,2462,1,1,,,1
w10092569,anubrti9ct,Emily_Honors_Thesis_Part_2,1,184,2020-07-28T21:56:45-07:00,3.7404198646545,15,versionC_stim_BACKWARD.csv,BACKWARD_READ_JOLVersionC.csv,"BACKWARD READ VERSION C",NEW,HAND,FIX,ON,U,75,53,Test,User,-,,Recall,Recall1,3405,fix,100,2594,3252,1,1,,,1
w10092569,anubrti9ct,Emily_Honors_Thesis_Part_2,1,185,2020-07-28T21:56:51-07:00,6.0923471450806,15,versionC_stim_BACKWARD.csv,BACKWARD_READ_JOLVersionC.csv,"BACKWARD READ VERSION C",NEW,PLANT,ROOT,ON,B,13,74,Test,User,-,,Recall,Recall1,5791,root,100,3526,5659,1,1,,,1
w10092569,anubrti9ct,Emily_Honors_Thesis_Part_2,1,186,2020-07-28T21:56:53-07:00,2.2174348831177,15,versionC_stim_BACKWARD.csv,BACKWARD_READ_JOLVersionC.csv,"BACKWARD READ VERSION C",NEW,BEE,HONEY,ON,S,63,47,Test,User,-,,Recall,Recall1,1866,sting,20,983,1662,0,0,,,1
w10092569,anubrti9ct,Emily_Honors_Thesis_Part_2,1,187,2020-07-28T21:56:56-07:00,2.7992341518402,15,versionC_stim_BACKWARD.csv,BACKWARD_READ_JOLVersionC.csv,"BACKWARD READ VERSION C",NEW,DROWSY,SLEEP,ON,F,41,54,Test,User,-,,Recall,Recall1,2469,sleep,100,1348,1977,1,1,,,1
w10092569,anubrti9ct,Emily_Honors_Thesis_Part_2,1,188,2020-07-28T21:57:01-07:00,5.2002718448639,15,versionC_stim_BACKWARD.csv,BACKWARD_READ_JOLVersionC.csv,"BACKWARD READ VERSION C",NEW,FOOT,SHOE,ON,S,60,64,Test,User,-,,Recall,Recall1,4881,shoe,100,3208,4670,1,1,,,1
w10092569,anubrti9ct,Emily_Honors_Thesis_Part_2,1,189,2020-07-28T21:57:08-07:00,6.9219741821289,15,versionC_stim_BACKWARD.csv,BACKWARD_READ_JOLVersionC.csv,"BACKWARD READ VERSION C",NEW,CHORE,WORK,ON,F,39,65,Test,User,-,,Recall,Recall1,6610,work,100,3323,5644,1,1,,,1
w10092569,anubrti9ct,Emily_Honors_Thesis_Part_2,1,190,2020-07-28T21:57:11-07:00,2.4081490039825,15,versionC_stim_BACKWARD.csv,BACKWARD_READ_JOLVersionC.csv,"BACKWARD READ VERSION C",NEW,,,,,,0,Instruct,User,-,"You have completed this section. Please press Enter.",Filler_Instruction,Instruct21,2100,,,-1,-1,,,,,1
w10092569,anubrti9ct,Emily_Honors_Thesis_Part_2,1,191,2020-07-28T21:57:32-07:00,20.969221830368,15,versionC_stim_BACKWARD.csv,BACKWARD_READ_JOLVersionC.csv,"BACKWARD READ VERSION C",NEW,,,,,,0,Instruct,-,12,"The order that words are presented in can affect how well you remember them. For example, the pairs CREDIT-CARD and CARD-CREDIT both have the same words, but people are less likely to remember CARD-CREDIT because the order is uncommon. On the next screen you will be shown a graph illustrating this finding. Please study it for at least 20 seconds.",,BACKWARD_INSTRUCTIONS1,19675,,,-1,-1,,,,,1
w10092569,anubrti9ct,Emily_Honors_Thesis_Part_2,1,192,2020-07-28T21:58:00-07:00,28.810944080353,15,versionC_stim_BACKWARD.csv,BACKWARD_READ_JOLVersionC.csv,"BACKWARD READ VERSION C",NEW,images/Sample.jpg,"Forward pairs (CREDIT-CARD) are remembered better than Backward pairs (CARD-CREDIT) and Symmetrical pairs (KING-QUEEN), even though people rate their ability to remember them the same way. Please keep this in mind as you make your ratings!",,,,192,StudyPic,-,20,,,GRAPH1,28383,,,-1,-1,,,,,1
w10092569,anubrti9ct,Emily_Honors_Thesis_Part_2,1,193,2020-07-28T21:58:20-07:00,19.996907949448,15,versionC_stim_BACKWARD.csv,BACKWARD_READ_JOLVersionC.csv,"BACKWARD READ VERSION C",NEW,,,,,,0,FreeRecall,-,10,"Based on the graph you just studied, what pair type is best remembered (Forward, Backward, or Symmetrical)?",,BACKWARD_INSTRUCTIONS2,19562,forward,0,10762,12971,0,0,,,1
w10092569,anubrti9ct,Emily_Honors_Thesis_Part_2,1,194,2020-07-28T21:58:35-07:00,14.478156089783,15,versionC_stim_BACKWARD.csv,BACKWARD_READ_JOLVersionC.csv,"BACKWARD READ VERSION C",NEW,,,,,,0,Instruct,-,10,"You will now be presented with a new set of word pairs. Please study each pair. Remember that your memory will be tested! When finished, press Enter to move to the next pair.",Initial_Instruct,Instruct4,14048,,,-1,-1,,,,,1
w10092569,anubrti9ct,Emily_Honors_Thesis_Part_2,1,195,2020-07-28T21:58:47-07:00,12.140149831772,15,versionC_stim_BACKWARD.csv,BACKWARD_READ_JOLVersionC.csv,"BACKWARD READ VERSION C",NEW,,,,,,0,Instruct,-,10,"You will again be asked to rate your ability to remember these items using a 0 to 100 scale. Remember to use the full range of the scale!",,Instruct10,11590,,,-1,-1,,,,,1
w10092569,anubrti9ct,Emily_Honors_Thesis_Part_2,1,196,2020-07-28T21:58:51-07:00,4.4264321327209,15,versionC_stim_BACKWARD.csv,BACKWARD_READ_JOLVersionC.csv,"BACKWARD READ VERSION C",NEW,,,,,,0,Instruct,User,-,"Press Enter when you are readty to begin",,Instruct11,4112,,,-1,-1,,,,,0.65
w10092569,anubrti9ct,Emily_Honors_Thesis_Part_2,1,197,2020-07-28T21:58:57-07:00,5.0600810050964,15,versionC_stim_BACKWARD.csv,BACKWARD_READ_JOLVersionC.csv,"BACKWARD READ VERSION C",NEW,ADVENTURE,CAMP,Buffer3,Buffer,95,93,JOL,User,-,"How likely are you to correctly recall the second item in the pair?|Type your response on a scale from 0-100 and then press Enter.",Study/JOL,BUFFER3,4691,,,4217,4340,,,,58,1
w10092569,anubrti9ct,Emily_Honors_Thesis_Part_2,1,198,2020-07-28T21:59:00-07:00,3.0919768810272,15,versionC_stim_BACKWARD.csv,BACKWARD_READ_JOLVersionC.csv,"BACKWARD READ VERSION C",NEW,SHED,TOOL,Buffer3,Buffer,178,95,JOL,User,-,"How likely are you to correctly recall the second item in the pair?|Type your response on a scale from 0-100 and then press Enter.",Study/JOL,BUFFER3,2770,,,2120,2329,,,,98,1
w10092569,anubrti9ct,Emily_Honors_Thesis_Part_2,1,199,2020-07-28T21:59:03-07:00,3.1121780872345,15,versionC_stim_BACKWARD.csv,BACKWARD_READ_JOLVersionC.csv,"BACKWARD READ VERSION C",NEW,YEAR,MONTH,Buffer3,Buffer,177,92,JOL,User,-,"How likely are you to correctly recall the second item in the pair?|Type your response on a scale from 0-100 and then press Enter.",Study/JOL,BUFFER3,2801,,,2317,2569,,,,75,1
w10092569,anubrti9ct,Emily_Honors_Thesis_Part_2,1,200,2020-07-28T21:59:05-07:00,2.6376941204071,15,versionC_stim_BACKWARD.csv,BACKWARD_READ_JOLVersionC.csv,"BACKWARD READ VERSION C",NEW,FROZEN,ICE,Buffer3,Buffer,94,94,JOL,User,-,"How likely are you to correctly recall the second item in the pair?|Type your response on a scale from 0-100 and then press Enter.",Study/JOL,BUFFER3,2321,,,1573,1953,,,,100,1
w10092569,anubrti9ct,Emily_Honors_Thesis_Part_2,1,201,2020-07-28T21:59:09-07:00,3.2687768936157,15,versionC_stim_BACKWARD.csv,BACKWARD_READ_JOLVersionC.csv,"BACKWARD READ VERSION C",NEW,POTATO,CARROT,Buffer3,Buffer,91,96,JOL,User,-,"How likely are you to correctly recall the second item in the pair?|Type your response on a scale from 0-100 and then press Enter.",Study/JOL,BUFFER3,2917,,,2223,2420,,,,25,1
w10092569,anubrti9ct,Emily_Honors_Thesis_Part_2,1,202,2020-07-28T21:59:12-07:00,3.5553510189056,15,versionC_stim_BACKWARD.csv,BACKWARD_READ_JOLVersionC.csv,"BACKWARD READ VERSION C",NEW,CLOTH,STRETCH,ON2,U,157,159,JOL,User,-,"How likely are you to correctly recall the second item in the pair?|Type your response on a scale from 0-100 and then press Enter.",Study/JOL,"Study Phase2",3206,,,2469,2682,,,,45,1
w10092569,anubrti9ct,Emily_Honors_Thesis_Part_2,1,203,2020-07-28T21:59:16-07:00,3.4121389389038,15,versionC_stim_BACKWARD.csv,BACKWARD_READ_JOLVersionC.csv,"BACKWARD READ VERSION C",NEW,AWAY,GONE,ON2,S,142,171,JOL,User,-,"How likely are you to correctly recall the second item in the pair?|Type your response on a scale from 0-100 and then press Enter.",Study/JOL,"Study Phase2",3073,,,2438,2629,,,,68,1
w10092569,anubrti9ct,Emily_Honors_Thesis_Part_2,1,204,2020-07-28T21:59:20-07:00,3.9190280437469,15,versionC_stim_BACKWARD.csv,BACKWARD_READ_JOLVersionC.csv,"BACKWARD READ VERSION C",NEW,LIE,TRUTH,ON2,S,148,148,JOL,User,-,"How likely are you to correctly recall the second item in the pair?|Type your response on a scale from 0-100 and then press Enter.",Study/JOL,"Study Phase2",3602,,,3041,3233,,,,48,1
w10092569,anubrti9ct,Emily_Honors_Thesis_Part_2,1,205,2020-07-28T21:59:24-07:00,4.5440409183502,15,versionC_stim_BACKWARD.csv,BACKWARD_READ_JOLVersionC.csv,"BACKWARD READ VERSION C",NEW,HEAD,SCALP,ON2,B,105,143,JOL,User,-,"How likely are you to correctly recall the second item in the pair?|Type your response on a scale from 0-100 and then press Enter.",Study/JOL,"Study Phase2",4229,,,3362,3599,,,,68,1
w10092569,anubrti9ct,Emily_Honors_Thesis_Part_2,1,206,2020-07-28T21:59:27-07:00,3.1307420730591,15,versionC_stim_BACKWARD.csv,BACKWARD_READ_JOLVersionC.csv,"BACKWARD READ VERSION C",NEW,WET,DRY,ON2,S,146,155,JOL,User,-,"How likely are you to correctly recall the second item in the pair?|Type your response on a scale from 0-100 and then press Enter.",Study/JOL,"Study Phase2",2781,,,2014,2231,,,,74,1
w10092569,anubrti9ct,Emily_Honors_Thesis_Part_2,1,207,2020-07-28T21:59:31-07:00,3.732794046402,15,versionC_stim_BACKWARD.csv,BACKWARD_READ_JOLVersionC.csv,"BACKWARD READ VERSION C",NEW,PLANT,CACTUS,ON2,B,98,162,JOL,User,-,"How likely are you to correctly recall the second item in the pair?|Type your response on a scale from 0-100 and then press Enter.",Study/JOL,"Study Phase2",3417,,,2802,3014,,,,56,1
w10092569,anubrti9ct,Emily_Honors_Thesis_Part_2,1,208,2020-07-28T21:59:35-07:00,3.8541879653931,15,versionC_stim_BACKWARD.csv,BACKWARD_READ_JOLVersionC.csv,"BACKWARD READ VERSION C",NEW,LONELY,ALONE,ON2,S,145,102,JOL,User,-,"How likely are you to correctly recall the second item in the pair?|Type your response on a scale from 0-100 and then press Enter.",Study/JOL,"Study Phase2",3545,,,2741,2935,,,,89,1
w10092569,anubrti9ct,Emily_Honors_Thesis_Part_2,1,209,2020-07-28T21:59:39-07:00,4.5602130889893,15,versionC_stim_BACKWARD.csv,BACKWARD_READ_JOLVersionC.csv,"BACKWARD READ VERSION C",NEW,MAROON,JUSTICE,ON2,U,156,137,JOL,User,-,"How likely are you to correctly recall the second item in the pair?|Type your response on a scale from 0-100 and then press Enter.",Study/JOL,"Study Phase2",4226,,,3652,3905,,,,20,1
w10092569,anubrti9ct,Emily_Honors_Thesis_Part_2,1,210,2020-07-28T21:59:43-07:00,3.2083148956299,15,versionC_stim_BACKWARD.csv,BACKWARD_READ_JOLVersionC.csv,"BACKWARD READ VERSION C",NEW,RED,CHERRY,ON2,B,104,167,JOL,User,-,"How likely are you to correctly recall the second item in the pair?|Type your response on a scale from 0-100 and then press Enter.",Study/JOL,"Study Phase2",2892,,,1440,1860,,,,100,1
w10092569,anubrti9ct,Emily_Honors_Thesis_Part_2,1,211,2020-07-28T21:59:48-07:00,5.4342160224915,15,versionC_stim_BACKWARD.csv,BACKWARD_READ_JOLVersionC.csv,"BACKWARD READ VERSION C",NEW,LEAGUE,BASEBALL,ON2,F,131,150,JOL,User,-,"How likely are you to correctly recall the second item in the pair?|Type your response on a scale from 0-100 and then press Enter.",Study/JOL,"Study Phase2",5112,,,4300,4668,,,,65,1
w10092569,anubrti9ct,Emily_Honors_Thesis_Part_2,1,212,2020-07-28T21:59:51-07:00,3.059886932373,15,versionC_stim_BACKWARD.csv,BACKWARD_READ_JOLVersionC.csv,"BACKWARD READ VERSION C",NEW,GAME,CLUE,ON2,B,97,119,JOL,User,-,"How likely are you to correctly recall the second item in the pair?|Type your response on a scale from 0-100 and then press Enter.",Study/JOL,"Study Phase2",2727,,,1845,2337,,,,74,1
w10092569,anubrti9ct,Emily_Honors_Thesis_Part_2,1,213,2020-07-28T21:59:59-07:00,8.2676861286163,15,versionC_stim_BACKWARD.csv,BACKWARD_READ_JOLVersionC.csv,"BACKWARD READ VERSION C",NEW,MYSTERY,DETECTIVE,ON2,B,100,158,JOL,User,-,"How likely are you to correctly recall the second item in the pair?|Type your response on a scale from 0-100 and then press Enter.",Study/JOL,"Study Phase2",7927,,,7301,7454,,,,45,1
w10092569,anubrti9ct,Emily_Honors_Thesis_Part_2,1,214,2020-07-28T22:00:02-07:00,3.0860919952393,15,versionC_stim_BACKWARD.csv,BACKWARD_READ_JOLVersionC.csv,"BACKWARD READ VERSION C",NEW,PENGUIN,BIRD,ON2,F,119,114,JOL,User,-,"How likely are you to correctly recall the second item in the pair?|Type your response on a scale from 0-100 and then press Enter.",Study/JOL,"Study Phase2",2777,,,2166,2462,,,,26,1
w10092569,anubrti9ct,Emily_Honors_Thesis_Part_2,1,215,2020-07-28T22:00:07-07:00,4.9613380432129,15,versionC_stim_BACKWARD.csv,BACKWARD_READ_JOLVersionC.csv,"BACKWARD READ VERSION C",NEW,HAVE,OWN,ON2,S,153,98,JOL,User,-,"How likely are you to correctly recall the second item in the pair?|Type your response on a scale from 0-100 and then press Enter.",Study/JOL,"Study Phase2",4642,,,3729,4023,,,,75,1
w10092569,anubrti9ct,Emily_Honors_Thesis_Part_2,1,216,2020-07-28T22:00:10-07:00,2.8526289463043,15,versionC_stim_BACKWARD.csv,BACKWARD_READ_JOLVersionC.csv,"BACKWARD READ VERSION C",NEW,PAPER,DOCUMENT,ON2,B,109,105,JOL,User,-,"How likely are you to correctly recall the second item in the pair?|Type your response on a scale from 0-100 and then press Enter.",Study/JOL,"Study Phase2",2529,,,1648,2145,,,,100,1
w10092569,anubrti9ct,Emily_Honors_Thesis_Part_2,1,217,2020-07-28T22:00:13-07:00,2.9032919406891,15,versionC_stim_BACKWARD.csv,BACKWARD_READ_JOLVersionC.csv,"BACKWARD READ VERSION C",NEW,LOVE,AFFECTION,ON2,B,115,99,JOL,User,-,"How likely are you to correctly recall the second item in the pair?|Type your response on a scale from 0-100 and then press Enter.",Study/JOL,"Study Phase2",2562,,,1241,1748,,,,100,1
w10092569,anubrti9ct,Emily_Honors_Thesis_Part_2,1,218,2020-07-28T22:00:17-07:00,3.9820790290833,15,versionC_stim_BACKWARD.csv,BACKWARD_READ_JOLVersionC.csv,"BACKWARD READ VERSION C",NEW,BREAKABLE,GLASS,ON2,F,127,172,JOL,User,-,"How likely are you to correctly recall the second item in the pair?|Type your response on a scale from 0-100 and then press Enter.",Study/JOL,"Study Phase2",3632,,,3028,3161,,,,97,1
w10092569,anubrti9ct,Emily_Honors_Thesis_Part_2,1,219,2020-07-28T22:00:20-07:00,3.3263759613037,15,versionC_stim_BACKWARD.csv,BACKWARD_READ_JOLVersionC.csv,"BACKWARD READ VERSION C",NEW,OBTAIN,MEAT,ON2,U,161,109,JOL,User,-,"How likely are you to correctly recall the second item in the pair?|Type your response on a scale from 0-100 and then press Enter.",Study/JOL,"Study Phase2",3011,,,2513,2716,,,,35,1
w10092569,anubrti9ct,Emily_Honors_Thesis_Part_2,1,220,2020-07-28T22:00:25-07:00,4.3189029693604,15,versionC_stim_BACKWARD.csv,BACKWARD_READ_JOLVersionC.csv,"BACKWARD READ VERSION C",NEW,COFFIN,DEAD,ON2,F,128,117,JOL,User,-,"How likely are you to correctly recall the second item in the pair?|Type your response on a scale from 0-100 and then press Enter.",Study/JOL,"Study Phase2",4006,,,3534,3668,,,,87,1
w10092569,anubrti9ct,Emily_Honors_Thesis_Part_2,1,221,2020-07-28T22:00:29-07:00,3.9918689727783,15,versionC_stim_BACKWARD.csv,BACKWARD_READ_JOLVersionC.csv,"BACKWARD READ VERSION C",NEW,SCISSORS,SHEARS,ON2,B,112,141,JOL,User,-,"How likely are you to correctly recall the second item in the pair?|Type your response on a scale from 0-100 and then press Enter.",Study/JOL,"Study Phase2",3625,,,3103,3371,,,,26,1
w10092569,anubrti9ct,Emily_Honors_Thesis_Part_2,1,222,2020-07-28T22:00:34-07:00,5.5298790931702,15,versionC_stim_BACKWARD.csv,BACKWARD_READ_JOLVersionC.csv,"BACKWARD READ VERSION C",NEW,WINDSHIELD,CAR,ON2,F,117,170,JOL,User,-,"How likely are you to correctly recall the second item in the pair?|Type your response on a scale from 0-100 and then press Enter.",Study/JOL,"Study Phase2",5170,,,4392,4707,,,,50,1
w10092569,anubrti9ct,Emily_Honors_Thesis_Part_2,1,223,2020-07-28T22:00:35-07:00,0.87492609024048,15,versionC_stim_BACKWARD.csv,BACKWARD_READ_JOLVersionC.csv,"BACKWARD READ VERSION C",NEW,BANKER,MONEY,ON2,F,132,165,JOL,User,-,"How likely are you to correctly recall the second item in the pair?|Type your response on a scale from 0-100 and then press Enter.",Study/JOL,"Study Phase2",582,,,-1,-1,,,,,1
w10092569,anubrti9ct,Emily_Honors_Thesis_Part_2,1,224,2020-07-28T22:00:41-07:00,5.6783909797668,15,versionC_stim_BACKWARD.csv,BACKWARD_READ_JOLVersionC.csv,"BACKWARD READ VERSION C",NEW,WAX,CANDLE,ON2,S,139,110,JOL,User,-,"How likely are you to correctly recall the second item in the pair?|Type your response on a scale from 0-100 and then press Enter.",Study/JOL,"Study Phase2",5375,,,4797,5073,,,,26,1
w10092569,anubrti9ct,Emily_Honors_Thesis_Part_2,1,225,2020-07-28T22:00:45-07:00,4.0818929672241,15,versionC_stim_BACKWARD.csv,BACKWARD_READ_JOLVersionC.csv,"BACKWARD READ VERSION C",NEW,PANTHER,CAT,ON2,F,126,166,JOL,User,-,"How likely are you to correctly recall the second item in the pair?|Type your response on a scale from 0-100 and then press Enter.",Study/JOL,"Study Phase2",3741,,,3035,3341,,,,68,1
w10092569,anubrti9ct,Emily_Honors_Thesis_Part_2,1,226,2020-07-28T22:00:49-07:00,3.8641140460968,15,versionC_stim_BACKWARD.csv,BACKWARD_READ_JOLVersionC.csv,"BACKWARD READ VERSION C",NEW,VILLAIN,BAD,ON2,F,118,100,JOL,User,-,"How likely are you to correctly recall the second item in the pair?|Type your response on a scale from 0-100 and then press Enter.",Study/JOL,"Study Phase2",3532,,,3018,3230,,,,97,1
w10092569,anubrti9ct,Emily_Honors_Thesis_Part_2,1,227,2020-07-28T22:00:52-07:00,2.9361538887024,15,versionC_stim_BACKWARD.csv,BACKWARD_READ_JOLVersionC.csv,"BACKWARD READ VERSION C",NEW,FLIP,TURN,ON2,F,116,132,JOL,User,-,"How likely are you to correctly recall the second item in the pair?|Type your response on a scale from 0-100 and then press Enter.",Study/JOL,"Study Phase2",2598,,,2099,2203,,,,89,1
w10092569,anubrti9ct,Emily_Honors_Thesis_Part_2,1,228,2020-07-28T22:00:55-07:00,3.2461149692535,15,versionC_stim_BACKWARD.csv,BACKWARD_READ_JOLVersionC.csv,"BACKWARD READ VERSION C",NEW,CUT,CHOP,ON2,B,107,169,JOL,User,-,"How likely are you to correctly recall the second item in the pair?|Type your response on a scale from 0-100 and then press Enter.",Study/JOL,"Study Phase2",2906,,,2184,2474,,,,78,1
w10092569,anubrti9ct,Emily_Honors_Thesis_Part_2,1,229,2020-07-28T22:01:01-07:00,6.1384971141815,15,versionC_stim_BACKWARD.csv,BACKWARD_READ_JOLVersionC.csv,"BACKWARD READ VERSION C",NEW,GROUND,EARTH,ON2,S,144,140,JOL,User,-,"How likely are you to correctly recall the second item in the pair?|Type your response on a scale from 0-100 and then press Enter.",Study/JOL,"Study Phase2",5822,,,5310,5382,,,,36,1
w10092569,anubrti9ct,Emily_Honors_Thesis_Part_2,1,230,2020-07-28T22:01:05-07:00,3.9491059780121,15,versionC_stim_BACKWARD.csv,BACKWARD_READ_JOLVersionC.csv,"BACKWARD READ VERSION C",NEW,BANG,FUZZY,ON2,U,168,97,JOL,User,-,"How likely are you to correctly recall the second item in the pair?|Type your response on a scale from 0-100 and then press Enter.",Study/JOL,"Study Phase2",3627,,,3109,3230,,,,56,1
w10092569,anubrti9ct,Emily_Honors_Thesis_Part_2,1,231,2020-07-28T22:01:09-07:00,4.0131080150604,15,versionC_stim_BACKWARD.csv,BACKWARD_READ_JOLVersionC.csv,"BACKWARD READ VERSION C",NEW,NOISE,LOUD,ON2,S,152,104,JOL,User,-,"How likely are you to correctly recall the second item in the pair?|Type your response on a scale from 0-100 and then press Enter.",Study/JOL,"Study Phase2",3687,,,2944,3195,,,,85,1
w10092569,anubrti9ct,Emily_Honors_Thesis_Part_2,1,232,2020-07-28T22:01:12-07:00,3.1769959926605,15,versionC_stim_BACKWARD.csv,BACKWARD_READ_JOLVersionC.csv,"BACKWARD READ VERSION C",NEW,SIGN,LOAN,ON2,U,171,145,JOL,User,-,"How likely are you to correctly recall the second item in the pair?|Type your response on a scale from 0-100 and then press Enter.",Study/JOL,"Study Phase2",2818,,,2346,2431,,,,69,1
w10092569,anubrti9ct,Emily_Honors_Thesis_Part_2,1,233,2020-07-28T22:01:17-07:00,4.9277999401093,15,versionC_stim_BACKWARD.csv,BACKWARD_READ_JOLVersionC.csv,"BACKWARD READ VERSION C",NEW,THIMBLE,THREAD,ON2,F,121,176,JOL,User,-,"How likely are you to correctly recall the second item in the pair?|Type your response on a scale from 0-100 and then press Enter.",Study/JOL,"Study Phase2",4577,,,4168,4315,,,,15,1
w10092569,anubrti9ct,Emily_Honors_Thesis_Part_2,1,234,2020-07-28T22:01:21-07:00,3.9483919143677,15,versionC_stim_BACKWARD.csv,BACKWARD_READ_JOLVersionC.csv,"BACKWARD READ VERSION C",NEW,BRAWL,FIGHT,ON2,F,135,152,JOL,User,-,"How likely are you to correctly recall the second item in the pair?|Type your response on a scale from 0-100 and then press Enter.",Study/JOL,"Study Phase2",3589,,,2804,3026,,,,97,1
w10092569,anubrti9ct,Emily_Honors_Thesis_Part_2,1,235,2020-07-28T22:01:24-07:00,3.1666920185089,15,versionC_stim_BACKWARD.csv,BACKWARD_READ_JOLVersionC.csv,"BACKWARD READ VERSION C",NEW,SARDINE,FISH,ON2,F,130,129,JOL,User,-,"How likely are you to correctly recall the second item in the pair?|Type your response on a scale from 0-100 and then press Enter.",Study/JOL,"Study Phase2",2857,,,2391,2579,,,,15,1
w10092569,anubrti9ct,Emily_Honors_Thesis_Part_2,1,236,2020-07-28T22:01:31-07:00,6.4220290184021,15,versionC_stim_BACKWARD.csv,BACKWARD_READ_JOLVersionC.csv,"BACKWARD READ VERSION C",NEW,SHAVE,RAZOR,ON2,S,136,149,JOL,User,-,"How likely are you to correctly recall the second item in the pair?|Type your response on a scale from 0-100 and then press Enter.",Study/JOL,"Study Phase2",6072,,,5479,5700,,,,96,1
w10092569,anubrti9ct,Emily_Honors_Thesis_Part_2,1,237,2020-07-28T22:01:36-07:00,4.9737360477448,15,versionC_stim_BACKWARD.csv,BACKWARD_READ_JOLVersionC.csv,"BACKWARD READ VERSION C",NEW,REVENGE,EVEN,ON2,F,122,121,JOL,User,-,"How likely are you to correctly recall the second item in the pair?|Type your response on a scale from 0-100 and then press Enter.",Study/JOL,"Study Phase2",4652,,,3830,4341,,,,100,1
w10092569,anubrti9ct,Emily_Honors_Thesis_Part_2,1,238,2020-07-28T22:01:39-07:00,3.3390519618988,15,versionC_stim_BACKWARD.csv,BACKWARD_READ_JOLVersionC.csv,"BACKWARD READ VERSION C",NEW,DRINK,WATER,ON2,S,143,115,JOL,User,-,"How likely are you to correctly recall the second item in the pair?|Type your response on a scale from 0-100 and then press Enter.",Study/JOL,"Study Phase2",3033,,,2490,2628,,,,87,1
w10092569,anubrti9ct,Emily_Honors_Thesis_Part_2,1,239,2020-07-28T22:01:43-07:00,4.2080659866333,15,versionC_stim_BACKWARD.csv,BACKWARD_READ_JOLVersionC.csv,"BACKWARD READ VERSION C",NEW,SHAKE,SHELL,ON2,U,163,120,JOL,User,-,"How likely are you to correctly recall the second item in the pair?|Type your response on a scale from 0-100 and then press Enter.",Study/JOL,"Study Phase2",3902,,,3378,3550,,,,35,1
w10092569,anubrti9ct,Emily_Honors_Thesis_Part_2,1,240,2020-07-28T22:01:49-07:00,6.0303380489349,15,versionC_stim_BACKWARD.csv,BACKWARD_READ_JOLVersionC.csv,"BACKWARD READ VERSION C",NEW,END,ADJOURN,ON2,B,101,138,JOL,User,-,"How likely are you to correctly recall the second item in the pair?|Type your response on a scale from 0-100 and then press Enter.",Study/JOL,"Study Phase2",5701,,,5192,5484,,,,25,1
w10092569,anubrti9ct,Emily_Honors_Thesis_Part_2,1,241,2020-07-28T22:01:54-07:00,4.2971389293671,15,versionC_stim_BACKWARD.csv,BACKWARD_READ_JOLVersionC.csv,"BACKWARD READ VERSION C",NEW,CARBON,ELEMENT,ON2,S,141,157,JOL,User,-,"How likely are you to correctly recall the second item in the pair?|Type your response on a scale from 0-100 and then press Enter.",Study/JOL,"Study Phase2",3666,,,3127,3200,,,,69,1
w10092569,anubrti9ct,Emily_Honors_Thesis_Part_2,1,242,2020-07-28T22:01:58-07:00,4.5483901500702,15,versionC_stim_BACKWARD.csv,BACKWARD_READ_JOLVersionC.csv,"BACKWARD READ VERSION C",NEW,CHILDREN,MIRROR,ON2,U,174,108,JOL,User,-,"How likely are you to correctly recall the second item in the pair?|Type your response on a scale from 0-100 and then press Enter.",Study/JOL,"Study Phase2",4195,,,2907,3852,,,,85,1
w10092569,anubrti9ct,Emily_Honors_Thesis_Part_2,1,243,2020-07-28T22:02:02-07:00,3.6646959781647,15,versionC_stim_BACKWARD.csv,BACKWARD_READ_JOLVersionC.csv,"BACKWARD READ VERSION C",NEW,COMMUNICATION,PHONE,ON2,S,149,175,JOL,User,-,"How likely are you to correctly recall the second item in the pair?|Type your response on a scale from 0-100 and then press Enter.",Study/JOL,"Study Phase2",3347,,,2495,2606,,,,78,1
w10092569,anubrti9ct,Emily_Honors_Thesis_Part_2,1,244,2020-07-28T22:02:06-07:00,3.9296998977661,15,versionC_stim_BACKWARD.csv,BACKWARD_READ_JOLVersionC.csv,"BACKWARD READ VERSION C",NEW,ABLE,CRACKLE,ON2,U,162,112,JOL,User,-,"How likely are you to correctly recall the second item in the pair?|Type your response on a scale from 0-100 and then press Enter.",Study/JOL,"Study Phase2",3609,,,2442,3259,,,,63,1
w10092569,anubrti9ct,Emily_Honors_Thesis_Part_2,1,245,2020-07-28T22:02:09-07:00,3.2928609848022,15,versionC_stim_BACKWARD.csv,BACKWARD_READ_JOLVersionC.csv,"BACKWARD READ VERSION C",NEW,MORNING,TEMPERATURE,ON2,U,173,103,JOL,User,-,"How likely are you to correctly recall the second item in the pair?|Type your response on a scale from 0-100 and then press Enter.",Study/JOL,"Study Phase2",2978,,,2407,2572,,,,56,1
w10092569,anubrti9ct,Emily_Honors_Thesis_Part_2,1,246,2020-07-28T22:02:13-07:00,4.1811640262604,15,versionC_stim_BACKWARD.csv,BACKWARD_READ_JOLVersionC.csv,"BACKWARD READ VERSION C",NEW,ACTRESS,STAR,ON2,F,120,174,JOL,User,-,"How likely are you to correctly recall the second item in the pair?|Type your response on a scale from 0-100 and then press Enter.",Study/JOL,"Study Phase2",3832,,,3113,3287,,,,88,1
w10092569,anubrti9ct,Emily_Honors_Thesis_Part_2,1,247,2020-07-28T22:02:17-07:00,3.9985840320587,15,versionC_stim_BACKWARD.csv,BACKWARD_READ_JOLVersionC.csv,"BACKWARD READ VERSION C",NEW,ELECTION,MAZE,ON2,U,159,107,JOL,User,-,"How likely are you to correctly recall the second item in the pair?|Type your response on a scale from 0-100 and then press Enter.",Study/JOL,"Study Phase2",3667,,,3050,3175,,,,45,1
w10092569,anubrti9ct,Emily_Honors_Thesis_Part_2,1,248,2020-07-28T22:02:22-07:00,4.6965379714966,15,versionC_stim_BACKWARD.csv,BACKWARD_READ_JOLVersionC.csv,"BACKWARD READ VERSION C",NEW,SMELL,INCENSE,ON2,B,110,126,JOL,User,-,"How likely are you to correctly recall the second item in the pair?|Type your response on a scale from 0-100 and then press Enter.",Study/JOL,"Study Phase2",4164,,,3473,3769,,,,75,1
w10092569,anubrti9ct,Emily_Honors_Thesis_Part_2,1,249,2020-07-28T22:02:25-07:00,3.5025339126587,15,versionC_stim_BACKWARD.csv,BACKWARD_READ_JOLVersionC.csv,"BACKWARD READ VERSION C",NEW,EQUAL,RIGHTS,ON2,S,137,144,JOL,User,-,"How likely are you to correctly recall the second item in the pair?|Type your response on a scale from 0-100 and then press Enter.",Study/JOL,"Study Phase2",3082,,,2002,2529,,,,100,1
w10092569,anubrti9ct,Emily_Honors_Thesis_Part_2,1,250,2020-07-28T22:02:30-07:00,4.8002901077271,15,versionC_stim_BACKWARD.csv,BACKWARD_READ_JOLVersionC.csv,"BACKWARD READ VERSION C",NEW,TEMPER,TANTRUM,ON2,S,154,118,JOL,User,-,"How likely are you to correctly recall the second item in the pair?|Type your response on a scale from 0-100 and then press Enter.",Study/JOL,"Study Phase2",4468,,,3711,4222,,,,100,1
w10092569,anubrti9ct,Emily_Honors_Thesis_Part_2,1,251,2020-07-28T22:02:34-07:00,3.4610650539398,15,versionC_stim_BACKWARD.csv,BACKWARD_READ_JOLVersionC.csv,"BACKWARD READ VERSION C",NEW,DONKEY,MULE,ON2,B,108,160,JOL,User,-,"How likely are you to correctly recall the second item in the pair?|Type your response on a scale from 0-100 and then press Enter.",Study/JOL,"Study Phase2",3136,,,2526,2823,,,,68,1
w10092569,anubrti9ct,Emily_Honors_Thesis_Part_2,1,252,2020-07-28T22:02:38-07:00,4.2959928512573,15,versionC_stim_BACKWARD.csv,BACKWARD_READ_JOLVersionC.csv,"BACKWARD READ VERSION C",NEW,JAR,MASON,ON2,S,138,124,JOL,User,-,"How likely are you to correctly recall the second item in the pair?|Type your response on a scale from 0-100 and then press Enter.",Study/JOL,"Study Phase2",2981,,,2435,2527,,,,78,1
w10092569,anubrti9ct,Emily_Honors_Thesis_Part_2,1,253,2020-07-28T22:02:41-07:00,3.4255042076111,15,versionC_stim_BACKWARD.csv,BACKWARD_READ_JOLVersionC.csv,"BACKWARD READ VERSION C",NEW,CLEAR,MOAT,ON2,U,169,123,JOL,User,-,"How likely are you to correctly recall the second item in the pair?|Type your response on a scale from 0-100 and then press Enter.",Study/JOL,"Study Phase2",3072,,,2598,2741,,,,89,1
w10092569,anubrti9ct,Emily_Honors_Thesis_Part_2,1,254,2020-07-28T22:02:45-07:00,3.5805728435516,15,versionC_stim_BACKWARD.csv,BACKWARD_READ_JOLVersionC.csv,"BACKWARD READ VERSION C",NEW,EAT,DINE,ON2,B,111,135,JOL,User,-,"How likely are you to correctly recall the second item in the pair?|Type your response on a scale from 0-100 and then press Enter.",Study/JOL,"Study Phase2",3250,,,2141,2806,,,,100,1
w10092569,anubrti9ct,Emily_Honors_Thesis_Part_2,1,255,2020-07-28T22:02:51-07:00,5.6063330173492,15,versionC_stim_BACKWARD.csv,BACKWARD_READ_JOLVersionC.csv,"BACKWARD READ VERSION C",NEW,REEL,ROD,ON2,S,150,136,JOL,User,-,"How likely are you to correctly recall the second item in the pair?|Type your response on a scale from 0-100 and then press Enter.",Study/JOL,"Study Phase2",5292,,,4493,4817,,,,50,1
w10092569,anubrti9ct,Emily_Honors_Thesis_Part_2,1,256,2020-07-28T22:02:55-07:00,4.2932910919189,15,versionC_stim_BACKWARD.csv,BACKWARD_READ_JOLVersionC.csv,"BACKWARD READ VERSION C",NEW,NAP,SLEEP,ON2,F,134,164,JOL,User,-,"How likely are you to correctly recall the second item in the pair?|Type your response on a scale from 0-100 and then press Enter.",Study/JOL,"Study Phase2",3971,,,3171,3723,,,,100,1
w10092569,anubrti9ct,Emily_Honors_Thesis_Part_2,1,257,2020-07-28T22:03:00-07:00,5.677120923996,15,versionC_stim_BACKWARD.csv,BACKWARD_READ_JOLVersionC.csv,"BACKWARD READ VERSION C",NEW,JOKE,KEYS,ON2,U,165,153,JOL,User,-,"How likely are you to correctly recall the second item in the pair?|Type your response on a scale from 0-100 and then press Enter.",Study/JOL,"Study Phase2",5366,,,3396,3397,,,,,1
w10092569,anubrti9ct,Emily_Honors_Thesis_Part_2,1,258,2020-07-28T22:03:05-07:00,4.4994850158691,15,versionC_stim_BACKWARD.csv,BACKWARD_READ_JOLVersionC.csv,"BACKWARD READ VERSION C",NEW,FIGHT,FEUD,ON2,B,113,133,JOL,User,-,"How likely are you to correctly recall the second item in the pair?|Type your response on a scale from 0-100 and then press Enter.",Study/JOL,"Study Phase2",4179,,,3391,3676,,,,89,1
w10092569,anubrti9ct,Emily_Honors_Thesis_Part_2,1,259,2020-07-28T22:03:11-07:00,6.1556880474091,15,versionC_stim_BACKWARD.csv,BACKWARD_READ_JOLVersionC.csv,"BACKWARD READ VERSION C",NEW,CLOTHES,CAKE,ON2,U,166,127,JOL,User,-,"How likely are you to correctly recall the second item in the pair?|Type your response on a scale from 0-100 and then press Enter.",Study/JOL,"Study Phase2",5832,,,5391,5391,,,,5,1
w10092569,anubrti9ct,Emily_Honors_Thesis_Part_2,1,260,2020-07-28T22:03:15-07:00,4.1379289627075,15,versionC_stim_BACKWARD.csv,BACKWARD_READ_JOLVersionC.csv,"BACKWARD READ VERSION C",NEW,FICTION,LISTEN,ON2,U,164,142,JOL,User,-,"How likely are you to correctly recall the second item in the pair?|Type your response on a scale from 0-100 and then press Enter.",Study/JOL,"Study Phase2",3815,,,2998,3331,,,,20,1
w10092569,anubrti9ct,Emily_Honors_Thesis_Part_2,1,261,2020-07-28T22:03:19-07:00,3.6199538707733,15,versionC_stim_BACKWARD.csv,BACKWARD_READ_JOLVersionC.csv,"BACKWARD READ VERSION C",NEW,OUNCE,BOTH,ON2,U,172,154,JOL,User,-,"How likely are you to correctly recall the second item in the pair?|Type your response on a scale from 0-100 and then press Enter.",Study/JOL,"Study Phase2",3269,,,2757,2920,,,,35,1
w10092569,anubrti9ct,Emily_Honors_Thesis_Part_2,1,262,2020-07-28T22:03:23-07:00,4.3099250793457,15,versionC_stim_BACKWARD.csv,BACKWARD_READ_JOLVersionC.csv,"BACKWARD READ VERSION C",NEW,HATE,NAME,ON2,U,167,125,JOL,User,-,"How likely are you to correctly recall the second item in the pair?|Type your response on a scale from 0-100 and then press Enter.",Study/JOL,"Study Phase2",3988,,,3422,3505,,,,65,1
w10092569,anubrti9ct,Emily_Honors_Thesis_Part_2,1,263,2020-07-28T22:03:27-07:00,3.3900561332703,15,versionC_stim_BACKWARD.csv,BACKWARD_READ_JOLVersionC.csv,"BACKWARD READ VERSION C",NEW,BALLOON,POP,ON2,F,123,131,JOL,User,-,"How likely are you to correctly recall the second item in the pair?|Type your response on a scale from 0-100 and then press Enter.",Study/JOL,"Study Phase2",3041,,,2463,2642,,,,77,1
w10092569,anubrti9ct,Emily_Honors_Thesis_Part_2,1,264,2020-07-28T22:03:38-07:00,11.333200931549,15,versionC_stim_BACKWARD.csv,BACKWARD_READ_JOLVersionC.csv,"BACKWARD READ VERSION C",NEW,FAVORITE,BEST,ON2,F,125,116,JOL,User,-,"How likely are you to correctly recall the second item in the pair?|Type your response on a scale from 0-100 and then press Enter.",Study/JOL,"Study Phase2",11021,,,10565,10730,,,,65,1
w10092569,anubrti9ct,Emily_Honors_Thesis_Part_2,1,265,2020-07-28T22:03:41-07:00,3.0186018943787,15,versionC_stim_BACKWARD.csv,BACKWARD_READ_JOLVersionC.csv,"BACKWARD READ VERSION C",NEW,CAR,DRIVER,ON2,B,106,128,JOL,User,-,"How likely are you to correctly recall the second item in the pair?|Type your response on a scale from 0-100 and then press Enter.",Study/JOL,"Study Phase2",2700,,,1921,2064,,,,78,1
w10092569,anubrti9ct,Emily_Honors_Thesis_Part_2,1,266,2020-07-28T22:03:44-07:00,3.1600031852722,15,versionC_stim_BACKWARD.csv,BACKWARD_READ_JOLVersionC.csv,"BACKWARD READ VERSION C",NEW,TICK,FLEA,ON2,S,151,106,JOL,User,-,"How likely are you to correctly recall the second item in the pair?|Type your response on a scale from 0-100 and then press Enter.",Study/JOL,"Study Phase2",2821,,,2228,2424,,,,86,1
w10092569,anubrti9ct,Emily_Honors_Thesis_Part_2,1,267,2020-07-28T22:03:48-07:00,3.8280808925629,15,versionC_stim_BACKWARD.csv,BACKWARD_READ_JOLVersionC.csv,"BACKWARD READ VERSION C",NEW,SCAR,MAIN,ON2,U,175,111,JOL,User,-,"How likely are you to correctly recall the second item in the pair?|Type your response on a scale from 0-100 and then press Enter.",Study/JOL,"Study Phase2",3505,,,2998,3141,,,,35,1
w10092569,anubrti9ct,Emily_Honors_Thesis_Part_2,1,268,2020-07-28T22:03:54-07:00,5.9742269515991,15,versionC_stim_BACKWARD.csv,BACKWARD_READ_JOLVersionC.csv,"BACKWARD READ VERSION C",NEW,AIRCRAFT,PLANE,ON2,F,129,139,JOL,User,-,"How likely are you to correctly recall the second item in the pair?|Type your response on a scale from 0-100 and then press Enter.",Study/JOL,"Study Phase2",5632,,,5104,5272,,,,55,1
w10092569,anubrti9ct,Emily_Honors_Thesis_Part_2,1,269,2020-07-28T22:03:57-07:00,3.2703649997711,15,versionC_stim_BACKWARD.csv,BACKWARD_READ_JOLVersionC.csv,"BACKWARD READ VERSION C",NEW,TOIL,LEASE,ON2,U,170,147,JOL,User,-,"How likely are you to correctly recall the second item in the pair?|Type your response on a scale from 0-100 and then press Enter.",Study/JOL,"Study Phase2",2913,,,2394,2677,,,,10,1
w10092569,anubrti9ct,Emily_Honors_Thesis_Part_2,1,270,2020-07-28T22:04:01-07:00,3.3950610160828,15,versionC_stim_BACKWARD.csv,BACKWARD_READ_JOLVersionC.csv,"BACKWARD READ VERSION C",NEW,SEATBELT,SAFETY,ON2,S,147,134,JOL,User,-,"How likely are you to correctly recall the second item in the pair?|Type your response on a scale from 0-100 and then press Enter.",Study/JOL,"Study Phase2",3076,,,2249,2726,,,,75,1
w10092569,anubrti9ct,Emily_Honors_Thesis_Part_2,1,271,2020-07-28T22:04:03-07:00,2.6321971416473,15,versionC_stim_BACKWARD.csv,BACKWARD_READ_JOLVersionC.csv,"BACKWARD READ VERSION C",NEW,COLD,CHILL,ON2,B,114,113,JOL,User,-,"How likely are you to correctly recall the second item in the pair?|Type your response on a scale from 0-100 and then press Enter.",Study/JOL,"Study Phase2",2291,,,1773,1944,,,,86,1
w10092569,anubrti9ct,Emily_Honors_Thesis_Part_2,1,272,2020-07-28T22:04:08-07:00,4.6421868801117,15,versionC_stim_BACKWARD.csv,BACKWARD_READ_JOLVersionC.csv,"BACKWARD READ VERSION C",NEW,STRAWBERRY,FRUIT,ON2,F,124,168,JOL,User,-,"How likely are you to correctly recall the second item in the pair?|Type your response on a scale from 0-100 and then press Enter.",Study/JOL,"Study Phase2",4325,,,3599,3976,,,,50,1
