Username,ID,ExperimentName,Session,Trial,Date,TimeDif,"Condition Number","Stimuli File","Order File","Condition Description","Condition Notes",Stimuli*Cue,Stimuli*Answer,Stimuli*Shuffle,"Stimuli*Stimuli Notes",Stimuli*Value,Procedure*Item,"Procedure*Trial Type","Procedure*Max Time","Procedure*Min Time",Procedure*Text,"Procedure*Procedure Notes",Procedure*Shuffle,Response*RT,Response*Response,Response*Accuracy,Response*RTfirst,Response*RTlast,Response*strictAcc,Response*lenientAcc,Response*focus,Response*JOL,Response*Focus
w10013735,4np1j7li56,Emily_Honors_Thesis_Part_2,1,1,2020-05-05T20:30:05-07:00,19.499011993408,5,versionA_stim.csv,IS_JOLVersionA.csv,"ITEM SPECIFIC Version A",OLD,,,,,,0,Instruct,-,10,"In this section, you will be presented with a series of word pairs. As you study, you will be asked to rate your ability to remember the second item in the pair if you were only shown the first at test. You will make these ratings using a 0 to 100 Scale.",,Instruct13,19182,,,-1,-1,,,,,1
w10013735,4np1j7li56,Emily_Honors_Thesis_Part_2,1,2,2020-05-05T20:30:17-07:00,12.057826042175,5,versionA_stim.csv,IS_JOLVersionA.csv,"ITEM SPECIFIC Version A",OLD,,,,,,0,Instruct,-,10,"For example, if you are given the pair CAT - DOG, a rating of 0 indicates that you would not remember DOG at test, while a rating of 100 indicates full certainty that you would remember the word DOG at test.",,Instruct14,11702,,,-1,-1,,,,,1
w10013735,4np1j7li56,Emily_Honors_Thesis_Part_2,1,3,2020-05-05T20:30:29-07:00,11.561180830002,5,versionA_stim.csv,IS_JOLVersionA.csv,"ITEM SPECIFIC Version A",OLD,,,,,,0,Instruct,-,10,"When making these ratings, it is criticial that you use the full range of the scale. You will be disqualified for only giving ratings of 0 or 100! After making your rating, press Enter to advance to the next pair.",,Instruct15,11207,,,-1,-1,,,,,1
w10013735,4np1j7li56,Emily_Honors_Thesis_Part_2,1,4,2020-05-05T20:30:47-07:00,17.830986022949,5,versionA_stim.csv,IS_JOLVersionA.csv,"ITEM SPECIFIC Version A",OLD,,,,,,0,Instruct,-,15,"As you study and make your ratings, please think about the unique featues of each item and how the two concepts are DIFFERENT from each other. For example, if you see the pair TURTLE-CAT, think about how TURTLES have shells and are reptiles, while CATS are mammals and have fur.",,Instruct19,17478,,,-1,-1,,,,,1
w10013735,4np1j7li56,Emily_Honors_Thesis_Part_2,1,5,2020-05-05T20:31:48-07:00,61.293855190277,5,versionA_stim.csv,IS_JOLVersionA.csv,"ITEM SPECIFIC Version A",OLD,,,,,,0,FreeRecall,-,10,"What you should think about as you study each item pair? Type your response in the box below.",,CHECK1,60906,"How they differ from each other and if I would be able to remember the last word in the pair on a test. ",0,13184,51087,0,0,,,0.99
w10013735,4np1j7li56,Emily_Honors_Thesis_Part_2,1,6,2020-05-05T20:31:56-07:00,7.8592648506165,5,versionA_stim.csv,IS_JOLVersionA.csv,"ITEM SPECIFIC Version A",OLD,,,,,,0,Instruct,-,5,"You will now complete a practice session. Please study the following items and rate your ability to remember them. Remember to think about how the two items are unique!",,Instruct17,7509,,,-1,-1,,,,,1
w10013735,4np1j7li56,Emily_Honors_Thesis_Part_2,1,7,2020-05-05T20:32:23-07:00,27.087607145309,5,versionA_stim.csv,IS_JOLVersionA.csv,"ITEM SPECIFIC Version A",OLD,DEAF,MUTE,PRACTICE,PRACTICE,182,191,JOL,User,-,"How likely are you to correctly recall the second item in the pair?|Type your response on a scale from 0-100 and then press Enter.",Study/JOL,PRACTICE,26740,,,25275,25387,,,,65,1
w10013735,4np1j7li56,Emily_Honors_Thesis_Part_2,1,8,2020-05-05T20:32:32-07:00,9.1838519573212,5,versionA_stim.csv,IS_JOLVersionA.csv,"ITEM SPECIFIC Version A",OLD,PADDLE,ROW,PRACTICE,PRACTICE,184,184,JOL,User,-,"How likely are you to correctly recall the second item in the pair?|Type your response on a scale from 0-100 and then press Enter.",Study/JOL,PRACTICE,8818,,,7966,8109,,,,87,1
w10013735,4np1j7li56,Emily_Honors_Thesis_Part_2,1,9,2020-05-05T20:32:42-07:00,9.7179989814758,5,versionA_stim.csv,IS_JOLVersionA.csv,"ITEM SPECIFIC Version A",OLD,FASHION,MODEL,PRACTICE,PRACTICE,190,185,JOL,User,-,"How likely are you to correctly recall the second item in the pair?|Type your response on a scale from 0-100 and then press Enter.",Study/JOL,PRACTICE,9365,,,8643,8719,,,,50,1
w10013735,4np1j7li56,Emily_Honors_Thesis_Part_2,1,10,2020-05-05T20:32:48-07:00,6.7838869094849,5,versionA_stim.csv,IS_JOLVersionA.csv,"ITEM SPECIFIC Version A",OLD,DISBELIEVE,SKEPTIC,PRACTICE,PRACTICE,186,188,JOL,User,-,"How likely are you to correctly recall the second item in the pair?|Type your response on a scale from 0-100 and then press Enter.",Study/JOL,PRACTICE,6411,,,5171,5692,,,,15,1
w10013735,4np1j7li56,Emily_Honors_Thesis_Part_2,1,11,2020-05-05T20:32:54-07:00,5.1097719669342,5,versionA_stim.csv,IS_JOLVersionA.csv,"ITEM SPECIFIC Version A",OLD,CHOCOLATE,BAR,PRACTICE,PRACTICE,187,186,JOL,User,-,"How likely are you to correctly recall the second item in the pair?|Type your response on a scale from 0-100 and then press Enter.",Study/JOL,PRACTICE,4753,,,4058,4132,,,,90,1
w10013735,4np1j7li56,Emily_Honors_Thesis_Part_2,1,12,2020-05-05T20:32:57-07:00,3.2976281642914,5,versionA_stim.csv,IS_JOLVersionA.csv,"ITEM SPECIFIC Version A",OLD,BEHAVIOR,SOCIAL,PRACTICE,PRACTICE,189,190,JOL,User,-,"How likely are you to correctly recall the second item in the pair?|Type your response on a scale from 0-100 and then press Enter.",Study/JOL,PRACTICE,2932,,,2222,2294,,,,45,1
w10013735,4np1j7li56,Emily_Honors_Thesis_Part_2,1,13,2020-05-05T20:33:05-07:00,8.5285129547119,5,versionA_stim.csv,IS_JOLVersionA.csv,"ITEM SPECIFIC Version A",OLD,HAM,BONE,PRACTICE,PRACTICE,183,183,JOL,User,-,"How likely are you to correctly recall the second item in the pair?|Type your response on a scale from 0-100 and then press Enter.",Study/JOL,PRACTICE,8175,,,7402,7418,,,,78,1
w10013735,4np1j7li56,Emily_Honors_Thesis_Part_2,1,14,2020-05-05T20:33:10-07:00,4.3440840244293,5,versionA_stim.csv,IS_JOLVersionA.csv,"ITEM SPECIFIC Version A",OLD,CHIME,MUSIC,PRACTICE,PRACTICE,188,187,JOL,User,-,"How likely are you to correctly recall the second item in the pair?|Type your response on a scale from 0-100 and then press Enter.",Study/JOL,PRACTICE,3997,,,3339,3384,,,,89,1
w10013735,4np1j7li56,Emily_Honors_Thesis_Part_2,1,15,2020-05-05T20:33:21-07:00,11.390023946762,5,versionA_stim.csv,IS_JOLVersionA.csv,"ITEM SPECIFIC Version A",OLD,HINGE,SWING,PRACTICE,PRACTICE,185,182,JOL,User,-,"How likely are you to correctly recall the second item in the pair?|Type your response on a scale from 0-100 and then press Enter.",Study/JOL,PRACTICE,11033,,,7065,10071,,,,77,1
w10013735,4np1j7li56,Emily_Honors_Thesis_Part_2,1,16,2020-05-05T20:33:25-07:00,4.0936570167542,5,versionA_stim.csv,IS_JOLVersionA.csv,"ITEM SPECIFIC Version A",OLD,AARDVARK,ZOO,PRACTICE,PRACTICE,181,189,JOL,User,-,"How likely are you to correctly recall the second item in the pair?|Type your response on a scale from 0-100 and then press Enter.",Study/JOL,PRACTICE,3740,,,1883,3549,,,,95,1
w10013735,4np1j7li56,Emily_Honors_Thesis_Part_2,1,17,2020-05-05T20:33:27-07:00,1.5772309303284,5,versionA_stim.csv,IS_JOLVersionA.csv,"ITEM SPECIFIC Version A",OLD,,,,,,0,Instruct,User,-,"You have completed this section. Please press Enter to continue.",,Instruct18,1293,,,-1,-1,,,,,1
w10013735,4np1j7li56,Emily_Honors_Thesis_Part_2,1,18,2020-05-05T20:33:28-07:00,1.5487360954285,5,versionA_stim.csv,IS_JOLVersionA.csv,"ITEM SPECIFIC Version A",OLD,,,,,,0,Instruct,User,-,"You will now begin the study. Press Enter when you are ready to begin.",,Instruct16,1257,,,-1,-1,,,,,1
w10013735,4np1j7li56,Emily_Honors_Thesis_Part_2,1,19,2020-05-05T20:33:38-07:00,9.2329938411713,5,versionA_stim.csv,IS_JOLVersionA.csv,"ITEM SPECIFIC Version A",OLD,SPACE,JAM,Buffer,Buffer,5,3,JOL,User,-,"How likely are you to correctly recall the second item in the pair?|Type your response on a scale from 0-100 and then press Enter.",Study/JOL,BUFFER,8865,,,8338,8524,,,,97,1
w10013735,4np1j7li56,Emily_Honors_Thesis_Part_2,1,20,2020-05-05T20:33:42-07:00,4.0029280185699,5,versionA_stim.csv,IS_JOLVersionA.csv,"ITEM SPECIFIC Version A",OLD,TREES,GREEN,Buffer,Buffer,1,4,JOL,User,-,"How likely are you to correctly recall the second item in the pair?|Type your response on a scale from 0-100 and then press Enter.",Study/JOL,BUFFER,3654,,,2890,3013,,,,86,1
w10013735,4np1j7li56,Emily_Honors_Thesis_Part_2,1,21,2020-05-05T20:33:50-07:00,8.2906720638275,5,versionA_stim.csv,IS_JOLVersionA.csv,"ITEM SPECIFIC Version A",OLD,SCARE,HIDE,Buffer,Buffer,4,6,JOL,User,-,"How likely are you to correctly recall the second item in the pair?|Type your response on a scale from 0-100 and then press Enter.",Study/JOL,BUFFER,7927,,,7162,7206,,,,89,1
w10013735,4np1j7li56,Emily_Honors_Thesis_Part_2,1,22,2020-05-05T20:33:54-07:00,3.9112939834595,5,versionA_stim.csv,IS_JOLVersionA.csv,"ITEM SPECIFIC Version A",OLD,BASEBALL,CATCHER,Buffer,Buffer,2,5,JOL,User,-,"How likely are you to correctly recall the second item in the pair?|Type your response on a scale from 0-100 and then press Enter.",Study/JOL,BUFFER,3558,,,2772,2895,,,,75,1
w10013735,4np1j7li56,Emily_Honors_Thesis_Part_2,1,23,2020-05-05T20:34:03-07:00,9.6051471233368,5,versionA_stim.csv,IS_JOLVersionA.csv,"ITEM SPECIFIC Version A",OLD,PEANUT,BUTTER,Buffer,Buffer,3,2,JOL,User,-,"How likely are you to correctly recall the second item in the pair?|Type your response on a scale from 0-100 and then press Enter.",Study/JOL,BUFFER,9227,,,8748,8812,,,,78,1
w10013735,4np1j7li56,Emily_Honors_Thesis_Part_2,1,24,2020-05-05T20:34:16-07:00,12.302959918976,5,versionA_stim.csv,IS_JOLVersionA.csv,"ITEM SPECIFIC Version A",OLD,DISCOVER,FLOOR,ON,U,71,33,JOL,User,-,"How likely are you to correctly recall the second item in the pair?|Type your response on a scale from 0-100 and then press Enter.",Study/JOL,"Study Phase",11920,,,11168,11301,,,,76,1
w10013735,4np1j7li56,Emily_Honors_Thesis_Part_2,1,25,2020-05-05T20:34:25-07:00,9.2071030139923,5,versionA_stim.csv,IS_JOLVersionA.csv,"ITEM SPECIFIC Version A",OLD,WINE,CHEESE,ON,S,57,45,JOL,User,-,"How likely are you to correctly recall the second item in the pair?|Type your response on a scale from 0-100 and then press Enter.",Study/JOL,"Study Phase",8803,,,7967,8130,,,,85,1
w10013735,4np1j7li56,Emily_Honors_Thesis_Part_2,1,26,2020-05-05T20:34:41-07:00,16.136787891388,5,versionA_stim.csv,IS_JOLVersionA.csv,"ITEM SPECIFIC Version A",OLD,DARK,CAVE,ON,B,28,34,JOL,User,-,"How likely are you to correctly recall the second item in the pair?|Type your response on a scale from 0-100 and then press Enter.",Study/JOL,"Study Phase",15758,,,15014,15109,,,,83,1
w10013735,4np1j7li56,Emily_Honors_Thesis_Part_2,1,27,2020-05-05T20:34:51-07:00,10.41558098793,5,versionA_stim.csv,IS_JOLVersionA.csv,"ITEM SPECIFIC Version A",OLD,KING,VASE,ON,U,85,52,JOL,User,-,"How likely are you to correctly recall the second item in the pair?|Type your response on a scale from 0-100 and then press Enter.",Study/JOL,"Study Phase",10053,,,9430,9482,,,,45,1
w10013735,4np1j7li56,Emily_Honors_Thesis_Part_2,1,28,2020-05-05T20:34:55-07:00,3.2961311340332,5,versionA_stim.csv,IS_JOLVersionA.csv,"ITEM SPECIFIC Version A",OLD,SLEEP,DROWSY,ON,B,41,18,JOL,User,-,"How likely are you to correctly recall the second item in the pair?|Type your response on a scale from 0-100 and then press Enter.",Study/JOL,"Study Phase",2938,,,1926,2019,,,,12,1
w10013735,4np1j7li56,Emily_Honors_Thesis_Part_2,1,29,2020-05-05T20:34:59-07:00,4.4762179851532,5,versionA_stim.csv,IS_JOLVersionA.csv,"ITEM SPECIFIC Version A",OLD,BABY,CHILD,ON,S,64,8,JOL,User,-,"How likely are you to correctly recall the second item in the pair?|Type your response on a scale from 0-100 and then press Enter.",Study/JOL,"Study Phase",4119,,,3513,3605,,,,89,1
w10013735,4np1j7li56,Emily_Honors_Thesis_Part_2,1,30,2020-05-05T20:35:05-07:00,5.6645820140839,5,versionA_stim.csv,IS_JOLVersionA.csv,"ITEM SPECIFIC Version A",OLD,MATH,DIVISION,ON,B,33,13,JOL,User,-,"How likely are you to correctly recall the second item in the pair?|Type your response on a scale from 0-100 and then press Enter.",Study/JOL,"Study Phase",5310,,,4601,4694,,,,64,1
w10013735,4np1j7li56,Emily_Honors_Thesis_Part_2,1,31,2020-05-05T20:35:10-07:00,4.6343870162964,5,versionA_stim.csv,IS_JOLVersionA.csv,"ITEM SPECIFIC Version A",OLD,WORK,CHORE,ON,B,39,81,JOL,User,-,"How likely are you to correctly recall the second item in the pair?|Type your response on a scale from 0-100 and then press Enter.",Study/JOL,"Study Phase",4285,,,3643,3659,,,,78,1
w10013735,4np1j7li56,Emily_Honors_Thesis_Part_2,1,32,2020-05-05T20:35:17-07:00,7.420049905777,5,versionA_stim.csv,IS_JOLVersionA.csv,"ITEM SPECIFIC Version A",OLD,HAPPY,CAR,ON,U,77,10,JOL,User,-,"How likely are you to correctly recall the second item in the pair?|Type your response on a scale from 0-100 and then press Enter.",Study/JOL,"Study Phase",7065,,,6318,6332,,,,56,1
w10013735,4np1j7li56,Emily_Honors_Thesis_Part_2,1,33,2020-05-05T20:35:26-07:00,9.5101480484009,5,versionA_stim.csv,IS_JOLVersionA.csv,"ITEM SPECIFIC Version A",OLD,DRINK,SIP,ON,B,27,79,JOL,User,-,"How likely are you to correctly recall the second item in the pair?|Type your response on a scale from 0-100 and then press Enter.",Study/JOL,"Study Phase",9155,,,6497,8578,,,,90,1
w10013735,4np1j7li56,Emily_Honors_Thesis_Part_2,1,34,2020-05-05T20:35:33-07:00,6.386106967926,5,versionA_stim.csv,IS_JOLVersionA.csv,"ITEM SPECIFIC Version A",OLD,CHISEL,HAMMER,ON,F,9,24,JOL,User,-,"How likely are you to correctly recall the second item in the pair?|Type your response on a scale from 0-100 and then press Enter.",Study/JOL,"Study Phase",6036,,,5424,5564,,,,88,1
w10013735,4np1j7li56,Emily_Honors_Thesis_Part_2,1,35,2020-05-05T20:35:37-07:00,4.3615100383759,5,versionA_stim.csv,IS_JOLVersionA.csv,"ITEM SPECIFIC Version A",OLD,HEIGHT,GROWTH,ON,B,30,75,JOL,User,-,"How likely are you to correctly recall the second item in the pair?|Type your response on a scale from 0-100 and then press Enter.",Study/JOL,"Study Phase",4011,,,3336,3427,,,,87,1
w10013735,4np1j7li56,Emily_Honors_Thesis_Part_2,1,36,2020-05-05T20:35:40-07:00,3.2489070892334,5,versionA_stim.csv,IS_JOLVersionA.csv,"ITEM SPECIFIC Version A",OLD,CREDIT,CARD,ON,F,23,32,JOL,User,-,"How likely are you to correctly recall the second item in the pair?|Type your response on a scale from 0-100 and then press Enter.",Study/JOL,"Study Phase",2895,,,2311,2374,,,,90,1
w10013735,4np1j7li56,Emily_Honors_Thesis_Part_2,1,37,2020-05-05T20:35:44-07:00,3.3171389102936,5,versionA_stim.csv,IS_JOLVersionA.csv,"ITEM SPECIFIC Version A",OLD,SUGAR,RIDDLE,ON,U,81,35,JOL,User,-,"How likely are you to correctly recall the second item in the pair?|Type your response on a scale from 0-100 and then press Enter.",Study/JOL,"Study Phase",2961,,,2307,2386,,,,56,1
w10013735,4np1j7li56,Emily_Honors_Thesis_Part_2,1,38,2020-05-05T20:35:51-07:00,7.1004469394684,5,versionA_stim.csv,IS_JOLVersionA.csv,"ITEM SPECIFIC Version A",OLD,SOON,BELT,ON,U,70,76,JOL,User,-,"How likely are you to correctly recall the second item in the pair?|Type your response on a scale from 0-100 and then press Enter.",Study/JOL,"Study Phase",6741,,,5703,5776,,,,54,1
w10013735,4np1j7li56,Emily_Honors_Thesis_Part_2,1,39,2020-05-05T20:35:58-07:00,7.0536000728607,5,versionA_stim.csv,IS_JOLVersionA.csv,"ITEM SPECIFIC Version A",OLD,PLANE,PILOT,ON,B,44,73,JOL,User,-,"How likely are you to correctly recall the second item in the pair?|Type your response on a scale from 0-100 and then press Enter.",Study/JOL,"Study Phase",6687,,,5971,6015,,,,87,1
w10013735,4np1j7li56,Emily_Honors_Thesis_Part_2,1,40,2020-05-05T20:36:03-07:00,5.4404420852661,5,versionA_stim.csv,IS_JOLVersionA.csv,"ITEM SPECIFIC Version A",OLD,KIDNEY,LIVER,ON,S,53,25,JOL,User,-,"How likely are you to correctly recall the second item in the pair?|Type your response on a scale from 0-100 and then press Enter.",Study/JOL,"Study Phase",5071,,,4429,4531,,,,88,1
w10013735,4np1j7li56,Emily_Honors_Thesis_Part_2,1,41,2020-05-05T20:36:09-07:00,5.5961289405823,5,versionA_stim.csv,IS_JOLVersionA.csv,"ITEM SPECIFIC Version A",OLD,DISCUSSION,TALK,ON,F,21,23,JOL,User,-,"How likely are you to correctly recall the second item in the pair?|Type your response on a scale from 0-100 and then press Enter.",Study/JOL,"Study Phase",5244,,,4177,4655,,,,95,1
w10013735,4np1j7li56,Emily_Honors_Thesis_Part_2,1,42,2020-05-05T20:36:14-07:00,5.2381248474121,5,versionA_stim.csv,IS_JOLVersionA.csv,"ITEM SPECIFIC Version A",OLD,PAST,FUTURE,ON,S,61,14,JOL,User,-,"How likely are you to correctly recall the second item in the pair?|Type your response on a scale from 0-100 and then press Enter.",Study/JOL,"Study Phase",4879,,,4466,4585,,,,88,1
w10013735,4np1j7li56,Emily_Honors_Thesis_Part_2,1,43,2020-05-05T20:36:18-07:00,4.2464392185211,5,versionA_stim.csv,IS_JOLVersionA.csv,"ITEM SPECIFIC Version A",OLD,BITTER,COLD,ON,F,12,51,JOL,User,-,"How likely are you to correctly recall the second item in the pair?|Type your response on a scale from 0-100 and then press Enter.",Study/JOL,"Study Phase",3894,,,3221,3312,,,,45,1
w10013735,4np1j7li56,Emily_Honors_Thesis_Part_2,1,44,2020-05-05T20:36:23-07:00,4.338042974472,5,versionA_stim.csv,IS_JOLVersionA.csv,"ITEM SPECIFIC Version A",OLD,LOCATION,SITE,ON,S,48,20,JOL,User,-,"How likely are you to correctly recall the second item in the pair?|Type your response on a scale from 0-100 and then press Enter.",Study/JOL,"Study Phase",3978,,,3385,3494,,,,88,1
w10013735,4np1j7li56,Emily_Honors_Thesis_Part_2,1,45,2020-05-05T20:36:26-07:00,3.5820608139038,5,versionA_stim.csv,IS_JOLVersionA.csv,"ITEM SPECIFIC Version A",OLD,PAW,DOG,ON,F,15,11,JOL,User,-,"How likely are you to correctly recall the second item in the pair?|Type your response on a scale from 0-100 and then press Enter.",Study/JOL,"Study Phase",3222,,,2557,2641,,,,89,1
w10013735,4np1j7li56,Emily_Honors_Thesis_Part_2,1,46,2020-05-05T20:36:33-07:00,6.4429111480713,5,versionA_stim.csv,IS_JOLVersionA.csv,"ITEM SPECIFIC Version A",OLD,ARTERY,BRONZE,ON,U,74,59,JOL,User,-,"How likely are you to correctly recall the second item in the pair?|Type your response on a scale from 0-100 and then press Enter.",Study/JOL,"Study Phase",6087,,,5301,5382,,,,12,1
w10013735,4np1j7li56,Emily_Honors_Thesis_Part_2,1,47,2020-05-05T20:36:37-07:00,4.5390129089355,5,versionA_stim.csv,IS_JOLVersionA.csv,"ITEM SPECIFIC Version A",OLD,HERD,COW,ON,F,22,27,JOL,User,-,"How likely are you to correctly recall the second item in the pair?|Type your response on a scale from 0-100 and then press Enter.",Study/JOL,"Study Phase",4154,,,2807,2872,,,,78,1
w10013735,4np1j7li56,Emily_Honors_Thesis_Part_2,1,48,2020-05-05T20:36:43-07:00,5.8533561229706,5,versionA_stim.csv,IS_JOLVersionA.csv,"ITEM SPECIFIC Version A",OLD,LIFT,WOMAN,ON,U,69,17,JOL,User,-,"How likely are you to correctly recall the second item in the pair?|Type your response on a scale from 0-100 and then press Enter.",Study/JOL,"Study Phase",5502,,,4650,4685,,,,15,1
w10013735,4np1j7li56,Emily_Honors_Thesis_Part_2,1,49,2020-05-05T20:36:51-07:00,8.1329689025879,5,versionA_stim.csv,IS_JOLVersionA.csv,"ITEM SPECIFIC Version A",OLD,SMELL,STENCH,ON,B,42,37,JOL,User,-,"How likely are you to correctly recall the second item in the pair?|Type your response on a scale from 0-100 and then press Enter.",Study/JOL,"Study Phase",7753,,,7094,7141,,,,90,1
w10013735,4np1j7li56,Emily_Honors_Thesis_Part_2,1,50,2020-05-05T20:36:55-07:00,3.7676899433136,5,versionA_stim.csv,IS_JOLVersionA.csv,"ITEM SPECIFIC Version A",OLD,REVOLUTION,WAR,ON,F,20,58,JOL,User,-,"How likely are you to correctly recall the second item in the pair?|Type your response on a scale from 0-100 and then press Enter.",Study/JOL,"Study Phase",3405,,,2661,2729,,,,90,1
w10013735,4np1j7li56,Emily_Honors_Thesis_Part_2,1,51,2020-05-05T20:37:00-07:00,4.9300479888916,5,versionA_stim.csv,IS_JOLVersionA.csv,"ITEM SPECIFIC Version A",OLD,MACHINE,POSITION,ON,U,76,53,JOL,User,-,"How likely are you to correctly recall the second item in the pair?|Type your response on a scale from 0-100 and then press Enter.",Study/JOL,"Study Phase",4541,,,3822,3949,,,,13,1
w10013735,4np1j7li56,Emily_Honors_Thesis_Part_2,1,52,2020-05-05T20:37:04-07:00,4.1730711460114,5,versionA_stim.csv,IS_JOLVersionA.csv,"ITEM SPECIFIC Version A",OLD,WAGE,MONEY,ON,F,8,9,JOL,User,-,"How likely are you to correctly recall the second item in the pair?|Type your response on a scale from 0-100 and then press Enter.",Study/JOL,"Study Phase",3718,,,2963,3050,,,,78,1
w10013735,4np1j7li56,Emily_Honors_Thesis_Part_2,1,53,2020-05-05T20:42:57-07:00,352.3332669735,5,versionA_stim.csv,IS_JOLVersionA.csv,"ITEM SPECIFIC Version A",OLD,BEGIN,END,ON,S,54,46,JOL,User,-,"How likely are you to correctly recall the second item in the pair?|Type your response on a scale from 0-100 and then press Enter.",Study/JOL,"Study Phase",351976,,,351285,351380,,,,67,0.184
w10013735,4np1j7li56,Emily_Honors_Thesis_Part_2,1,54,2020-05-05T20:43:11-07:00,14.363244056702,5,versionA_stim.csv,IS_JOLVersionA.csv,"ITEM SPECIFIC Version A",OLD,DIGESTION,STOMACH,ON,F,7,56,JOL,User,-,"How likely are you to correctly recall the second item in the pair?|Type your response on a scale from 0-100 and then press Enter.",Study/JOL,"Study Phase",14016,,,13254,13365,,,,53,0.733
w10013735,4np1j7li56,Emily_Honors_Thesis_Part_2,1,55,2020-05-05T20:43:17-07:00,5.8205590248108,5,versionA_stim.csv,IS_JOLVersionA.csv,"ITEM SPECIFIC Version A",OLD,VALLEY,ADD,ON,U,82,28,JOL,User,-,"How likely are you to correctly recall the second item in the pair?|Type your response on a scale from 0-100 and then press Enter.",Study/JOL,"Study Phase",5467,,,4799,4890,,,,45,0.905
w10013735,4np1j7li56,Emily_Honors_Thesis_Part_2,1,56,2020-05-05T20:43:30-07:00,13.444211959839,5,versionA_stim.csv,IS_JOLVersionA.csv,"ITEM SPECIFIC Version A",OLD,FIX,HAND,ON,U,75,72,JOL,User,-,"How likely are you to correctly recall the second item in the pair?|Type your response on a scale from 0-100 and then press Enter.",Study/JOL,"Study Phase",13076,,,12734,12734,,,,6,0.839
w10013735,4np1j7li56,Emily_Honors_Thesis_Part_2,1,57,2020-05-05T20:43:44-07:00,13.505438804626,5,versionA_stim.csv,IS_JOLVersionA.csv,"ITEM SPECIFIC Version A",OLD,WAY,OUT,ON,F,16,12,JOL,User,-,"How likely are you to correctly recall the second item in the pair?|Type your response on a scale from 0-100 and then press Enter.",Study/JOL,"Study Phase",13153,,,12850,12913,,,,69,0.8
w10013735,4np1j7li56,Emily_Honors_Thesis_Part_2,1,58,2020-05-05T20:43:48-07:00,4.0577912330627,5,versionA_stim.csv,IS_JOLVersionA.csv,"ITEM SPECIFIC Version A",OLD,,,,,,0,Instruct,-,3,"Remember to focus on how the two items are unique while you study and make your ratings!",,CHECK2,3640,,,-1,-1,,,,,1
w10013735,4np1j7li56,Emily_Honors_Thesis_Part_2,1,59,2020-05-05T20:44:05-07:00,17.445355892181,5,versionA_stim.csv,IS_JOLVersionA.csv,"ITEM SPECIFIC Version A",OLD,FULL,ENOUGH,ON,B,26,67,JOL,User,-,"How likely are you to correctly recall the second item in the pair?|Type your response on a scale from 0-100 and then press Enter.",Study/JOL,"Study Phase",17095,,,16258,16354,,,,48,0.904
w10013735,4np1j7li56,Emily_Honors_Thesis_Part_2,1,60,2020-05-05T20:44:26-07:00,20.79260802269,5,versionA_stim.csv,IS_JOLVersionA.csv,"ITEM SPECIFIC Version A",OLD,CLOTHES,ATTIRE,ON,B,43,80,JOL,User,-,"How likely are you to correctly recall the second item in the pair?|Type your response on a scale from 0-100 and then press Enter.",Study/JOL,"Study Phase",20418,,,19557,19621,,,,67,0.714
w10013735,4np1j7li56,Emily_Honors_Thesis_Part_2,1,61,2020-05-05T20:44:41-07:00,15.176132917404,5,versionA_stim.csv,IS_JOLVersionA.csv,"ITEM SPECIFIC Version A",OLD,DELINQUENT,BAD,ON,F,6,36,JOL,User,-,"How likely are you to correctly recall the second item in the pair?|Type your response on a scale from 0-100 and then press Enter.",Study/JOL,"Study Phase",14745,,,14137,14425,,,,66,0.75
w10013735,4np1j7li56,Emily_Honors_Thesis_Part_2,1,62,2020-05-05T20:44:59-07:00,17.603533983231,5,versionA_stim.csv,IS_JOLVersionA.csv,"ITEM SPECIFIC Version A",OLD,TRIAL,JURY,ON,S,50,61,JOL,User,-,"How likely are you to correctly recall the second item in the pair?|Type your response on a scale from 0-100 and then press Enter.",Study/JOL,"Study Phase",17212,,,16123,16571,,,,94,0.733
w10013735,4np1j7li56,Emily_Honors_Thesis_Part_2,1,63,2020-05-05T20:45:28-07:00,29.256764173508,5,versionA_stim.csv,IS_JOLVersionA.csv,"ITEM SPECIFIC Version A",OLD,HUNGER,FAMINE,ON,B,40,21,JOL,User,-,"How likely are you to correctly recall the second item in the pair?|Type your response on a scale from 0-100 and then press Enter.",Study/JOL,"Study Phase",28893,,,25214,28480,,,,86,0.727
w10013735,4np1j7li56,Emily_Honors_Thesis_Part_2,1,64,2020-05-05T20:45:37-07:00,8.5082488059998,5,versionA_stim.csv,IS_JOLVersionA.csv,"ITEM SPECIFIC Version A",OLD,DUE,ASSIGNMENT,ON,S,46,42,JOL,User,-,"How likely are you to correctly recall the second item in the pair?|Type your response on a scale from 0-100 and then press Enter.",Study/JOL,"Study Phase",8155,,,7444,7583,,,,99,0.971
w10013735,4np1j7li56,Emily_Honors_Thesis_Part_2,1,65,2020-05-05T20:45:41-07:00,4.1667091846466,5,versionA_stim.csv,IS_JOLVersionA.csv,"ITEM SPECIFIC Version A",OLD,HONEY,BEE,ON,S,63,77,JOL,User,-,"How likely are you to correctly recall the second item in the pair?|Type your response on a scale from 0-100 and then press Enter.",Study/JOL,"Study Phase",3814,,,2694,3224,,,,100,1
w10013735,4np1j7li56,Emily_Honors_Thesis_Part_2,1,66,2020-05-05T20:45:57-07:00,15.89906001091,5,versionA_stim.csv,IS_JOLVersionA.csv,"ITEM SPECIFIC Version A",OLD,NUMBER,AMOUNT,ON,S,47,71,JOL,User,-,"How likely are you to correctly recall the second item in the pair?|Type your response on a scale from 0-100 and then press Enter.",Study/JOL,"Study Phase",15516,,,14561,14624,,,,59,0.818
w10013735,4np1j7li56,Emily_Honors_Thesis_Part_2,1,67,2020-05-05T20:46:04-07:00,7.5294477939606,5,versionA_stim.csv,IS_JOLVersionA.csv,"ITEM SPECIFIC Version A",OLD,CIRCLE,ROUND,ON,S,65,40,JOL,User,-,"How likely are you to correctly recall the second item in the pair?|Type your response on a scale from 0-100 and then press Enter.",Study/JOL,"Study Phase",7066,,,6471,6566,,,,98,1
w10013735,4np1j7li56,Emily_Honors_Thesis_Part_2,1,68,2020-05-05T20:46:09-07:00,4.9617440700531,5,versionA_stim.csv,IS_JOLVersionA.csv,"ITEM SPECIFIC Version A",OLD,ROOT,PLANT,ON,F,13,26,JOL,User,-,"How likely are you to correctly recall the second item in the pair?|Type your response on a scale from 0-100 and then press Enter.",Study/JOL,"Study Phase",4594,,,4170,4283,,,,97,1
w10013735,4np1j7li56,Emily_Honors_Thesis_Part_2,1,69,2020-05-05T20:46:12-07:00,3.1405999660492,5,versionA_stim.csv,IS_JOLVersionA.csv,"ITEM SPECIFIC Version A",OLD,GRILL,BAR,ON,S,52,70,JOL,User,-,"How likely are you to correctly recall the second item in the pair?|Type your response on a scale from 0-100 and then press Enter.",Study/JOL,"Study Phase",2644,,,2191,2305,,,,99,1
w10013735,4np1j7li56,Emily_Honors_Thesis_Part_2,1,70,2020-05-05T20:46:15-07:00,2.9285230636597,5,versionA_stim.csv,IS_JOLVersionA.csv,"ITEM SPECIFIC Version A",OLD,DUMP,WASTE,ON,S,49,43,JOL,User,-,"How likely are you to correctly recall the second item in the pair?|Type your response on a scale from 0-100 and then press Enter.",Study/JOL,"Study Phase",2552,,,2024,2309,,,,100,1
w10013735,4np1j7li56,Emily_Honors_Thesis_Part_2,1,71,2020-05-05T20:46:18-07:00,3.2336599826813,5,versionA_stim.csv,IS_JOLVersionA.csv,"ITEM SPECIFIC Version A",OLD,HYGIENE,CLEAN,ON,F,17,50,JOL,User,-,"How likely are you to correctly recall the second item in the pair?|Type your response on a scale from 0-100 and then press Enter.",Study/JOL,"Study Phase",2875,,,2496,2576,,,,98,1
w10013735,4np1j7li56,Emily_Honors_Thesis_Part_2,1,72,2020-05-05T20:46:22-07:00,3.4915981292725,5,versionA_stim.csv,IS_JOLVersionA.csv,"ITEM SPECIFIC Version A",OLD,LETTUCE,SALAD,ON,S,59,57,JOL,User,-,"How likely are you to correctly recall the second item in the pair?|Type your response on a scale from 0-100 and then press Enter.",Study/JOL,"Study Phase",3136,,,2512,2810,,,,100,1
w10013735,4np1j7li56,Emily_Honors_Thesis_Part_2,1,73,2020-05-05T20:46:25-07:00,3.3120319843292,5,versionA_stim.csv,IS_JOLVersionA.csv,"ITEM SPECIFIC Version A",OLD,GEOLOGY,ROCK,ON,F,19,19,JOL,User,-,"How likely are you to correctly recall the second item in the pair?|Type your response on a scale from 0-100 and then press Enter.",Study/JOL,"Study Phase",2924,,,2541,2617,,,,98,1
w10013735,4np1j7li56,Emily_Honors_Thesis_Part_2,1,74,2020-05-05T20:46:29-07:00,4.2783868312836,5,versionA_stim.csv,IS_JOLVersionA.csv,"ITEM SPECIFIC Version A",OLD,MEANING,DEFINITION,ON,S,62,74,JOL,User,-,"How likely are you to correctly recall the second item in the pair?|Type your response on a scale from 0-100 and then press Enter.",Study/JOL,"Study Phase",3915,,,3120,3435,,,,100,1
w10013735,4np1j7li56,Emily_Honors_Thesis_Part_2,1,75,2020-05-05T20:46:33-07:00,3.0380980968475,5,versionA_stim.csv,IS_JOLVersionA.csv,"ITEM SPECIFIC Version A",OLD,SHOE,FOOT,ON,S,60,60,JOL,User,-,"How likely are you to correctly recall the second item in the pair?|Type your response on a scale from 0-100 and then press Enter.",Study/JOL,"Study Phase",2559,,,1899,2214,,,,100,1
w10013735,4np1j7li56,Emily_Honors_Thesis_Part_2,1,76,2020-05-05T20:46:37-07:00,4.5678489208221,5,versionA_stim.csv,IS_JOLVersionA.csv,"ITEM SPECIFIC Version A",OLD,ORCHID,FLOWER,ON,F,24,48,JOL,User,-,"How likely are you to correctly recall the second item in the pair?|Type your response on a scale from 0-100 and then press Enter.",Study/JOL,"Study Phase",4183,,,3277,3404,,,,97,1
w10013735,4np1j7li56,Emily_Honors_Thesis_Part_2,1,77,2020-05-05T20:46:44-07:00,6.5775220394135,5,versionA_stim.csv,IS_JOLVersionA.csv,"ITEM SPECIFIC Version A",OLD,PUSHER,CLUTTER,ON,U,66,83,JOL,User,-,"How likely are you to correctly recall the second item in the pair?|Type your response on a scale from 0-100 and then press Enter.",Study/JOL,"Study Phase",6181,,,5709,5829,,,,54,1
w10013735,4np1j7li56,Emily_Honors_Thesis_Part_2,1,78,2020-05-05T20:46:48-07:00,4.8078560829163,5,versionA_stim.csv,IS_JOLVersionA.csv,"ITEM SPECIFIC Version A",OLD,TUNA,FISH,ON,F,25,55,JOL,User,-,"How likely are you to correctly recall the second item in the pair?|Type your response on a scale from 0-100 and then press Enter.",Study/JOL,"Study Phase",4129,,,3224,3394,,,,98,1
w10013735,4np1j7li56,Emily_Honors_Thesis_Part_2,1,79,2020-05-05T20:46:56-07:00,7.7371699810028,5,versionA_stim.csv,IS_JOLVersionA.csv,"ITEM SPECIFIC Version A",OLD,BLOW,WIND,ON,S,55,7,JOL,User,-,"How likely are you to correctly recall the second item in the pair?|Type your response on a scale from 0-100 and then press Enter.",Study/JOL,"Study Phase",7334,,,6533,6789,,,,95,1
w10013735,4np1j7li56,Emily_Honors_Thesis_Part_2,1,80,2020-05-05T20:47:06-07:00,9.6295399665833,5,versionA_stim.csv,IS_JOLVersionA.csv,"ITEM SPECIFIC Version A",OLD,STRONG,ACCIDENT,ON,U,80,47,JOL,User,-,"How likely are you to correctly recall the second item in the pair?|Type your response on a scale from 0-100 and then press Enter.",Study/JOL,"Study Phase",9127,,,5093,8472,,,,34,1
w10013735,4np1j7li56,Emily_Honors_Thesis_Part_2,1,81,2020-05-05T20:47:11-07:00,4.7441220283508,5,versionA_stim.csv,IS_JOLVersionA.csv,"ITEM SPECIFIC Version A",OLD,BRIDGE,WATER,ON,F,18,22,JOL,User,-,"How likely are you to correctly recall the second item in the pair?|Type your response on a scale from 0-100 and then press Enter.",Study/JOL,"Study Phase",4380,,,3331,3796,,,,92,1
w10013735,4np1j7li56,Emily_Honors_Thesis_Part_2,1,82,2020-05-05T20:47:14-07:00,3.8823709487915,5,versionA_stim.csv,IS_JOLVersionA.csv,"ITEM SPECIFIC Version A",OLD,ARCHITECTURE,DESIGN,ON,S,51,82,JOL,User,-,"How likely are you to correctly recall the second item in the pair?|Type your response on a scale from 0-100 and then press Enter.",Study/JOL,"Study Phase",3529,,,2927,3074,,,,87,1
w10013735,4np1j7li56,Emily_Honors_Thesis_Part_2,1,83,2020-05-05T20:47:28-07:00,13.934096097946,5,versionA_stim.csv,IS_JOLVersionA.csv,"ITEM SPECIFIC Version A",OLD,HOT,CHILI,ON,B,37,29,JOL,User,-,"How likely are you to correctly recall the second item in the pair?|Type your response on a scale from 0-100 and then press Enter.",Study/JOL,"Study Phase",13557,,,13302,13404,,,,85,1
w10013735,4np1j7li56,Emily_Honors_Thesis_Part_2,1,84,2020-05-05T20:47:45-07:00,16.732679843903,5,versionA_stim.csv,IS_JOLVersionA.csv,"ITEM SPECIFIC Version A",OLD,KEY,LATCH,ON,B,36,31,JOL,User,-,"How likely are you to correctly recall the second item in the pair?|Type your response on a scale from 0-100 and then press Enter.",Study/JOL,"Study Phase",16355,,,16008,16087,,,,67,1
w10013735,4np1j7li56,Emily_Honors_Thesis_Part_2,1,85,2020-05-05T20:47:51-07:00,5.8581130504608,5,versionA_stim.csv,IS_JOLVersionA.csv,"ITEM SPECIFIC Version A",OLD,DEBATE,SIGHT,ON,U,73,39,JOL,User,-,"How likely are you to correctly recall the second item in the pair?|Type your response on a scale from 0-100 and then press Enter.",Study/JOL,"Study Phase",4637,,,4375,4473,,,,24,1
w10013735,4np1j7li56,Emily_Honors_Thesis_Part_2,1,86,2020-05-05T20:47:56-07:00,4.6243391036987,5,versionA_stim.csv,IS_JOLVersionA.csv,"ITEM SPECIFIC Version A",OLD,LAW,ATTORNEY,ON,B,34,16,JOL,User,-,"How likely are you to correctly recall the second item in the pair?|Type your response on a scale from 0-100 and then press Enter.",Study/JOL,"Study Phase",4271,,,3723,4049,,,,99,1
w10013735,4np1j7li56,Emily_Honors_Thesis_Part_2,1,87,2020-05-05T20:47:59-07:00,3.0773057937622,5,versionA_stim.csv,IS_JOLVersionA.csv,"ITEM SPECIFIC Version A",OLD,BUG,WASP,ON,B,32,54,JOL,User,-,"How likely are you to correctly recall the second item in the pair?|Type your response on a scale from 0-100 and then press Enter.",Study/JOL,"Study Phase",2686,,,2402,2429,,,,78,1
w10013735,4np1j7li56,Emily_Honors_Thesis_Part_2,1,88,2020-05-05T20:48:04-07:00,5.2948260307312,5,versionA_stim.csv,IS_JOLVersionA.csv,"ITEM SPECIFIC Version A",OLD,TAKE,SEIZE,ON,B,29,38,JOL,User,-,"How likely are you to correctly recall the second item in the pair?|Type your response on a scale from 0-100 and then press Enter.",Study/JOL,"Study Phase",4927,,,4673,4792,,,,65,1
w10013735,4np1j7li56,Emily_Honors_Thesis_Part_2,1,89,2020-05-05T20:48:08-07:00,4.3417251110077,5,versionA_stim.csv,IS_JOLVersionA.csv,"ITEM SPECIFIC Version A",OLD,BATHROOM,TOILET,ON,S,58,85,JOL,User,-,"How likely are you to correctly recall the second item in the pair?|Type your response on a scale from 0-100 and then press Enter.",Study/JOL,"Study Phase",3960,,,2699,3194,,,,98,1
w10013735,4np1j7li56,Emily_Honors_Thesis_Part_2,1,90,2020-05-05T20:48:14-07:00,5.765613079071,5,versionA_stim.csv,IS_JOLVersionA.csv,"ITEM SPECIFIC Version A",OLD,BALL,RACKET,ON,B,38,66,JOL,User,-,"How likely are you to correctly recall the second item in the pair?|Type your response on a scale from 0-100 and then press Enter.",Study/JOL,"Study Phase",5418,,,4212,4580,,,,94,1
w10013735,4np1j7li56,Emily_Honors_Thesis_Part_2,1,91,2020-05-05T20:48:19-07:00,4.6184439659119,5,versionA_stim.csv,IS_JOLVersionA.csv,"ITEM SPECIFIC Version A",OLD,DIETARY,SACKING,ON,U,67,84,JOL,User,-,"How likely are you to correctly recall the second item in the pair?|Type your response on a scale from 0-100 and then press Enter.",Study/JOL,"Study Phase",4261,,,3668,3752,,,,32,1
w10013735,4np1j7li56,Emily_Honors_Thesis_Part_2,1,92,2020-05-05T20:48:23-07:00,4.6019439697266,5,versionA_stim.csv,IS_JOLVersionA.csv,"ITEM SPECIFIC Version A",OLD,SENTENCE,WORD,ON,B,31,68,JOL,User,-,"How likely are you to correctly recall the second item in the pair?|Type your response on a scale from 0-100 and then press Enter.",Study/JOL,"Study Phase",4240,,,3723,3822,,,,89,1
w10013735,4np1j7li56,Emily_Honors_Thesis_Part_2,1,93,2020-05-05T20:48:28-07:00,4.5738718509674,5,versionA_stim.csv,IS_JOLVersionA.csv,"ITEM SPECIFIC Version A",OLD,ALLOW,TUCK,ON,U,78,63,JOL,User,-,"How likely are you to correctly recall the second item in the pair?|Type your response on a scale from 0-100 and then press Enter.",Study/JOL,"Study Phase",4220,,,3436,3464,,,,24,1
w10013735,4np1j7li56,Emily_Honors_Thesis_Part_2,1,94,2020-05-05T20:48:33-07:00,4.9146821498871,5,versionA_stim.csv,IS_JOLVersionA.csv,"ITEM SPECIFIC Version A",OLD,DEATH,BUSINESS,ON,U,72,64,JOL,User,-,"How likely are you to correctly recall the second item in the pair?|Type your response on a scale from 0-100 and then press Enter.",Study/JOL,"Study Phase",4563,,,2973,4099,,,,13,1
w10013735,4np1j7li56,Emily_Honors_Thesis_Part_2,1,95,2020-05-05T20:48:40-07:00,7.2222599983215,5,versionA_stim.csv,IS_JOLVersionA.csv,"ITEM SPECIFIC Version A",OLD,EDITOR,NEWS,ON,F,10,15,JOL,User,-,"How likely are you to correctly recall the second item in the pair?|Type your response on a scale from 0-100 and then press Enter.",Study/JOL,"Study Phase",6855,,,6411,6471,,,,89,1
w10013735,4np1j7li56,Emily_Honors_Thesis_Part_2,1,96,2020-05-05T20:48:51-07:00,11.379257917404,5,versionA_stim.csv,IS_JOLVersionA.csv,"ITEM SPECIFIC Version A",OLD,PARK,HUNGRY,ON,U,68,62,JOL,User,-,"How likely are you to correctly recall the second item in the pair?|Type your response on a scale from 0-100 and then press Enter.",Study/JOL,"Study Phase",11000,,,6936,10380,,,,35,1
w10013735,4np1j7li56,Emily_Honors_Thesis_Part_2,1,97,2020-05-05T20:48:55-07:00,3.5755290985107,5,versionA_stim.csv,IS_JOLVersionA.csv,"ITEM SPECIFIC Version A",OLD,ART,LION,ON,U,79,69,JOL,User,-,"How likely are you to correctly recall the second item in the pair?|Type your response on a scale from 0-100 and then press Enter.",Study/JOL,"Study Phase",3202,,,2423,2566,,,,23,1
w10013735,4np1j7li56,Emily_Honors_Thesis_Part_2,1,98,2020-05-05T20:48:58-07:00,3.412505865097,5,versionA_stim.csv,IS_JOLVersionA.csv,"ITEM SPECIFIC Version A",OLD,FIRE,BLAZE,ON,B,45,78,JOL,User,-,"How likely are you to correctly recall the second item in the pair?|Type your response on a scale from 0-100 and then press Enter.",Study/JOL,"Study Phase",3034,,,2452,2514,,,,78,1
w10013735,4np1j7li56,Emily_Honors_Thesis_Part_2,1,99,2020-05-05T20:49:04-07:00,5.7442090511322,5,versionA_stim.csv,IS_JOLVersionA.csv,"ITEM SPECIFIC Version A",OLD,SWAN,BIRD,ON,F,14,86,JOL,User,-,"How likely are you to correctly recall the second item in the pair?|Type your response on a scale from 0-100 and then press Enter.",Study/JOL,"Study Phase",5390,,,4874,4959,,,,86,1
w10013735,4np1j7li56,Emily_Honors_Thesis_Part_2,1,100,2020-05-05T20:49:09-07:00,5.0621531009674,5,versionA_stim.csv,IS_JOLVersionA.csv,"ITEM SPECIFIC Version A",OLD,HORNET,STING,ON,F,11,41,JOL,User,-,"How likely are you to correctly recall the second item in the pair?|Type your response on a scale from 0-100 and then press Enter.",Study/JOL,"Study Phase",4675,,,3033,4350,,,,95,1
w10013735,4np1j7li56,Emily_Honors_Thesis_Part_2,1,101,2020-05-05T20:49:14-07:00,4.7814829349518,5,versionA_stim.csv,IS_JOLVersionA.csv,"ITEM SPECIFIC Version A",OLD,GREAT,FANTASTIC,ON,B,35,49,JOL,User,-,"How likely are you to correctly recall the second item in the pair?|Type your response on a scale from 0-100 and then press Enter.",Study/JOL,"Study Phase",4332,,,3537,3633,,,,54,1
w10013735,4np1j7li56,Emily_Honors_Thesis_Part_2,1,102,2020-05-05T20:49:21-07:00,7.4217031002045,5,versionA_stim.csv,IS_JOLVersionA.csv,"ITEM SPECIFIC Version A",OLD,CASH,WOULD,ON,U,83,65,JOL,User,-,"How likely are you to correctly recall the second item in the pair?|Type your response on a scale from 0-100 and then press Enter.",Study/JOL,"Study Phase",7058,,,6254,6349,,,,10,1
w10013735,4np1j7li56,Emily_Honors_Thesis_Part_2,1,103,2020-05-05T20:49:27-07:00,5.5631048679352,5,versionA_stim.csv,IS_JOLVersionA.csv,"ITEM SPECIFIC Version A",OLD,HIDE,SICK,ON,U,84,30,JOL,User,-,"How likely are you to correctly recall the second item in the pair?|Type your response on a scale from 0-100 and then press Enter.",Study/JOL,"Study Phase",5202,,,3824,4006,,,,12,1
w10013735,4np1j7li56,Emily_Honors_Thesis_Part_2,1,104,2020-05-05T20:49:33-07:00,5.831160068512,5,versionA_stim.csv,IS_JOLVersionA.csv,"ITEM SPECIFIC Version A",OLD,POP,SODA,ON,S,56,44,JOL,User,-,"How likely are you to correctly recall the second item in the pair?|Type your response on a scale from 0-100 and then press Enter.",Study/JOL,"Study Phase",5451,,,4598,4750,,,,93,1
w10013735,4np1j7li56,Emily_Honors_Thesis_Part_2,1,105,2020-05-05T20:49:39-07:00,6.1434118747711,5,versionA_stim.csv,IS_JOLVersionA.csv,"ITEM SPECIFIC Version A",OLD,MALT,CHOCOLATE,Buffer2,Buffer,88,87,JOL,User,-,"How likely are you to correctly recall the second item in the pair?|Type your response on a scale from 0-100 and then press Enter.",Study/JOL,BUFFER2,5678,,,4750,4911,,,,14,1
w10013735,4np1j7li56,Emily_Honors_Thesis_Part_2,1,106,2020-05-05T20:49:45-07:00,5.6434412002563,5,versionA_stim.csv,IS_JOLVersionA.csv,"ITEM SPECIFIC Version A",OLD,GEESE,GOOSE,Buffer2,Buffer,86,90,JOL,User,-,"How likely are you to correctly recall the second item in the pair?|Type your response on a scale from 0-100 and then press Enter.",Study/JOL,BUFFER2,5275,,,4189,4455,,,,100,1
w10013735,4np1j7li56,Emily_Honors_Thesis_Part_2,1,107,2020-05-05T20:49:47-07:00,2.6577489376068,5,versionA_stim.csv,IS_JOLVersionA.csv,"ITEM SPECIFIC Version A",OLD,MOON,SPACE,Buffer2,Buffer,89,88,JOL,User,-,"How likely are you to correctly recall the second item in the pair?|Type your response on a scale from 0-100 and then press Enter.",Study/JOL,BUFFER2,2306,,,1470,1780,,,,100,1
w10013735,4np1j7li56,Emily_Honors_Thesis_Part_2,1,108,2020-05-05T20:49:52-07:00,4.8749928474426,5,versionA_stim.csv,IS_JOLVersionA.csv,"ITEM SPECIFIC Version A",OLD,THING,STUFF,Buffer2,Buffer,90,91,JOL,User,-,"How likely are you to correctly recall the second item in the pair?|Type your response on a scale from 0-100 and then press Enter.",Study/JOL,BUFFER2,4526,,,3550,4052,,,,95,1
w10013735,4np1j7li56,Emily_Honors_Thesis_Part_2,1,109,2020-05-05T20:49:56-07:00,3.7537381649017,5,versionA_stim.csv,IS_JOLVersionA.csv,"ITEM SPECIFIC Version A",OLD,SHERIFF,POLICE,Buffer2,Buffer,87,89,JOL,User,-,"How likely are you to correctly recall the second item in the pair?|Type your response on a scale from 0-100 and then press Enter.",Study/JOL,BUFFER2,3392,,,2587,2777,,,,97,1
w10013735,4np1j7li56,Emily_Honors_Thesis_Part_2,1,110,2020-05-05T20:49:58-07:00,2.0161340236664,5,versionA_stim.csv,IS_JOLVersionA.csv,"ITEM SPECIFIC Version A",OLD,,,,,,0,Instruct,User,-,"You have completed this section. Please press Enter.",Filler_Instruction,Instruct5,1732,,,-1,-1,,,,,1
w10013735,4np1j7li56,Emily_Honors_Thesis_Part_2,1,111,2020-05-05T20:50:51-07:00,53.583091020584,5,versionA_stim.csv,IS_JOLVersionA.csv,"ITEM SPECIFIC Version A",OLD,,,,,,0,FreeRecall,-,10,"What were you supposed to focus on while you studied each pair? (Hint: Think back to the instructions). Type your answer in the space below.",,CHECK3,53219,"If I would be able to remember the last word based on how the two words relate to each other.",0,9487,51936,0,0,,,1
w10013735,4np1j7li56,Emily_Honors_Thesis_Part_2,1,112,2020-05-05T20:50:54-07:00,2.3096559047699,5,versionA_stim.csv,IS_JOLVersionA.csv,"ITEM SPECIFIC Version A",OLD,,,,,,0,Instruct,User,-,"You have completed this section. Please press Enter.",Filler_Instruction,Instruct2,1944,,,-1,-1,,,,,1
w10013735,4np1j7li56,Emily_Honors_Thesis_Part_2,1,113,2020-05-05T20:52:56-07:00,121.83337306976,5,versionA_stim.csv,IS_JOLVersionA.csv,"ITEM SPECIFIC Version A",OLD,,,,,,0,FreeRecall,120,120,"Please list the 50 US states in alphabetical order. The task will automatically advance to the next screen after two minutes.",,Filler1,121439,"alabama, alaska, arizona, arkansas, california, colorado, connecticut, delaware, florida, georgia, ",0,18695,112044,0,0,,,0.934
w10013735,4np1j7li56,Emily_Honors_Thesis_Part_2,1,114,2020-05-05T20:53:09-07:00,13.045683860779,5,versionA_stim.csv,IS_JOLVersionA.csv,"ITEM SPECIFIC Version A",OLD,,,,,,0,Instruct,-,10,"You will now be presented with the first word from each of the previously studied item pairs. Please type the missing word. If you do not know the word, you may guess or press Enter to skip forward to the next pair.",,Instruct3,12662,,,-1,-1,,,,,0.945
w10013735,4np1j7li56,Emily_Honors_Thesis_Part_2,1,115,2020-05-05T20:53:13-07:00,4.1972870826721,5,versionA_stim.csv,IS_JOLVersionA.csv,"ITEM SPECIFIC Version A",OLD,LAW,ATTORNEY,ON,B,34,16,Test,User,-,,Recall,Recall1,3837,attorney,100,2301,3510,1,1,,,1
w10013735,4np1j7li56,Emily_Honors_Thesis_Part_2,1,116,2020-05-05T20:53:15-07:00,2.4776329994202,5,versionA_stim.csv,IS_JOLVersionA.csv,"ITEM SPECIFIC Version A",OLD,ART,LION,ON,U,79,69,Test,User,-,,Recall,Recall1,2097,lion,100,1424,1844,1,1,,,1
w10013735,4np1j7li56,Emily_Honors_Thesis_Part_2,1,117,2020-05-05T20:53:19-07:00,3.8157320022583,5,versionA_stim.csv,IS_JOLVersionA.csv,"ITEM SPECIFIC Version A",OLD,DEBATE,SIGHT,ON,U,73,39,Test,User,-,,Recall,Recall1,3443,speech,36.363636363636,2439,3199,0,0,,,1
w10013735,4np1j7li56,Emily_Honors_Thesis_Part_2,1,118,2020-05-05T20:53:25-07:00,6.1497709751129,5,versionA_stim.csv,IS_JOLVersionA.csv,"ITEM SPECIFIC Version A",OLD,SUGAR,RIDDLE,ON,U,81,35,Test,User,-,,Recall,Recall1,5769,,0,-1,-1,0,0,,,1
w10013735,4np1j7li56,Emily_Honors_Thesis_Part_2,1,119,2020-05-05T20:53:28-07:00,3.1885800361633,5,versionA_stim.csv,IS_JOLVersionA.csv,"ITEM SPECIFIC Version A",OLD,SMELL,STENCH,ON,B,42,37,Test,User,-,,Recall,Recall1,2831,,0,-1,-1,0,0,,,1
w10013735,4np1j7li56,Emily_Honors_Thesis_Part_2,1,120,2020-05-05T20:53:31-07:00,2.6338260173798,5,versionA_stim.csv,IS_JOLVersionA.csv,"ITEM SPECIFIC Version A",OLD,PAW,DOG,ON,F,15,11,Test,User,-,,Recall,Recall1,2279,cat,0,1883,2138,0,0,,,1
w10013735,4np1j7li56,Emily_Honors_Thesis_Part_2,1,121,2020-05-05T20:53:36-07:00,5.0402090549469,5,versionA_stim.csv,IS_JOLVersionA.csv,"ITEM SPECIFIC Version A",OLD,CHISEL,HAMMER,ON,F,9,24,Test,User,-,,Recall,Recall1,4685,design,16.666666666667,2998,4109,0,0,,,1
w10013735,4np1j7li56,Emily_Honors_Thesis_Part_2,1,122,2020-05-05T20:53:39-07:00,2.8431649208069,5,versionA_stim.csv,IS_JOLVersionA.csv,"ITEM SPECIFIC Version A",OLD,HUNGER,FAMINE,ON,B,40,21,Test,User,-,,Recall,Recall1,2489,,0,-1,-1,0,0,,,1
w10013735,4np1j7li56,Emily_Honors_Thesis_Part_2,1,123,2020-05-05T20:53:41-07:00,1.9772229194641,5,versionA_stim.csv,IS_JOLVersionA.csv,"ITEM SPECIFIC Version A",OLD,HERD,COW,ON,F,22,27,Test,User,-,,Recall,Recall1,1672,cow,100,1078,1506,1,1,,,1
w10013735,4np1j7li56,Emily_Honors_Thesis_Part_2,1,124,2020-05-05T20:53:43-07:00,1.8227050304413,5,versionA_stim.csv,IS_JOLVersionA.csv,"ITEM SPECIFIC Version A",OLD,BABY,CHILD,ON,S,64,8,Test,User,-,,Recall,Recall1,1507,,0,-1,-1,0,0,,,1
w10013735,4np1j7li56,Emily_Honors_Thesis_Part_2,1,125,2020-05-05T20:53:45-07:00,2.611939907074,5,versionA_stim.csv,IS_JOLVersionA.csv,"ITEM SPECIFIC Version A",OLD,BLOW,WIND,ON,S,55,7,Test,User,-,,Recall,Recall1,2242,wind,100,1383,2128,1,1,,,1
w10013735,4np1j7li56,Emily_Honors_Thesis_Part_2,1,126,2020-05-05T20:53:49-07:00,3.8507721424103,5,versionA_stim.csv,IS_JOLVersionA.csv,"ITEM SPECIFIC Version A",OLD,DRINK,SIP,ON,B,27,79,Test,User,-,,Recall,Recall1,3488,thirst,22.222222222222,2689,3345,0,0,,,1
w10013735,4np1j7li56,Emily_Honors_Thesis_Part_2,1,127,2020-05-05T20:53:52-07:00,3.2079699039459,5,versionA_stim.csv,IS_JOLVersionA.csv,"ITEM SPECIFIC Version A",OLD,NUMBER,AMOUNT,ON,S,47,71,Test,User,-,,Recall,Recall1,2852,,0,-1,-1,0,0,,,1
w10013735,4np1j7li56,Emily_Honors_Thesis_Part_2,1,128,2020-05-05T20:53:57-07:00,4.3841211795807,5,versionA_stim.csv,IS_JOLVersionA.csv,"ITEM SPECIFIC Version A",OLD,STRONG,ACCIDENT,ON,U,80,47,Test,User,-,,Recall,Recall1,4033,,0,-1,-1,0,0,,,1
w10013735,4np1j7li56,Emily_Honors_Thesis_Part_2,1,129,2020-05-05T20:54:01-07:00,3.7973668575287,5,versionA_stim.csv,IS_JOLVersionA.csv,"ITEM SPECIFIC Version A",OLD,MATH,DIVISION,ON,B,33,13,Test,User,-,,Recall,Recall1,3427,,0,-1,-1,0,0,,,1
w10013735,4np1j7li56,Emily_Honors_Thesis_Part_2,1,130,2020-05-05T20:54:03-07:00,2.5961029529572,5,versionA_stim.csv,IS_JOLVersionA.csv,"ITEM SPECIFIC Version A",OLD,CIRCLE,ROUND,ON,S,65,40,Test,User,-,,Recall,Recall1,2237,round,100,1616,2107,1,1,,,1
w10013735,4np1j7li56,Emily_Honors_Thesis_Part_2,1,131,2020-05-05T20:54:12-07:00,9.2294840812683,5,versionA_stim.csv,IS_JOLVersionA.csv,"ITEM SPECIFIC Version A",OLD,REVOLUTION,WAR,ON,F,20,58,Test,User,-,,Recall,Recall1,2489,war,100,2115,2318,1,1,,,1
w10013735,4np1j7li56,Emily_Honors_Thesis_Part_2,1,132,2020-05-05T20:54:20-07:00,7.6254758834839,5,versionA_stim.csv,IS_JOLVersionA.csv,"ITEM SPECIFIC Version A",OLD,KIDNEY,LIVER,ON,S,53,25,Test,User,-,,Recall,Recall1,1758,liver,100,1017,1607,1,1,,,0.889
w10013735,4np1j7li56,Emily_Honors_Thesis_Part_2,1,133,2020-05-05T20:54:26-07:00,6.0677230358124,5,versionA_stim.csv,IS_JOLVersionA.csv,"ITEM SPECIFIC Version A",OLD,ALLOW,TUCK,ON,U,78,63,Test,User,-,,Recall,Recall1,5573,,0,-1,-1,0,0,,,1
w10013735,4np1j7li56,Emily_Honors_Thesis_Part_2,1,134,2020-05-05T20:54:31-07:00,4.6854929924011,5,versionA_stim.csv,IS_JOLVersionA.csv,"ITEM SPECIFIC Version A",OLD,ROOT,PLANT,ON,F,13,26,Test,User,-,,Recall,Recall1,4184,flower,18.181818181818,2882,3977,0,0,,,1
w10013735,4np1j7li56,Emily_Honors_Thesis_Part_2,1,135,2020-05-05T20:54:34-07:00,3.2163009643555,5,versionA_stim.csv,IS_JOLVersionA.csv,"ITEM SPECIFIC Version A",OLD,TRIAL,JURY,ON,S,50,61,Test,User,-,,Recall,Recall1,2863,jury,100,2121,2581,1,1,,,1
w10013735,4np1j7li56,Emily_Honors_Thesis_Part_2,1,136,2020-05-05T20:54:37-07:00,3.006355047226,5,versionA_stim.csv,IS_JOLVersionA.csv,"ITEM SPECIFIC Version A",OLD,BATHROOM,TOILET,ON,S,58,85,Test,User,-,,Recall,Recall1,2647,toilet,100,1548,2482,1,1,,,1
w10013735,4np1j7li56,Emily_Honors_Thesis_Part_2,1,137,2020-05-05T20:54:40-07:00,2.890517950058,5,versionA_stim.csv,IS_JOLVersionA.csv,"ITEM SPECIFIC Version A",OLD,WAGE,MONEY,ON,F,8,9,Test,User,-,,Recall,Recall1,2537,money,100,1479,2160,1,1,,,1
w10013735,4np1j7li56,Emily_Honors_Thesis_Part_2,1,138,2020-05-05T20:54:42-07:00,2.427365064621,5,versionA_stim.csv,IS_JOLVersionA.csv,"ITEM SPECIFIC Version A",OLD,LOCATION,SITE,ON,S,48,20,Test,User,-,,Recall,Recall1,2065,,0,-1,-1,0,0,,,1
w10013735,4np1j7li56,Emily_Honors_Thesis_Part_2,1,139,2020-05-05T20:54:45-07:00,2.1135020256042,5,versionA_stim.csv,IS_JOLVersionA.csv,"ITEM SPECIFIC Version A",OLD,BEGIN,END,ON,S,54,46,Test,User,-,,Recall,Recall1,1814,,0,-1,-1,0,0,,,1
w10013735,4np1j7li56,Emily_Honors_Thesis_Part_2,1,140,2020-05-05T20:54:47-07:00,2.6822550296783,5,versionA_stim.csv,IS_JOLVersionA.csv,"ITEM SPECIFIC Version A",OLD,LETTUCE,SALAD,ON,S,59,57,Test,User,-,,Recall,Recall1,2286,salad,100,1361,2110,1,1,,,1
w10013735,4np1j7li56,Emily_Honors_Thesis_Part_2,1,141,2020-05-05T20:54:51-07:00,3.3672139644623,5,versionA_stim.csv,IS_JOLVersionA.csv,"ITEM SPECIFIC Version A",OLD,SHOE,FOOT,ON,S,60,60,Test,User,-,,Recall,Recall1,2999,,0,-1,-1,0,0,,,1
w10013735,4np1j7li56,Emily_Honors_Thesis_Part_2,1,142,2020-05-05T20:54:52-07:00,1.6285510063171,5,versionA_stim.csv,IS_JOLVersionA.csv,"ITEM SPECIFIC Version A",OLD,FIX,HAND,ON,U,75,72,Test,User,-,,Recall,Recall1,1334,,0,-1,-1,0,0,,,1
w10013735,4np1j7li56,Emily_Honors_Thesis_Part_2,1,143,2020-05-05T20:54:57-07:00,4.7247769832611,5,versionA_stim.csv,IS_JOLVersionA.csv,"ITEM SPECIFIC Version A",OLD,HEIGHT,GROWTH,ON,B,30,75,Test,User,-,,Recall,Recall1,4363,,0,-1,-1,0,0,,,1
w10013735,4np1j7li56,Emily_Honors_Thesis_Part_2,1,144,2020-05-05T20:54:58-07:00,1.488114118576,5,versionA_stim.csv,IS_JOLVersionA.csv,"ITEM SPECIFIC Version A",OLD,LIFT,WOMAN,ON,U,69,17,Test,User,-,,Recall,Recall1,1195,,0,-1,-1,0,0,,,1
w10013735,4np1j7li56,Emily_Honors_Thesis_Part_2,1,145,2020-05-05T20:55:00-07:00,1.5278890132904,5,versionA_stim.csv,IS_JOLVersionA.csv,"ITEM SPECIFIC Version A",OLD,GREAT,FANTASTIC,ON,B,35,49,Test,User,-,,Recall,Recall1,1233,,0,-1,-1,0,0,,,1
w10013735,4np1j7li56,Emily_Honors_Thesis_Part_2,1,146,2020-05-05T20:55:05-07:00,4.6511418819427,5,versionA_stim.csv,IS_JOLVersionA.csv,"ITEM SPECIFIC Version A",OLD,BITTER,COLD,ON,F,12,51,Test,User,-,,Recall,Recall1,4297,butter,0,3296,4097,0,0,,,1
w10013735,4np1j7li56,Emily_Honors_Thesis_Part_2,1,147,2020-05-05T20:55:07-07:00,2.6311841011047,5,versionA_stim.csv,IS_JOLVersionA.csv,"ITEM SPECIFIC Version A",OLD,WINE,CHEESE,ON,S,57,45,Test,User,-,,Recall,Recall1,2280,cheese,100,1420,2159,1,1,,,1
w10013735,4np1j7li56,Emily_Honors_Thesis_Part_2,1,148,2020-05-05T20:55:14-07:00,6.9262750148773,5,versionA_stim.csv,IS_JOLVersionA.csv,"ITEM SPECIFIC Version A",OLD,MACHINE,POSITION,ON,U,76,53,Test,User,-,,Recall,Recall1,1502,,0,-1,-1,0,0,,,0.875
w10013735,4np1j7li56,Emily_Honors_Thesis_Part_2,1,149,2020-05-05T20:55:18-07:00,3.6917269229889,5,versionA_stim.csv,IS_JOLVersionA.csv,"ITEM SPECIFIC Version A",OLD,HAPPY,CAR,ON,U,77,10,Test,User,-,,Recall,Recall1,3315,,0,-1,-1,0,0,,,1
w10013735,4np1j7li56,Emily_Honors_Thesis_Part_2,1,150,2020-05-05T20:55:20-07:00,2.5710730552673,5,versionA_stim.csv,IS_JOLVersionA.csv,"ITEM SPECIFIC Version A",OLD,SENTENCE,WORD,ON,B,31,68,Test,User,-,,Recall,Recall1,2203,word,100,1656,2056,1,1,,,1
w10013735,4np1j7li56,Emily_Honors_Thesis_Part_2,1,151,2020-05-05T20:55:23-07:00,2.4258818626404,5,versionA_stim.csv,IS_JOLVersionA.csv,"ITEM SPECIFIC Version A",OLD,PUSHER,CLUTTER,ON,U,66,83,Test,User,-,,Recall,Recall1,2043,,0,-1,-1,0,0,,,1
w10013735,4np1j7li56,Emily_Honors_Thesis_Part_2,1,152,2020-05-05T20:55:26-07:00,2.9675459861755,5,versionA_stim.csv,IS_JOLVersionA.csv,"ITEM SPECIFIC Version A",OLD,SLEEP,DROWSY,ON,B,41,18,Test,User,-,,Recall,Recall1,2613,,0,-1,-1,0,0,,,1
w10013735,4np1j7li56,Emily_Honors_Thesis_Part_2,1,153,2020-05-05T20:55:30-07:00,3.707771062851,5,versionA_stim.csv,IS_JOLVersionA.csv,"ITEM SPECIFIC Version A",OLD,MEANING,DEFINITION,ON,S,62,74,Test,User,-,,Recall,Recall1,3344,definition,100,1544,3067,1,1,,,1
w10013735,4np1j7li56,Emily_Honors_Thesis_Part_2,1,154,2020-05-05T20:55:34-07:00,4.9702069759369,5,versionA_stim.csv,IS_JOLVersionA.csv,"ITEM SPECIFIC Version A",OLD,DIETARY,SACKING,ON,U,67,84,Test,User,-,,Recall,Recall1,4611,eating,61.538461538462,3161,4421,0,0,,,1
w10013735,4np1j7li56,Emily_Honors_Thesis_Part_2,1,155,2020-05-05T20:55:39-07:00,4.5019409656525,5,versionA_stim.csv,IS_JOLVersionA.csv,"ITEM SPECIFIC Version A",OLD,EDITOR,NEWS,ON,F,10,15,Test,User,-,,Recall,Recall1,4144,newpaper,50,2742,3977,0,0,,,1
w10013735,4np1j7li56,Emily_Honors_Thesis_Part_2,1,156,2020-05-05T20:55:42-07:00,3.1606981754303,5,versionA_stim.csv,IS_JOLVersionA.csv,"ITEM SPECIFIC Version A",OLD,BRIDGE,WATER,ON,F,18,22,Test,User,-,,Recall,Recall1,2797,water,100,2082,2617,1,1,,,1
w10013735,4np1j7li56,Emily_Honors_Thesis_Part_2,1,157,2020-05-05T20:55:44-07:00,1.8742718696594,5,versionA_stim.csv,IS_JOLVersionA.csv,"ITEM SPECIFIC Version A",OLD,DUMP,WASTE,ON,S,49,43,Test,User,-,,Recall,Recall1,1577,,0,-1,-1,0,0,,,1
w10013735,4np1j7li56,Emily_Honors_Thesis_Part_2,1,158,2020-05-05T20:55:50-07:00,6.2572660446167,5,versionA_stim.csv,IS_JOLVersionA.csv,"ITEM SPECIFIC Version A",OLD,BALL,RACKET,ON,B,38,66,Test,User,-,,Recall,Recall1,1243,,0,-1,-1,0,0,,,0.857
w10013735,4np1j7li56,Emily_Honors_Thesis_Part_2,1,159,2020-05-05T20:55:53-07:00,2.4166429042816,5,versionA_stim.csv,IS_JOLVersionA.csv,"ITEM SPECIFIC Version A",OLD,TAKE,SEIZE,ON,B,29,38,Test,User,-,,Recall,Recall1,2052,,0,-1,-1,0,0,,,1
w10013735,4np1j7li56,Emily_Honors_Thesis_Part_2,1,160,2020-05-05T20:55:57-07:00,4.0633461475372,5,versionA_stim.csv,IS_JOLVersionA.csv,"ITEM SPECIFIC Version A",OLD,HIDE,SICK,ON,U,84,30,Test,User,-,,Recall,Recall1,3673,sick,100,2899,3215,1,1,,,1
w10013735,4np1j7li56,Emily_Honors_Thesis_Part_2,1,161,2020-05-05T20:56:00-07:00,2.8608429431915,5,versionA_stim.csv,IS_JOLVersionA.csv,"ITEM SPECIFIC Version A",OLD,POP,SODA,ON,S,56,44,Test,User,-,,Recall,Recall1,2479,soda,100,1472,1894,1,1,,,1
w10013735,4np1j7li56,Emily_Honors_Thesis_Part_2,1,162,2020-05-05T20:56:07-07:00,7.2119948863983,5,versionA_stim.csv,IS_JOLVersionA.csv,"ITEM SPECIFIC Version A",OLD,ARCHITECTURE,DESIGN,ON,S,51,82,Test,User,-,,Recall,Recall1,2181,design,100,1216,1914,1,1,,,0.909
w10013735,4np1j7li56,Emily_Honors_Thesis_Part_2,1,163,2020-05-05T20:56:11-07:00,3.7355010509491,5,versionA_stim.csv,IS_JOLVersionA.csv,"ITEM SPECIFIC Version A",OLD,DIGESTION,STOMACH,ON,F,7,56,Test,User,-,,Recall,Recall1,3360,,0,-1,-1,0,0,,,1
w10013735,4np1j7li56,Emily_Honors_Thesis_Part_2,1,164,2020-05-05T20:56:13-07:00,2.4826850891113,5,versionA_stim.csv,IS_JOLVersionA.csv,"ITEM SPECIFIC Version A",OLD,DISCOVER,FLOOR,ON,U,71,33,Test,User,-,,Recall,Recall1,2108,,0,-1,-1,0,0,,,1
w10013735,4np1j7li56,Emily_Honors_Thesis_Part_2,1,165,2020-05-05T20:56:16-07:00,3.3982510566711,5,versionA_stim.csv,IS_JOLVersionA.csv,"ITEM SPECIFIC Version A",OLD,HYGIENE,CLEAN,ON,F,17,50,Test,User,-,,Recall,Recall1,3002,clean,100,2283,2760,1,1,,,1
w10013735,4np1j7li56,Emily_Honors_Thesis_Part_2,1,166,2020-05-05T20:56:19-07:00,2.4969749450684,5,versionA_stim.csv,IS_JOLVersionA.csv,"ITEM SPECIFIC Version A",OLD,ORCHID,FLOWER,ON,F,24,48,Test,User,-,,Recall,Recall1,2129,flower,100,1371,2006,1,1,,,1
w10013735,4np1j7li56,Emily_Honors_Thesis_Part_2,1,167,2020-05-05T20:56:21-07:00,2.1147329807281,5,versionA_stim.csv,IS_JOLVersionA.csv,"ITEM SPECIFIC Version A",OLD,SWAN,BIRD,ON,F,14,86,Test,User,-,,Recall,Recall1,1825,bird,100,1258,1696,1,1,,,1
w10013735,4np1j7li56,Emily_Honors_Thesis_Part_2,1,168,2020-05-05T20:56:25-07:00,3.4571108818054,5,versionA_stim.csv,IS_JOLVersionA.csv,"ITEM SPECIFIC Version A",OLD,HORNET,STING,ON,F,11,41,Test,User,-,,Recall,Recall1,3096,sting,100,1262,2932,1,1,,,1
w10013735,4np1j7li56,Emily_Honors_Thesis_Part_2,1,169,2020-05-05T20:56:26-07:00,1.8268611431122,5,versionA_stim.csv,IS_JOLVersionA.csv,"ITEM SPECIFIC Version A",OLD,KEY,LATCH,ON,B,36,31,Test,User,-,,Recall,Recall1,1534,,0,-1,-1,0,0,,,1
w10013735,4np1j7li56,Emily_Honors_Thesis_Part_2,1,170,2020-05-05T20:56:28-07:00,1.8711009025574,5,versionA_stim.csv,IS_JOLVersionA.csv,"ITEM SPECIFIC Version A",OLD,HONEY,BEE,ON,S,63,77,Test,User,-,,Recall,Recall1,1570,bee,100,1058,1419,1,1,,,1
w10013735,4np1j7li56,Emily_Honors_Thesis_Part_2,1,171,2020-05-05T20:56:30-07:00,1.6594750881195,5,versionA_stim.csv,IS_JOLVersionA.csv,"ITEM SPECIFIC Version A",OLD,FIRE,BLAZE,ON,B,45,78,Test,User,-,,Recall,Recall1,1350,,0,-1,-1,0,0,,,1
w10013735,4np1j7li56,Emily_Honors_Thesis_Part_2,1,172,2020-05-05T20:56:32-07:00,1.7923560142517,5,versionA_stim.csv,IS_JOLVersionA.csv,"ITEM SPECIFIC Version A",OLD,KING,VASE,ON,U,85,52,Test,User,-,,Recall,Recall1,1500,,0,-1,-1,0,0,,,1
w10013735,4np1j7li56,Emily_Honors_Thesis_Part_2,1,173,2020-05-05T20:56:33-07:00,1.7131559848785,5,versionA_stim.csv,IS_JOLVersionA.csv,"ITEM SPECIFIC Version A",OLD,GRILL,BAR,ON,S,52,70,Test,User,-,,Recall,Recall1,1415,,0,-1,-1,0,0,,,1
w10013735,4np1j7li56,Emily_Honors_Thesis_Part_2,1,174,2020-05-05T20:56:35-07:00,2.0581710338593,5,versionA_stim.csv,IS_JOLVersionA.csv,"ITEM SPECIFIC Version A",OLD,GEOLOGY,ROCK,ON,F,19,19,Test,User,-,,Recall,Recall1,1768,rock,100,1242,1578,1,1,,,1
w10013735,4np1j7li56,Emily_Honors_Thesis_Part_2,1,175,2020-05-05T20:56:37-07:00,1.5754630565643,5,versionA_stim.csv,IS_JOLVersionA.csv,"ITEM SPECIFIC Version A",OLD,SOON,BELT,ON,U,70,76,Test,User,-,,Recall,Recall1,1262,,0,-1,-1,0,0,,,1
w10013735,4np1j7li56,Emily_Honors_Thesis_Part_2,1,176,2020-05-05T20:56:41-07:00,3.5431978702545,5,versionA_stim.csv,IS_JOLVersionA.csv,"ITEM SPECIFIC Version A",OLD,HOT,CHILI,ON,B,37,29,Test,User,-,,Recall,Recall1,3170,chili,100,2407,2866,1,1,,,1
w10013735,4np1j7li56,Emily_Honors_Thesis_Part_2,1,177,2020-05-05T20:56:43-07:00,2.423840045929,5,versionA_stim.csv,IS_JOLVersionA.csv,"ITEM SPECIFIC Version A",OLD,PARK,HUNGRY,ON,U,68,62,Test,User,-,,Recall,Recall1,2073,,0,-1,-1,0,0,,,1
w10013735,4np1j7li56,Emily_Honors_Thesis_Part_2,1,178,2020-05-05T20:56:45-07:00,1.8485400676727,5,versionA_stim.csv,IS_JOLVersionA.csv,"ITEM SPECIFIC Version A",OLD,DISCUSSION,TALK,ON,F,21,23,Test,User,-,,Recall,Recall1,1562,,0,-1,-1,0,0,,,1
w10013735,4np1j7li56,Emily_Honors_Thesis_Part_2,1,179,2020-05-05T20:56:47-07:00,1.6995179653168,5,versionA_stim.csv,IS_JOLVersionA.csv,"ITEM SPECIFIC Version A",OLD,CLOTHES,ATTIRE,ON,B,43,80,Test,User,-,,Recall,Recall1,1395,,0,-1,-1,0,0,,,1
w10013735,4np1j7li56,Emily_Honors_Thesis_Part_2,1,180,2020-05-05T20:56:49-07:00,2.6186029911041,5,versionA_stim.csv,IS_JOLVersionA.csv,"ITEM SPECIFIC Version A",OLD,ARTERY,BRONZE,ON,U,74,59,Test,User,-,,Recall,Recall1,2251,,0,-1,-1,0,0,,,1
w10013735,4np1j7li56,Emily_Honors_Thesis_Part_2,1,181,2020-05-05T20:56:51-07:00,1.712504863739,5,versionA_stim.csv,IS_JOLVersionA.csv,"ITEM SPECIFIC Version A",OLD,CASH,WOULD,ON,U,83,65,Test,User,-,,Recall,Recall1,1415,,0,-1,-1,0,0,,,1
w10013735,4np1j7li56,Emily_Honors_Thesis_Part_2,1,182,2020-05-05T20:56:55-07:00,3.841824054718,5,versionA_stim.csv,IS_JOLVersionA.csv,"ITEM SPECIFIC Version A",OLD,DELINQUENT,BAD,ON,F,6,36,Test,User,-,,Recall,Recall1,3466,,0,-1,-1,0,0,,,1
w10013735,4np1j7li56,Emily_Honors_Thesis_Part_2,1,183,2020-05-05T20:56:56-07:00,1.635262966156,5,versionA_stim.csv,IS_JOLVersionA.csv,"ITEM SPECIFIC Version A",OLD,WAY,OUT,ON,F,16,12,Test,User,-,,Recall,Recall1,1326,,0,-1,-1,0,0,,,1
w10013735,4np1j7li56,Emily_Honors_Thesis_Part_2,1,184,2020-05-05T20:56:58-07:00,1.5715570449829,5,versionA_stim.csv,IS_JOLVersionA.csv,"ITEM SPECIFIC Version A",OLD,DARK,CAVE,ON,B,28,34,Test,User,-,,Recall,Recall1,1262,,0,-1,-1,0,0,,,1
w10013735,4np1j7li56,Emily_Honors_Thesis_Part_2,1,185,2020-05-05T20:57:01-07:00,3.5855240821838,5,versionA_stim.csv,IS_JOLVersionA.csv,"ITEM SPECIFIC Version A",OLD,BUG,WASP,ON,B,32,54,Test,User,-,,Recall,Recall1,3218,,0,-1,-1,0,0,,,1
w10013735,4np1j7li56,Emily_Honors_Thesis_Part_2,1,186,2020-05-05T20:57:05-07:00,3.6637849807739,5,versionA_stim.csv,IS_JOLVersionA.csv,"ITEM SPECIFIC Version A",OLD,PLANE,PILOT,ON,B,44,73,Test,User,-,,Recall,Recall1,3301,pilot,100,2337,3162,1,1,,,1
w10013735,4np1j7li56,Emily_Honors_Thesis_Part_2,1,187,2020-05-05T20:57:07-07:00,2.0146799087524,5,versionA_stim.csv,IS_JOLVersionA.csv,"ITEM SPECIFIC Version A",OLD,TUNA,FISH,ON,F,25,55,Test,User,-,,Recall,Recall1,1715,fish,100,1119,1387,1,1,,,1
w10013735,4np1j7li56,Emily_Honors_Thesis_Part_2,1,188,2020-05-05T20:57:09-07:00,1.5248789787292,5,versionA_stim.csv,IS_JOLVersionA.csv,"ITEM SPECIFIC Version A",OLD,CREDIT,CARD,ON,F,23,32,Test,User,-,,Recall,Recall1,1217,,0,-1,-1,0,0,,,1
w10013735,4np1j7li56,Emily_Honors_Thesis_Part_2,1,189,2020-05-05T20:57:14-07:00,5.2283251285553,5,versionA_stim.csv,IS_JOLVersionA.csv,"ITEM SPECIFIC Version A",OLD,DUE,ASSIGNMENT,ON,S,46,42,Test,User,-,,Recall,Recall1,4867,assignment,100,3355,4694,1,1,,,1
w10013735,4np1j7li56,Emily_Honors_Thesis_Part_2,1,190,2020-05-05T20:57:16-07:00,1.6697428226471,5,versionA_stim.csv,IS_JOLVersionA.csv,"ITEM SPECIFIC Version A",OLD,DEATH,BUSINESS,ON,U,72,64,Test,User,-,,Recall,Recall1,1368,,0,-1,-1,0,0,,,1
w10013735,4np1j7li56,Emily_Honors_Thesis_Part_2,1,191,2020-05-05T20:57:17-07:00,1.3446881771088,5,versionA_stim.csv,IS_JOLVersionA.csv,"ITEM SPECIFIC Version A",OLD,WORK,CHORE,ON,B,39,81,Test,User,-,,Recall,Recall1,1055,,0,-1,-1,0,0,,,1
w10013735,4np1j7li56,Emily_Honors_Thesis_Part_2,1,192,2020-05-05T20:57:19-07:00,1.6916868686676,5,versionA_stim.csv,IS_JOLVersionA.csv,"ITEM SPECIFIC Version A",OLD,VALLEY,ADD,ON,U,82,28,Test,User,-,,Recall,Recall1,1401,,0,-1,-1,0,0,,,1
w10013735,4np1j7li56,Emily_Honors_Thesis_Part_2,1,193,2020-05-05T20:57:19-07:00,0.31984710693359,5,versionA_stim.csv,IS_JOLVersionA.csv,"ITEM SPECIFIC Version A",OLD,PAST,FUTURE,ON,S,61,14,Test,User,-,,Recall,Recall1,13,,0,-1,-1,0,0,,,1
w10013735,4np1j7li56,Emily_Honors_Thesis_Part_2,1,194,2020-05-05T20:57:21-07:00,1.9296698570251,5,versionA_stim.csv,IS_JOLVersionA.csv,"ITEM SPECIFIC Version A",OLD,FULL,ENOUGH,ON,B,26,67,Test,User,-,,Recall,Recall1,1603,,0,-1,-1,0,0,,,1
w10013735,4np1j7li56,Emily_Honors_Thesis_Part_2,1,195,2020-05-05T20:57:33-07:00,11.67080116272,5,versionA_stim.csv,IS_JOLVersionA.csv,"ITEM SPECIFIC Version A",OLD,,,,,,0,Instruct,-,10,"You will now be presented with a new set of word pairs. Please study each pair. Remember that your memory will be tested! When finished, press Enter to move to the next pair.",Initial_Instruct,Instruct4,11308,,,-1,-1,,,,,1
w10013735,4np1j7li56,Emily_Honors_Thesis_Part_2,1,196,2020-05-05T20:57:46-07:00,13.541631937027,5,versionA_stim.csv,IS_JOLVersionA.csv,"ITEM SPECIFIC Version A",OLD,,,,,,0,Instruct,,10,"You will again be asked to rate your ability to remember these items using a 0 to 100 scale. Remember to use the full range of the scale!",,Instruct10,13161,,,-1,-1,,,,,1
w10013735,4np1j7li56,Emily_Honors_Thesis_Part_2,1,197,2020-05-05T20:58:09-07:00,23.204202890396,5,versionA_stim.csv,IS_JOLVersionA.csv,"ITEM SPECIFIC Version A",OLD,,,,,,0,Instruct,-,15,"As you study and make your ratings, please think about the unique featues of each item and how the two concepts are DIFFERENT from each other. For example, if you see the pair TURTLE-CAT, think about how TURTLES have shells and are reptiles, while CATS are mammals and have fur.",,Instruct20,22827,,,-1,-1,,,,,1
w10013735,4np1j7li56,Emily_Honors_Thesis_Part_2,1,198,2020-05-05T20:58:30-07:00,21.027825117111,5,versionA_stim.csv,IS_JOLVersionA.csv,"ITEM SPECIFIC Version A",OLD,,,,,,0,FreeRecall,-,10,"What you should think about as you study each item pair? Type your response in the box below.",,CHECK4,20660,"How the pair is different from each other. ",0,9404,19384,0,0,,,1
w10013735,4np1j7li56,Emily_Honors_Thesis_Part_2,1,199,2020-05-05T20:58:35-07:00,4.8474888801575,5,versionA_stim.csv,IS_JOLVersionA.csv,"ITEM SPECIFIC Version A",OLD,,,,,,0,Instruct,User,-,"Press Enter when you are readty to begin",,Instruct11,4491,,,-1,-1,,,,,1
w10013735,4np1j7li56,Emily_Honors_Thesis_Part_2,1,200,2020-05-05T20:58:40-07:00,5.2226002216339,5,versionA_stim.csv,IS_JOLVersionA.csv,"ITEM SPECIFIC Version A",OLD,CARROT,POTATO,Buffer3,Buffer,91,92,JOL,User,-,"How likely are you to correctly recall the second item in the pair?|Type your response on a scale from 0-100 and then press Enter.",Study/JOL,BUFFER3,4837,,,3967,4061,,,,89,1
w10013735,4np1j7li56,Emily_Honors_Thesis_Part_2,1,201,2020-05-05T20:59:06-07:00,25.732250928879,5,versionA_stim.csv,IS_JOLVersionA.csv,"ITEM SPECIFIC Version A",OLD,SHRIMP,FISH,Buffer3,Buffer,93,96,JOL,User,-,"How likely are you to correctly recall the second item in the pair?|Type your response on a scale from 0-100 and then press Enter.",Study/JOL,BUFFER3,25366,,,23968,24529,,,,93,1
w10013735,4np1j7li56,Emily_Honors_Thesis_Part_2,1,202,2020-05-05T20:59:20-07:00,13.68828701973,5,versionA_stim.csv,IS_JOLVersionA.csv,"ITEM SPECIFIC Version A",OLD,CAMP,ADVENTURE,Buffer3,Buffer,95,93,JOL,User,-,"How likely are you to correctly recall the second item in the pair?|Type your response on a scale from 0-100 and then press Enter.",Study/JOL,BUFFER3,13330,,,12357,12589,,,,53,1
w10013735,4np1j7li56,Emily_Honors_Thesis_Part_2,1,203,2020-05-05T20:59:33-07:00,12.908540010452,5,versionA_stim.csv,IS_JOLVersionA.csv,"ITEM SPECIFIC Version A",OLD,SPRING,MARCH,Buffer3,Buffer,179,95,JOL,User,-,"How likely are you to correctly recall the second item in the pair?|Type your response on a scale from 0-100 and then press Enter.",Study/JOL,BUFFER3,12525,,,11085,11509,,,,81,1
w10013735,4np1j7li56,Emily_Honors_Thesis_Part_2,1,204,2020-05-05T20:59:42-07:00,8.8863658905029,5,versionA_stim.csv,IS_JOLVersionA.csv,"ITEM SPECIFIC Version A",OLD,DAYS,WEAKS,Buffer3,Buffer,176,94,JOL,User,-,"How likely are you to correctly recall the second item in the pair?|Type your response on a scale from 0-100 and then press Enter.",Study/JOL,BUFFER3,8509,,,7242,7534,,,,74,1
w10013735,4np1j7li56,Emily_Honors_Thesis_Part_2,1,205,2020-05-05T20:59:51-07:00,9.5967381000519,5,versionA_stim.csv,IS_JOLVersionA.csv,"ITEM SPECIFIC Version A",OLD,EARTH,GROUND,ON2,S,144,104,JOL,User,-,"How likely are you to correctly recall the second item in the pair?|Type your response on a scale from 0-100 and then press Enter.",Study/JOL,"Study Phase2",9218,,,7811,8339,,,,81,1
w10013735,4np1j7li56,Emily_Honors_Thesis_Part_2,1,206,2020-05-05T21:00:19-07:00,28.183550834656,5,versionA_stim.csv,IS_JOLVersionA.csv,"ITEM SPECIFIC Version A",OLD,MASON,JAR,ON2,S,138,122,JOL,User,-,"How likely are you to correctly recall the second item in the pair?|Type your response on a scale from 0-100 and then press Enter.",Study/JOL,"Study Phase2",27820,,,27254,27404,,,,91,0.136
w10013735,4np1j7li56,Emily_Honors_Thesis_Part_2,1,207,2020-05-05T21:02:26-07:00,126.34455919266,5,versionA_stim.csv,IS_JOLVersionA.csv,"ITEM SPECIFIC Version A",OLD,DETECTIVE,MYSTERY,ON2,F,100,147,JOL,User,-,"How likely are you to correctly recall the second item in the pair?|Type your response on a scale from 0-100 and then press Enter.",Study/JOL,"Study Phase2",125969,,,124701,125660,,,,87,1
w10013735,4np1j7li56,Emily_Honors_Thesis_Part_2,1,208,2020-05-05T21:02:29-07:00,3.6930158138275,5,versionA_stim.csv,IS_JOLVersionA.csv,"ITEM SPECIFIC Version A",OLD,TEMPERATURE,MORNING,ON2,U,173,138,JOL,User,-,"How likely are you to correctly recall the second item in the pair?|Type your response on a scale from 0-100 and then press Enter.",Study/JOL,"Study Phase2",3312,,,2836,2959,,,,86,1
w10013735,4np1j7li56,Emily_Honors_Thesis_Part_2,1,209,2020-05-05T21:02:44-07:00,14.260323047638,5,versionA_stim.csv,IS_JOLVersionA.csv,"ITEM SPECIFIC Version A",OLD,CLUE,GAME,ON2,F,97,140,JOL,User,-,"How likely are you to correctly recall the second item in the pair?|Type your response on a scale from 0-100 and then press Enter.",Study/JOL,"Study Phase2",13880,,,12487,13114,,,,76,0.4
w10013735,4np1j7li56,Emily_Honors_Thesis_Part_2,1,210,2020-05-05T21:02:56-07:00,12.434640169144,5,versionA_stim.csv,IS_JOLVersionA.csv,"ITEM SPECIFIC Version A",OLD,EXTENSION,LONG,ON2,F,96,115,JOL,User,-,"How likely are you to correctly recall the second item in the pair?|Type your response on a scale from 0-100 and then press Enter.",Study/JOL,"Study Phase2",12057,,,11218,11373,,,,78,0.361
w10013735,4np1j7li56,Emily_Honors_Thesis_Part_2,1,211,2020-05-05T21:03:07-07:00,11.203934907913,5,versionA_stim.csv,IS_JOLVersionA.csv,"ITEM SPECIFIC Version A",OLD,JUSTICE,MAROON,ON2,U,156,127,JOL,User,-,"How likely are you to correctly recall the second item in the pair?|Type your response on a scale from 0-100 and then press Enter.",Study/JOL,"Study Phase2",10799,,,9602,9994,,,,24,0.278
w10013735,4np1j7li56,Emily_Honors_Thesis_Part_2,1,212,2020-05-05T21:03:22-07:00,14.413023948669,5,versionA_stim.csv,IS_JOLVersionA.csv,"ITEM SPECIFIC Version A",OLD,BEST,FAVORITE,ON2,B,125,117,JOL,User,-,"How likely are you to correctly recall the second item in the pair?|Type your response on a scale from 0-100 and then press Enter.",Study/JOL,"Study Phase2",14047,,,13293,13347,,,,67,0.225
w10013735,4np1j7li56,Emily_Honors_Thesis_Part_2,1,213,2020-05-05T21:03:38-07:00,16.304669141769,5,versionA_stim.csv,IS_JOLVersionA.csv,"ITEM SPECIFIC Version A",OLD,CAKE,CLOTHES,ON2,U,166,169,JOL,User,-,"How likely are you to correctly recall the second item in the pair?|Type your response on a scale from 0-100 and then press Enter.",Study/JOL,"Study Phase2",15937,,,15531,15696,,,,22,0.213
w10013735,4np1j7li56,Emily_Honors_Thesis_Part_2,1,214,2020-05-05T21:03:51-07:00,12.49885892868,5,versionA_stim.csv,IS_JOLVersionA.csv,"ITEM SPECIFIC Version A",OLD,BIRD,PENGUIN,ON2,B,119,128,JOL,User,-,"How likely are you to correctly recall the second item in the pair?|Type your response on a scale from 0-100 and then press Enter.",Study/JOL,"Study Phase2",12120,,,9021,10478,,,,70,0.754
w10013735,4np1j7li56,Emily_Honors_Thesis_Part_2,1,215,2020-05-05T21:03:58-07:00,7.4711918830872,5,versionA_stim.csv,IS_JOLVersionA.csv,"ITEM SPECIFIC Version A",OLD,LOUD,NOISE,ON2,S,152,135,JOL,User,-,"How likely are you to correctly recall the second item in the pair?|Type your response on a scale from 0-100 and then press Enter.",Study/JOL,"Study Phase2",7087,,,6363,6681,,,,91,0.583
w10013735,4np1j7li56,Emily_Honors_Thesis_Part_2,1,216,2020-05-05T21:04:05-07:00,7.2489500045776,5,versionA_stim.csv,IS_JOLVersionA.csv,"ITEM SPECIFIC Version A",OLD,CHILL,COLD,ON2,F,114,158,JOL,User,-,"How likely are you to correctly recall the second item in the pair?|Type your response on a scale from 0-100 and then press Enter.",Study/JOL,"Study Phase2",6886,,,6323,6561,,,,94,0.629
w10013735,4np1j7li56,Emily_Honors_Thesis_Part_2,1,217,2020-05-05T21:04:13-07:00,7.5494079589844,5,versionA_stim.csv,IS_JOLVersionA.csv,"ITEM SPECIFIC Version A",OLD,DINE,EAT,ON2,F,111,134,JOL,User,-,"How likely are you to correctly recall the second item in the pair?|Type your response on a scale from 0-100 and then press Enter.",Study/JOL,"Study Phase2",7193,,,6705,6832,,,,80,0.639
w10013735,4np1j7li56,Emily_Honors_Thesis_Part_2,1,218,2020-05-05T21:04:25-07:00,12.02675819397,5,versionA_stim.csv,IS_JOLVersionA.csv,"ITEM SPECIFIC Version A",OLD,INCENSE,SMELL,ON2,F,110,154,JOL,User,-,"How likely are you to correctly recall the second item in the pair?|Type your response on a scale from 0-100 and then press Enter.",Study/JOL,"Study Phase2",11666,,,10775,11044,,,,71,0.254
w10013735,4np1j7li56,Emily_Honors_Thesis_Part_2,1,219,2020-05-05T21:04:34-07:00,9.6108119487762,5,versionA_stim.csv,IS_JOLVersionA.csv,"ITEM SPECIFIC Version A",OLD,CANDLE,WAX,ON2,S,139,123,JOL,User,-,"How likely are you to correctly recall the second item in the pair?|Type your response on a scale from 0-100 and then press Enter.",Study/JOL,"Study Phase2",9248,,,8380,8548,,,,95,0.511
w10013735,4np1j7li56,Emily_Honors_Thesis_Part_2,1,220,2020-05-05T21:04:51-07:00,16.193414926529,5,versionA_stim.csv,IS_JOLVersionA.csv,"ITEM SPECIFIC Version A",OLD,STRETCH,CLOTH,ON2,U,157,162,JOL,User,-,"How likely are you to correctly recall the second item in the pair?|Type your response on a scale from 0-100 and then press Enter.",Study/JOL,"Study Phase2",15828,,,14772,15186,,,,63,0.313
w10013735,4np1j7li56,Emily_Honors_Thesis_Part_2,1,221,2020-05-05T21:05:03-07:00,12.043581962585,5,versionA_stim.csv,IS_JOLVersionA.csv,"ITEM SPECIFIC Version A",OLD,MEAT,OBTAIN,ON2,U,161,125,JOL,User,-,"How likely are you to correctly recall the second item in the pair?|Type your response on a scale from 0-100 and then press Enter.",Study/JOL,"Study Phase2",11679,,,10708,10961,,,,25,0.305
w10013735,4np1j7li56,Emily_Honors_Thesis_Part_2,1,222,2020-05-05T21:05:12-07:00,9.1862721443176,5,versionA_stim.csv,IS_JOLVersionA.csv,"ITEM SPECIFIC Version A",OLD,SHELL,SHAKE,ON2,U,163,130,JOL,User,-,"How likely are you to correctly recall the second item in the pair?|Type your response on a scale from 0-100 and then press Enter.",Study/JOL,"Study Phase2",8783,,,8150,8269,,,,27,0.364
w10013735,4np1j7li56,Emily_Honors_Thesis_Part_2,1,223,2020-05-05T21:05:24-07:00,11.735898971558,5,versionA_stim.csv,IS_JOLVersionA.csv,"ITEM SPECIFIC Version A",OLD,TURN,FLIP,ON2,B,116,107,JOL,User,-,"How likely are you to correctly recall the second item in the pair?|Type your response on a scale from 0-100 and then press Enter.",Study/JOL,"Study Phase2",11337,,,10354,10637,,,,31,0.333
w10013735,4np1j7li56,Emily_Honors_Thesis_Part_2,1,224,2020-05-05T21:05:31-07:00,7.5885729789734,5,versionA_stim.csv,IS_JOLVersionA.csv,"ITEM SPECIFIC Version A",OLD,SHEARS,SCISSORS,ON2,F,112,129,JOL,User,-,"How likely are you to correctly recall the second item in the pair?|Type your response on a scale from 0-100 and then press Enter.",Study/JOL,"Study Phase2",7206,,,6780,6888,,,,40,0.528
w10013735,4np1j7li56,Emily_Honors_Thesis_Part_2,1,225,2020-05-05T21:05:43-07:00,11.875194072723,5,versionA_stim.csv,IS_JOLVersionA.csv,"ITEM SPECIFIC Version A",OLD,SLEEP,NAP,ON2,B,134,151,JOL,User,-,"How likely are you to correctly recall the second item in the pair?|Type your response on a scale from 0-100 and then press Enter.",Study/JOL,"Study Phase2",11508,,,11035,11143,,,,50,0.328
w10013735,4np1j7li56,Emily_Honors_Thesis_Part_2,1,226,2020-05-05T21:05:50-07:00,6.9286699295044,5,versionA_stim.csv,IS_JOLVersionA.csv,"ITEM SPECIFIC Version A",OLD,LOAN,SIGN,ON2,U,171,157,JOL,User,-,"How likely are you to correctly recall the second item in the pair?|Type your response on a scale from 0-100 and then press Enter.",Study/JOL,"Study Phase2",6563,,,5983,6418,,,,64,0.394
w10013735,4np1j7li56,Emily_Honors_Thesis_Part_2,1,227,2020-05-05T21:05:58-07:00,8.1646449565887,5,versionA_stim.csv,IS_JOLVersionA.csv,"ITEM SPECIFIC Version A",OLD,GLASS,BREAKABLE,ON2,B,127,146,JOL,User,-,"How likely are you to correctly recall the second item in the pair?|Type your response on a scale from 0-100 and then press Enter.",Study/JOL,"Study Phase2",7796,,,7223,7497,,,,75,0.41
w10013735,4np1j7li56,Emily_Honors_Thesis_Part_2,1,228,2020-05-05T21:06:05-07:00,7.1118021011353,5,versionA_stim.csv,IS_JOLVersionA.csv,"ITEM SPECIFIC Version A",OLD,SCALP,HEAD,ON2,F,105,173,JOL,User,-,"How likely are you to correctly recall the second item in the pair?|Type your response on a scale from 0-100 and then press Enter.",Study/JOL,"Study Phase2",6729,,,6269,6373,,,,79,0.618
w10013735,4np1j7li56,Emily_Honors_Thesis_Part_2,1,229,2020-05-05T21:06:14-07:00,8.9069290161133,5,versionA_stim.csv,IS_JOLVersionA.csv,"ITEM SPECIFIC Version A",OLD,FIGHT,BRAWL,ON2,B,135,126,JOL,User,-,"How likely are you to correctly recall the second item in the pair?|Type your response on a scale from 0-100 and then press Enter.",Study/JOL,"Study Phase2",8530,,,7719,7908,,,,59,0.442
w10013735,4np1j7li56,Emily_Honors_Thesis_Part_2,1,230,2020-05-05T21:06:21-07:00,6.6435580253601,5,versionA_stim.csv,IS_JOLVersionA.csv,"ITEM SPECIFIC Version A",OLD,CHERRY,RED,ON2,F,104,165,JOL,User,-,"How likely are you to correctly recall the second item in the pair?|Type your response on a scale from 0-100 and then press Enter.",Study/JOL,"Study Phase2",6269,,,5612,5692,,,,90,0.438
w10013735,4np1j7li56,Emily_Honors_Thesis_Part_2,1,231,2020-05-05T21:06:28-07:00,7.4974119663239,5,versionA_stim.csv,IS_JOLVersionA.csv,"ITEM SPECIFIC Version A",OLD,EVEN,REVENGE,ON2,B,122,176,JOL,User,-,"How likely are you to correctly recall the second item in the pair?|Type your response on a scale from 0-100 and then press Enter.",Study/JOL,"Study Phase2",7100,,,6409,6673,,,,61,0.5
w10013735,4np1j7li56,Emily_Honors_Thesis_Part_2,1,232,2020-05-05T21:06:45-07:00,16.419224977493,5,versionA_stim.csv,IS_JOLVersionA.csv,"ITEM SPECIFIC Version A",OLD,DRIVER,CAR,ON2,F,106,110,JOL,User,-,"How likely are you to correctly recall the second item in the pair?|Type your response on a scale from 0-100 and then press Enter.",Study/JOL,"Study Phase2",16058,,,15434,15560,,,,60,0.679
w10013735,4np1j7li56,Emily_Honors_Thesis_Part_2,1,233,2020-05-05T21:06:55-07:00,9.8743059635162,5,versionA_stim.csv,IS_JOLVersionA.csv,"ITEM SPECIFIC Version A",OLD,ELEMENT,CARBON,ON2,S,141,149,JOL,User,-,"How likely are you to correctly recall the second item in the pair?|Type your response on a scale from 0-100 and then press Enter.",Study/JOL,"Study Phase2",9494,,,8355,8899,,,,73,0.604
w10013735,4np1j7li56,Emily_Honors_Thesis_Part_2,1,234,2020-05-05T21:07:03-07:00,8.1181218624115,5,versionA_stim.csv,IS_JOLVersionA.csv,"ITEM SPECIFIC Version A",OLD,FRUIT,STRAWBERRY,ON2,B,124,103,JOL,User,-,"How likely are you to correctly recall the second item in the pair?|Type your response on a scale from 0-100 and then press Enter.",Study/JOL,"Study Phase2",7746,,,6998,7196,,,,84,0.59
w10013735,4np1j7li56,Emily_Honors_Thesis_Part_2,1,235,2020-05-05T21:07:09-07:00,6.5441751480103,5,versionA_stim.csv,IS_JOLVersionA.csv,"ITEM SPECIFIC Version A",OLD,POP,BALLOON,ON2,B,123,141,JOL,User,-,"How likely are you to correctly recall the second item in the pair?|Type your response on a scale from 0-100 and then press Enter.",Study/JOL,"Study Phase2",6179,,,5594,5800,,,,83,0.419
w10013735,4np1j7li56,Emily_Honors_Thesis_Part_2,1,236,2020-05-05T21:07:18-07:00,8.3700189590454,5,versionA_stim.csv,IS_JOLVersionA.csv,"ITEM SPECIFIC Version A",OLD,NAME,HATE,ON2,U,167,172,JOL,User,-,"How likely are you to correctly recall the second item in the pair?|Type your response on a scale from 0-100 and then press Enter.",Study/JOL,"Study Phase2",8011,,,7255,7331,,,,15,0.325
w10013735,4np1j7li56,Emily_Honors_Thesis_Part_2,1,237,2020-05-05T21:08:14-07:00,56.507692098618,5,versionA_stim.csv,IS_JOLVersionA.csv,"ITEM SPECIFIC Version A",OLD,DOCUMENT,PAPER,ON2,F,109,170,JOL,User,-,"How likely are you to correctly recall the second item in the pair?|Type your response on a scale from 0-100 and then press Enter.",Study/JOL,"Study Phase2",56143,,,55354,55444,,,,68,0.886
w10013735,4np1j7li56,Emily_Honors_Thesis_Part_2,1,238,2020-05-05T21:08:25-07:00,10.401000022888,5,versionA_stim.csv,IS_JOLVersionA.csv,"ITEM SPECIFIC Version A",OLD,SAFETY,SEATBELT,ON2,S,147,114,JOL,User,-,"How likely are you to correctly recall the second item in the pair?|Type your response on a scale from 0-100 and then press Enter.",Study/JOL,"Study Phase2",10034,,,9304,9395,,,,89,0.686
w10013735,4np1j7li56,Emily_Honors_Thesis_Part_2,1,239,2020-05-05T21:08:31-07:00,6.639771938324,5,versionA_stim.csv,IS_JOLVersionA.csv,"ITEM SPECIFIC Version A",OLD,,,,,,0,Instruct,-,3,"Remember to focus on how the two items are unique while you study and make your ratings!",,CHECK5,6253,,,-1,-1,,,,,1
w10013735,4np1j7li56,Emily_Honors_Thesis_Part_2,1,240,2020-05-05T21:12:44-07:00,252.85579705238,5,versionA_stim.csv,IS_JOLVersionA.csv,"ITEM SPECIFIC Version A",OLD,PHONE,COMMUNICATION,ON2,S,149,156,JOL,User,-,"How likely are you to correctly recall the second item in the pair?|Type your response on a scale from 0-100 and then press Enter.",Study/JOL,"Study Phase2",252350,,,251472,251761,,,,74,1
w10013735,4np1j7li56,Emily_Honors_Thesis_Part_2,1,241,2020-05-05T21:13:11-07:00,27.389439821243,5,versionA_stim.csv,IS_JOLVersionA.csv,"ITEM SPECIFIC Version A",OLD,FLEA,TICK,ON2,S,151,171,JOL,User,-,"How likely are you to correctly recall the second item in the pair?|Type your response on a scale from 0-100 and then press Enter.",Study/JOL,"Study Phase2",27017,,,25786,25921,,,,54,0.111
w10013735,4np1j7li56,Emily_Honors_Thesis_Part_2,1,242,2020-05-05T21:13:35-07:00,23.704723119736,5,versionA_stim.csv,IS_JOLVersionA.csv,"ITEM SPECIFIC Version A",OLD,MOAT,CLEAR,ON2,U,169,132,JOL,User,-,"How likely are you to correctly recall the second item in the pair?|Type your response on a scale from 0-100 and then press Enter.",Study/JOL,"Study Phase2",23335,,,22597,22778,,,,44,0.256
w10013735,4np1j7li56,Emily_Honors_Thesis_Part_2,1,243,2020-05-05T21:16:42-07:00,186.36098885536,5,versionA_stim.csv,IS_JOLVersionA.csv,"ITEM SPECIFIC Version A",OLD,WATER,DRINK,ON2,S,143,100,JOL,User,-,"How likely are you to correctly recall the second item in the pair?|Type your response on a scale from 0-100 and then press Enter.",Study/JOL,"Study Phase2",185966,,,185031,185142,,,,98,0.155
w10013735,4np1j7li56,Emily_Honors_Thesis_Part_2,1,244,2020-05-05T21:17:01-07:00,19.32680106163,5,versionA_stim.csv,IS_JOLVersionA.csv,"ITEM SPECIFIC Version A",OLD,FEUD,FIGHT,ON2,F,113,168,JOL,User,-,"How likely are you to correctly recall the second item in the pair?|Type your response on a scale from 0-100 and then press Enter.",Study/JOL,"Study Phase2",18962,,,18061,18193,,,,77,0.137
w10013735,4np1j7li56,Emily_Honors_Thesis_Part_2,1,245,2020-05-05T21:17:11-07:00,10.204702138901,5,versionA_stim.csv,IS_JOLVersionA.csv,"ITEM SPECIFIC Version A",OLD,FISH,SARDINE,ON2,B,130,111,JOL,User,-,"How likely are you to correctly recall the second item in the pair?|Type your response on a scale from 0-100 and then press Enter.",Study/JOL,"Study Phase2",9824,,,8775,8898,,,,56,0.44
w10013735,4np1j7li56,Emily_Honors_Thesis_Part_2,1,246,2020-05-05T21:17:16-07:00,4.5996758937836,5,versionA_stim.csv,IS_JOLVersionA.csv,"ITEM SPECIFIC Version A",OLD,RAZOR,SHAVE,ON2,S,136,131,JOL,User,-,"How likely are you to correctly recall the second item in the pair?|Type your response on a scale from 0-100 and then press Enter.",Study/JOL,"Study Phase2",4241,,,3566,3723,,,,55,1
w10013735,4np1j7li56,Emily_Honors_Thesis_Part_2,1,247,2020-05-05T21:17:47-07:00,31.295234918594,5,versionA_stim.csv,IS_JOLVersionA.csv,"ITEM SPECIFIC Version A",OLD,TANTRUM,TEMPER,ON2,S,154,144,JOL,User,-,"How likely are you to correctly recall the second item in the pair?|Type your response on a scale from 0-100 and then press Enter.",Study/JOL,"Study Phase2",30912,,,30093,30216,,,,58,0.11
w10013735,4np1j7li56,Emily_Honors_Thesis_Part_2,1,248,2020-05-05T21:17:55-07:00,8.1432411670685,5,versionA_stim.csv,IS_JOLVersionA.csv,"ITEM SPECIFIC Version A",OLD,PLANE,AIRCRAFT,ON2,B,129,166,JOL,User,-,"How likely are you to correctly recall the second item in the pair?|Type your response on a scale from 0-100 and then press Enter.",Study/JOL,"Study Phase2",7777,,,7195,7354,,,,62,0.615
w10013735,4np1j7li56,Emily_Honors_Thesis_Part_2,1,249,2020-05-05T21:18:10-07:00,14.836088895798,5,versionA_stim.csv,IS_JOLVersionA.csv,"ITEM SPECIFIC Version A",OLD,LITTER,TRASH,ON2,F,103,160,JOL,User,-,"How likely are you to correctly recall the second item in the pair?|Type your response on a scale from 0-100 and then press Enter.",Study/JOL,"Study Phase2",14455,,,13585,13790,,,,66,0.521
w10013735,4np1j7li56,Emily_Honors_Thesis_Part_2,1,250,2020-05-05T21:18:23-07:00,12.887824058533,5,versionA_stim.csv,IS_JOLVersionA.csv,"ITEM SPECIFIC Version A",OLD,WRIST,BRACELET,ON2,S,140,105,JOL,User,-,"How likely are you to correctly recall the second item in the pair?|Type your response on a scale from 0-100 and then press Enter.",Study/JOL,"Study Phase2",12527,,,12173,12257,,,,47,0.651
w10013735,4np1j7li56,Emily_Honors_Thesis_Part_2,1,251,2020-05-05T21:18:36-07:00,13.241128921509,5,versionA_stim.csv,IS_JOLVersionA.csv,"ITEM SPECIFIC Version A",OLD,SUN,TAN,ON2,S,155,116,JOL,User,-,"How likely are you to correctly recall the second item in the pair?|Type your response on a scale from 0-100 and then press Enter.",Study/JOL,"Study Phase2",12856,,,11540,11902,,,,48,0.323
w10013735,4np1j7li56,Emily_Honors_Thesis_Part_2,1,252,2020-05-05T21:18:45-07:00,8.6416981220245,5,versionA_stim.csv,IS_JOLVersionA.csv,"ITEM SPECIFIC Version A",OLD,FURRY,DOG,ON2,F,102,106,JOL,User,-,"How likely are you to correctly recall the second item in the pair?|Type your response on a scale from 0-100 and then press Enter.",Study/JOL,"Study Phase2",8274,,,7282,7782,,,,42,0.595
w10013735,4np1j7li56,Emily_Honors_Thesis_Part_2,1,253,2020-05-05T21:18:55-07:00,10.11496591568,5,versionA_stim.csv,IS_JOLVersionA.csv,"ITEM SPECIFIC Version A",OLD,ALONE,LONELY,ON2,S,145,136,JOL,User,-,"How likely are you to correctly recall the second item in the pair?|Type your response on a scale from 0-100 and then press Enter.",Study/JOL,"Study Phase2",9705,,,7779,7958,,,,38,0.653
w10013735,4np1j7li56,Emily_Honors_Thesis_Part_2,1,254,2020-05-05T21:19:04-07:00,8.9087600708008,5,versionA_stim.csv,IS_JOLVersionA.csv,"ITEM SPECIFIC Version A",OLD,ADJOURN,END,ON2,F,101,167,JOL,User,-,"How likely are you to correctly recall the second item in the pair?|Type your response on a scale from 0-100 and then press Enter.",Study/JOL,"Study Phase2",8544,,,7637,7805,,,,21,0.535
w10013735,4np1j7li56,Emily_Honors_Thesis_Part_2,1,255,2020-05-05T21:19:24-07:00,20.662806987762,5,versionA_stim.csv,IS_JOLVersionA.csv,"ITEM SPECIFIC Version A",OLD,VEHICLE,CHARM,ON2,U,160,97,JOL,User,-,"How likely are you to correctly recall the second item in the pair?|Type your response on a scale from 0-100 and then press Enter.",Study/JOL,"Study Phase2",20290,,,19409,19514,,,,36,0.843
w10013735,4np1j7li56,Emily_Honors_Thesis_Part_2,1,256,2020-05-05T21:19:36-07:00,11.875213861465,5,versionA_stim.csv,IS_JOLVersionA.csv,"ITEM SPECIFIC Version A",OLD,MULE,DONKEY,ON2,F,108,99,JOL,User,-,"How likely are you to correctly recall the second item in the pair?|Type your response on a scale from 0-100 and then press Enter.",Study/JOL,"Study Phase2",11508,,,9314,9967,,,,41,0.483
w10013735,4np1j7li56,Emily_Honors_Thesis_Part_2,1,257,2020-05-05T21:19:42-07:00,5.8697731494904,5,versionA_stim.csv,IS_JOLVersionA.csv,"ITEM SPECIFIC Version A",OLD,AFFECTION,LOVE,ON2,F,115,145,JOL,User,-,"How likely are you to correctly recall the second item in the pair?|Type your response on a scale from 0-100 and then press Enter.",Study/JOL,"Study Phase2",5500,,,4605,4693,,,,35,1
w10013735,4np1j7li56,Emily_Honors_Thesis_Part_2,1,258,2020-05-05T21:20:56-07:00,73.959488868713,5,versionA_stim.csv,IS_JOLVersionA.csv,"ITEM SPECIFIC Version A",OLD,TRUTH,LIE,ON2,S,148,174,JOL,User,-,"How likely are you to correctly recall the second item in the pair?|Type your response on a scale from 0-100 and then press Enter.",Study/JOL,"Study Phase2",73597,,,72731,72848,,,,37,0.53
w10013735,4np1j7li56,Emily_Honors_Thesis_Part_2,1,259,2020-05-05T21:21:40-07:00,43.756934165955,5,versionA_stim.csv,IS_JOLVersionA.csv,"ITEM SPECIFIC Version A",OLD,BOTH,OUNCE,ON2,U,172,118,JOL,User,-,"How likely are you to correctly recall the second item in the pair?|Type your response on a scale from 0-100 and then press Enter.",Study/JOL,"Study Phase2",43263,,,42421,42547,,,,33,0.106
w10013735,4np1j7li56,Emily_Honors_Thesis_Part_2,1,260,2020-05-05T21:21:58-07:00,18.581942796707,5,versionA_stim.csv,IS_JOLVersionA.csv,"ITEM SPECIFIC Version A",OLD,GONE,AWAY,ON2,S,142,175,JOL,User,-,"How likely are you to correctly recall the second item in the pair?|Type your response on a scale from 0-100 and then press Enter.",Study/JOL,"Study Phase2",18212,,,17733,17852,,,,13,0.13
w10013735,4np1j7li56,Emily_Honors_Thesis_Part_2,1,261,2020-05-05T21:22:16-07:00,17.129062175751,5,versionA_stim.csv,IS_JOLVersionA.csv,"ITEM SPECIFIC Version A",OLD,CAT,PANTHER,ON2,B,126,139,JOL,User,-,"How likely are you to correctly recall the second item in the pair?|Type your response on a scale from 0-100 and then press Enter.",Study/JOL,"Study Phase2",16634,,,15857,16257,,,,51,0.679
w10013735,4np1j7li56,Emily_Honors_Thesis_Part_2,1,262,2020-05-05T21:22:22-07:00,6.5395069122314,5,versionA_stim.csv,IS_JOLVersionA.csv,"ITEM SPECIFIC Version A",OLD,RIGHTS,EQUAL,ON2,S,137,101,JOL,User,-,"How likely are you to correctly recall the second item in the pair?|Type your response on a scale from 0-100 and then press Enter.",Study/JOL,"Study Phase2",6157,,,5801,5897,,,,57,0.516
w10013735,4np1j7li56,Emily_Honors_Thesis_Part_2,1,263,2020-05-05T21:22:35-07:00,12.841160058975,5,versionA_stim.csv,IS_JOLVersionA.csv,"ITEM SPECIFIC Version A",OLD,GIVE,STEAK,ON2,U,158,152,JOL,User,-,"How likely are you to correctly recall the second item in the pair?|Type your response on a scale from 0-100 and then press Enter.",Study/JOL,"Study Phase2",12476,,,11792,11934,,,,20,0.381
w10013735,4np1j7li56,Emily_Honors_Thesis_Part_2,1,264,2020-05-05T21:22:44-07:00,9.0409128665924,5,versionA_stim.csv,IS_JOLVersionA.csv,"ITEM SPECIFIC Version A",OLD,DRY,WET,ON2,S,146,109,JOL,User,-,"How likely are you to correctly recall the second item in the pair?|Type your response on a scale from 0-100 and then press Enter.",Study/JOL,"Study Phase2",8682,,,7483,7920,,,,72,0.682
w10013735,4np1j7li56,Emily_Honors_Thesis_Part_2,1,265,2020-05-05T21:22:52-07:00,8.531289100647,5,versionA_stim.csv,IS_JOLVersionA.csv,"ITEM SPECIFIC Version A",OLD,LISTEN,FICTION,ON2,U,164,164,JOL,User,-,"How likely are you to correctly recall the second item in the pair?|Type your response on a scale from 0-100 and then press Enter.",Study/JOL,"Study Phase2",8156,,,7353,7749,,,,10,0.585
w10013735,4np1j7li56,Emily_Honors_Thesis_Part_2,1,266,2020-05-05T21:23:03-07:00,10.751138925552,5,versionA_stim.csv,IS_JOLVersionA.csv,"ITEM SPECIFIC Version A",OLD,HONEST,TRUTHFUL,ON2,B,133,108,JOL,User,-,"How likely are you to correctly recall the second item in the pair?|Type your response on a scale from 0-100 and then press Enter.",Study/JOL,"Study Phase2",10386,,,9499,9798,,,,52,0.519
w10013735,4np1j7li56,Emily_Honors_Thesis_Part_2,1,267,2020-05-05T21:23:11-07:00,7.7084360122681,5,versionA_stim.csv,IS_JOLVersionA.csv,"ITEM SPECIFIC Version A",OLD,OWN,HAVE,ON2,S,153,143,JOL,User,-,"How likely are you to correctly recall the second item in the pair?|Type your response on a scale from 0-100 and then press Enter.",Study/JOL,"Study Phase2",7230,,,6241,6380,,,,23,0.486
w10013735,4np1j7li56,Emily_Honors_Thesis_Part_2,1,268,2020-05-05T21:23:22-07:00,11.070004940033,5,versionA_stim.csv,IS_JOLVersionA.csv,"ITEM SPECIFIC Version A",OLD,CACTUS,PLANT,ON2,F,98,153,JOL,User,-,"How likely are you to correctly recall the second item in the pair?|Type your response on a scale from 0-100 and then press Enter.",Study/JOL,"Study Phase2",10696,,,9820,9988,,,,14,0.352
w10013735,4np1j7li56,Emily_Honors_Thesis_Part_2,1,269,2020-05-05T21:23:35-07:00,13.174358129501,5,versionA_stim.csv,IS_JOLVersionA.csv,"ITEM SPECIFIC Version A",OLD,LEASE,TOIL,ON2,U,170,120,JOL,User,-,"How likely are you to correctly recall the second item in the pair?|Type your response on a scale from 0-100 and then press Enter.",Study/JOL,"Study Phase2",12800,,,11732,12073,,,,11,0.766
w10013735,4np1j7li56,Emily_Honors_Thesis_Part_2,1,270,2020-05-05T21:23:43-07:00,8.0854239463806,5,versionA_stim.csv,IS_JOLVersionA.csv,"ITEM SPECIFIC Version A",OLD,KEYS,JOKE,ON2,U,165,133,JOL,User,-,"How likely are you to correctly recall the second item in the pair?|Type your response on a scale from 0-100 and then press Enter.",Study/JOL,"Study Phase2",7711,,,7226,7226,,,,9,0.564
w10013735,4np1j7li56,Emily_Honors_Thesis_Part_2,1,271,2020-05-05T21:23:49-07:00,5.3840620517731,5,versionA_stim.csv,IS_JOLVersionA.csv,"ITEM SPECIFIC Version A",OLD,DEAD,COFFIN,ON2,B,128,155,JOL,User,-,"How likely are you to correctly recall the second item in the pair?|Type your response on a scale from 0-100 and then press Enter.",Study/JOL,"Study Phase2",4980,,,4323,4438,,,,88,1
w10013735,4np1j7li56,Emily_Honors_Thesis_Part_2,1,272,2020-05-05T21:23:55-07:00,6.3942840099335,5,versionA_stim.csv,IS_JOLVersionA.csv,"ITEM SPECIFIC Version A",OLD,CRACKLE,ABLE,ON2,U,162,102,JOL,User,-,"How likely are you to correctly recall the second item in the pair?|Type your response on a scale from 0-100 and then press Enter.",Study/JOL,"Study Phase2",6020,,,5459,5510,,,,12,0.5
w10013735,4np1j7li56,Emily_Honors_Thesis_Part_2,1,273,2020-05-05T21:24:06-07:00,10.887988090515,5,versionA_stim.csv,IS_JOLVersionA.csv,"ITEM SPECIFIC Version A",OLD,CHOP,CUT,ON2,F,107,137,JOL,User,-,"How likely are you to correctly recall the second item in the pair?|Type your response on a scale from 0-100 and then press Enter.",Study/JOL,"Study Phase2",10491,,,6929,9776,,,,85,0.717
w10013735,4np1j7li56,Emily_Honors_Thesis_Part_2,1,274,2020-05-05T21:24:15-07:00,9.5047760009766,5,versionA_stim.csv,IS_JOLVersionA.csv,"ITEM SPECIFIC Version A",OLD,MAIN,SCAR,ON2,U,175,113,JOL,User,-,"How likely are you to correctly recall the second item in the pair?|Type your response on a scale from 0-100 and then press Enter.",Study/JOL,"Study Phase2",9132,,,7621,8070,,,,16,0.63
w10013735,4np1j7li56,Emily_Honors_Thesis_Part_2,1,275,2020-05-05T21:24:22-07:00,6.2626068592072,5,versionA_stim.csv,IS_JOLVersionA.csv,"ITEM SPECIFIC Version A",OLD,STAR,ACTRESS,ON2,B,120,142,JOL,User,-,"How likely are you to correctly recall the second item in the pair?|Type your response on a scale from 0-100 and then press Enter.",Study/JOL,"Study Phase2",5891,,,5322,5564,,,,53,1
w10013735,4np1j7li56,Emily_Honors_Thesis_Part_2,1,276,2020-05-05T21:24:32-07:00,10.298934936523,5,versionA_stim.csv,IS_JOLVersionA.csv,"ITEM SPECIFIC Version A",OLD,BAD,VILLAIN,ON2,B,118,161,JOL,User,-,"How likely are you to correctly recall the second item in the pair?|Type your response on a scale from 0-100 and then press Enter.",Study/JOL,"Study Phase2",9925,,,9294,9562,,,,92,0.24
w10013735,4np1j7li56,Emily_Honors_Thesis_Part_2,1,277,2020-05-05T21:24:53-07:00,21.030646085739,5,versionA_stim.csv,IS_JOLVersionA.csv,"ITEM SPECIFIC Version A",OLD,MAZE,ELECTION,ON2,U,159,119,JOL,User,-,"How likely are you to correctly recall the second item in the pair?|Type your response on a scale from 0-100 and then press Enter.",Study/JOL,"Study Phase2",20656,,,19488,19871,,,,29,0.327
w10013735,4np1j7li56,Emily_Honors_Thesis_Part_2,1,278,2020-05-05T21:25:01-07:00,7.6336979866028,5,versionA_stim.csv,IS_JOLVersionA.csv,"ITEM SPECIFIC Version A",OLD,MONEY,BANKER,ON2,B,132,150,JOL,User,-,"How likely are you to correctly recall the second item in the pair?|Type your response on a scale from 0-100 and then press Enter.",Study/JOL,"Study Phase2",7264,,,6020,6544,,,,82,0.622
w10013735,4np1j7li56,Emily_Honors_Thesis_Part_2,1,279,2020-05-05T21:25:20-07:00,18.864623069763,5,versionA_stim.csv,IS_JOLVersionA.csv,"ITEM SPECIFIC Version A",OLD,MIRROR,CHILDREN,ON2,U,174,98,JOL,User,-,"How likely are you to correctly recall the second item in the pair?|Type your response on a scale from 0-100 and then press Enter.",Study/JOL,"Study Phase2",18503,,,17440,17810,,,,28,0.559
w10013735,4np1j7li56,Emily_Honors_Thesis_Part_2,1,280,2020-05-05T21:25:27-07:00,7.6223199367523,5,versionA_stim.csv,IS_JOLVersionA.csv,"ITEM SPECIFIC Version A",OLD,BASEBALL,LEAGUE,ON2,B,131,121,JOL,User,-,"How likely are you to correctly recall the second item in the pair?|Type your response on a scale from 0-100 and then press Enter.",Study/JOL,"Study Phase2",7256,,,6546,6602,,,,65,1
w10013735,4np1j7li56,Emily_Honors_Thesis_Part_2,1,281,2020-05-05T21:25:42-07:00,14.438645124435,5,versionA_stim.csv,IS_JOLVersionA.csv,"ITEM SPECIFIC Version A",OLD,ROD,REEL,ON2,S,150,124,JOL,User,-,"How likely are you to correctly recall the second item in the pair?|Type your response on a scale from 0-100 and then press Enter.",Study/JOL,"Study Phase2",14072,,,13336,13471,,,,45,0.704
w10013735,4np1j7li56,Emily_Honors_Thesis_Part_2,1,282,2020-05-05T21:25:53-07:00,11.090776920319,5,versionA_stim.csv,IS_JOLVersionA.csv,"ITEM SPECIFIC Version A",OLD,SHOELACE,TIE,ON2,F,99,148,JOL,User,-,"How likely are you to correctly recall the second item in the pair?|Type your response on a scale from 0-100 and then press Enter.",Study/JOL,"Study Phase2",10720,,,10087,10178,,,,49,0.426
w10013735,4np1j7li56,Emily_Honors_Thesis_Part_2,1,283,2020-05-05T21:26:09-07:00,16.033467054367,5,versionA_stim.csv,IS_JOLVersionA.csv,"ITEM SPECIFIC Version A",OLD,FUZZY,BANG,ON2,U,168,112,JOL,User,-,"How likely are you to correctly recall the second item in the pair?|Type your response on a scale from 0-100 and then press Enter.",Study/JOL,"Study Phase2",15650,,,14845,15087,,,,16,0.278
w10013735,4np1j7li56,Emily_Honors_Thesis_Part_2,1,284,2020-05-05T21:26:17-07:00,8.5437970161438,5,versionA_stim.csv,IS_JOLVersionA.csv,"ITEM SPECIFIC Version A",OLD,THREAD,THIMBLE,ON2,B,121,159,JOL,User,-,"How likely are you to correctly recall the second item in the pair?|Type your response on a scale from 0-100 and then press Enter.",Study/JOL,"Study Phase2",8172,,,7395,7543,,,,17,0.634
w10013735,4np1j7li56,Emily_Honors_Thesis_Part_2,1,285,2020-05-05T21:26:26-07:00,9.0645430088043,5,versionA_stim.csv,IS_JOLVersionA.csv,"ITEM SPECIFIC Version A",OLD,CAR,WINDSHIELD,ON2,B,117,163,JOL,User,-,"How likely are you to correctly recall the second item in the pair?|Type your response on a scale from 0-100 and then press Enter.",Study/JOL,"Study Phase2",8689,,,8311,8406,,,,46,0.318
w10013735,4np1j7li56,Emily_Honors_Thesis_Part_2,1,286,2020-05-05T21:26:34-07:00,7.9976627826691,5,versionA_stim.csv,IS_JOLVersionA.csv,"ITEM SPECIFIC Version A",OLD,OCTOBER,SPOOKY,Buffer3,Buffer,180,181,JOL,User,-,"How likely are you to correctly recall the second item in the pair?|Type your response on a scale from 0-100 and then press Enter.",Study/JOL,BUFFER4,7618,,,7241,7301,,,,89,0.564
w10013735,4np1j7li56,Emily_Honors_Thesis_Part_2,1,287,2020-05-05T21:26:47-07:00,12.759525060654,5,versionA_stim.csv,IS_JOLVersionA.csv,"ITEM SPECIFIC Version A",OLD,TOOL,SHED,Buffer3,Buffer,178,179,JOL,User,-,"How likely are you to correctly recall the second item in the pair?|Type your response on a scale from 0-100 and then press Enter.",Study/JOL,BUFFER4,12379,,,11980,12092,,,,69,0.726
