Username,ID,ExperimentName,Session,Trial,Date,TimeDif,"Condition Number","Stimuli File","Order File","Condition Description","Condition Notes",Stimuli*Cue,Stimuli*Answer,Stimuli*Shuffle,"Stimuli*Stimuli Notes",Stimuli*Value,Procedure*Item,"Procedure*Trial Type","Procedure*Max Time","Procedure*Min Time",Procedure*Text,"Procedure*Procedure Notes",Procedure*Shuffle,Response*RT,Response*Response,Response*Accuracy,Response*RTfirst,Response*RTlast,Response*strictAcc,Response*lenientAcc,Response*focus,Response*JOL,Response*Focus
5da86d3475d0bc001951ff5c,5y6xdwojf1,Emily_Honors_Thesis_Part_2,1,1,2020-07-20T13:12:18-07:00,34.793061971664,19,versionC_stim_BACKWARD.csv,BACKWARD_IS_JOLVersionD.csv,"BACKWARD IS VERSION C",NEW,,,,,,0,Instruct,-,10,"In this section, you will be presented with a series of word pairs. As you study, you will be asked to rate your ability to remember the second item in the pair if you were only shown the first at test. You will make these ratings using a 0 to 100 Scale.",,Instruct13,34458,,,-1,-1,,,,,1
5da86d3475d0bc001951ff5c,5y6xdwojf1,Emily_Honors_Thesis_Part_2,1,2,2020-07-20T13:12:33-07:00,14.373889923096,19,versionC_stim_BACKWARD.csv,BACKWARD_IS_JOLVersionD.csv,"BACKWARD IS VERSION C",NEW,,,,,,0,Instruct,-,10,"For example, if you are given the pair CAT - DOG, a rating of 0 indicates that you would not remember DOG at test, while a rating of 100 indicates full certainty that you would remember the word DOG at test.",,Instruct14,13975,,,-1,-1,,,,,1
5da86d3475d0bc001951ff5c,5y6xdwojf1,Emily_Honors_Thesis_Part_2,1,3,2020-07-20T13:13:01-07:00,28.923963069916,19,versionC_stim_BACKWARD.csv,BACKWARD_IS_JOLVersionD.csv,"BACKWARD IS VERSION C",NEW,,,,,,0,Instruct,-,10,"When making these ratings, it is criticial that you use the full range of the scale. You will be disqualified for only giving ratings of 0 or 100! After making your rating, press Enter to advance to the next pair.",,Instruct15,28471,,,-1,-1,,,,,1
5da86d3475d0bc001951ff5c,5y6xdwojf1,Emily_Honors_Thesis_Part_2,1,4,2020-07-20T13:13:19-07:00,17.421915054321,19,versionC_stim_BACKWARD.csv,BACKWARD_IS_JOLVersionD.csv,"BACKWARD IS VERSION C",NEW,,,,,,0,Instruct,-,15,"As you study and make your ratings, please think about the unique featues of each item and how the two concepts are DIFFERENT from each other. For example, if you see the pair TURTLE-CAT, think about how TURTLES have shells and are reptiles, while CATS are mammals and have fur.",,Instruct19,17019,,,-1,-1,,,,,1
5da86d3475d0bc001951ff5c,5y6xdwojf1,Emily_Honors_Thesis_Part_2,1,5,2020-07-20T13:14:41-07:00,82.130748987198,19,versionC_stim_BACKWARD.csv,BACKWARD_IS_JOLVersionD.csv,"BACKWARD IS VERSION C",NEW,,,,,,0,FreeRecall,-,10,"What you should think about as you study each item pair? Type your response in the box below.",,CHECK1,81604,"how they are different to one another",0,9105,79752,0,0,,,0.548
5da86d3475d0bc001951ff5c,5y6xdwojf1,Emily_Honors_Thesis_Part_2,1,6,2020-07-20T13:14:51-07:00,10.216898918152,19,versionC_stim_BACKWARD.csv,BACKWARD_IS_JOLVersionD.csv,"BACKWARD IS VERSION C",NEW,,,,,,0,Instruct,-,5,"You will now complete a practice session. Please study the following items and rate your ability to remember them. Remember to think about how the two items are unique!",,Instruct17,9800,,,-1,-1,,,,,1
5da86d3475d0bc001951ff5c,5y6xdwojf1,Emily_Honors_Thesis_Part_2,1,7,2020-07-20T13:15:25-07:00,34.267469167709,19,versionC_stim_BACKWARD.csv,BACKWARD_IS_JOLVersionD.csv,"BACKWARD IS VERSION C",NEW,DISBELIEVE,SKEPTIC,PRACTICE,PRACTICE,186,186,JOL,User,-,"How likely are you to correctly recall the second item in the pair?|Type your response on a scale from 0-100 and then press Enter.",Study/JOL,PRACTICE,33883,,,31716,32115,,,,100,1
5da86d3475d0bc001951ff5c,5y6xdwojf1,Emily_Honors_Thesis_Part_2,1,8,2020-07-20T13:16:16-07:00,50.46838593483,19,versionC_stim_BACKWARD.csv,BACKWARD_IS_JOLVersionD.csv,"BACKWARD IS VERSION C",NEW,FASHION,MODEL,PRACTICE,PRACTICE,190,187,JOL,User,-,"How likely are you to correctly recall the second item in the pair?|Type your response on a scale from 0-100 and then press Enter.",Study/JOL,PRACTICE,49946,,,48886,49378,,,,100,1
5da86d3475d0bc001951ff5c,5y6xdwojf1,Emily_Honors_Thesis_Part_2,1,9,2020-07-20T13:16:24-07:00,7.592071056366,19,versionC_stim_BACKWARD.csv,BACKWARD_IS_JOLVersionD.csv,"BACKWARD IS VERSION C",NEW,PADDLE,ROW,PRACTICE,PRACTICE,184,183,JOL,User,-,"How likely are you to correctly recall the second item in the pair?|Type your response on a scale from 0-100 and then press Enter.",Study/JOL,PRACTICE,7200,,,5419,5608,,,,80,1
5da86d3475d0bc001951ff5c,5y6xdwojf1,Emily_Honors_Thesis_Part_2,1,10,2020-07-20T13:16:30-07:00,6.744283914566,19,versionC_stim_BACKWARD.csv,BACKWARD_IS_JOLVersionD.csv,"BACKWARD IS VERSION C",NEW,CHIME,MUSIC,PRACTICE,PRACTICE,188,189,JOL,User,-,"How likely are you to correctly recall the second item in the pair?|Type your response on a scale from 0-100 and then press Enter.",Study/JOL,PRACTICE,6370,,,5548,5747,,,,90,1
5da86d3475d0bc001951ff5c,5y6xdwojf1,Emily_Honors_Thesis_Part_2,1,11,2020-07-20T13:16:34-07:00,4.1479198932648,19,versionC_stim_BACKWARD.csv,BACKWARD_IS_JOLVersionD.csv,"BACKWARD IS VERSION C",NEW,BEHAVIOR,SOCIAL,PRACTICE,PRACTICE,189,182,JOL,User,-,"How likely are you to correctly recall the second item in the pair?|Type your response on a scale from 0-100 and then press Enter.",Study/JOL,PRACTICE,3769,,,2713,3106,,,,100,1
5da86d3475d0bc001951ff5c,5y6xdwojf1,Emily_Honors_Thesis_Part_2,1,12,2020-07-20T13:16:42-07:00,7.7055552005768,19,versionC_stim_BACKWARD.csv,BACKWARD_IS_JOLVersionD.csv,"BACKWARD IS VERSION C",NEW,AARDVARK,ZOO,PRACTICE,PRACTICE,181,188,JOL,User,-,"How likely are you to correctly recall the second item in the pair?|Type your response on a scale from 0-100 and then press Enter.",Study/JOL,PRACTICE,7327,,,6067,6742,,,,100,1
5da86d3475d0bc001951ff5c,5y6xdwojf1,Emily_Honors_Thesis_Part_2,1,13,2020-07-20T13:16:48-07:00,6.2080979347229,19,versionC_stim_BACKWARD.csv,BACKWARD_IS_JOLVersionD.csv,"BACKWARD IS VERSION C",NEW,HAM,BONE,PRACTICE,PRACTICE,183,184,JOL,User,-,"How likely are you to correctly recall the second item in the pair?|Type your response on a scale from 0-100 and then press Enter.",Study/JOL,PRACTICE,5792,,,5121,5328,,,,70,1
5da86d3475d0bc001951ff5c,5y6xdwojf1,Emily_Honors_Thesis_Part_2,1,14,2020-07-20T13:16:57-07:00,8.7592449188232,19,versionC_stim_BACKWARD.csv,BACKWARD_IS_JOLVersionD.csv,"BACKWARD IS VERSION C",NEW,DEAF,MUTE,PRACTICE,PRACTICE,182,190,JOL,User,-,"How likely are you to correctly recall the second item in the pair?|Type your response on a scale from 0-100 and then press Enter.",Study/JOL,PRACTICE,8366,,,7634,8077,,,,100,1
5da86d3475d0bc001951ff5c,5y6xdwojf1,Emily_Honors_Thesis_Part_2,1,15,2020-07-20T13:17:02-07:00,4.6284351348877,19,versionC_stim_BACKWARD.csv,BACKWARD_IS_JOLVersionD.csv,"BACKWARD IS VERSION C",NEW,HINGE,SWING,PRACTICE,PRACTICE,185,191,JOL,User,-,"How likely are you to correctly recall the second item in the pair?|Type your response on a scale from 0-100 and then press Enter.",Study/JOL,PRACTICE,4229,,,3517,3740,,,,70,1
5da86d3475d0bc001951ff5c,5y6xdwojf1,Emily_Honors_Thesis_Part_2,1,16,2020-07-20T13:17:09-07:00,7.5418829917908,19,versionC_stim_BACKWARD.csv,BACKWARD_IS_JOLVersionD.csv,"BACKWARD IS VERSION C",NEW,CHOCOLATE,BAR,PRACTICE,PRACTICE,187,185,JOL,User,-,"How likely are you to correctly recall the second item in the pair?|Type your response on a scale from 0-100 and then press Enter.",Study/JOL,PRACTICE,6139,,,4345,4749,,,,100,1
5da86d3475d0bc001951ff5c,5y6xdwojf1,Emily_Honors_Thesis_Part_2,1,17,2020-07-20T13:17:16-07:00,6.8703768253326,19,versionC_stim_BACKWARD.csv,BACKWARD_IS_JOLVersionD.csv,"BACKWARD IS VERSION C",NEW,,,,,,0,Instruct,User,-,"You have completed this section. Please press Enter to continue.",,Instruct18,5488,,,-1,-1,,,,,1
5da86d3475d0bc001951ff5c,5y6xdwojf1,Emily_Honors_Thesis_Part_2,1,18,2020-07-20T13:17:19-07:00,3.012825012207,19,versionC_stim_BACKWARD.csv,BACKWARD_IS_JOLVersionD.csv,"BACKWARD IS VERSION C",NEW,,,,,,0,Instruct,User,-,"You will now begin the study. Press Enter when you are ready to begin.",,Instruct16,2630,,,-1,-1,,,,,1
5da86d3475d0bc001951ff5c,5y6xdwojf1,Emily_Honors_Thesis_Part_2,1,19,2020-07-20T13:17:32-07:00,13.20672917366,19,versionC_stim_BACKWARD.csv,BACKWARD_IS_JOLVersionD.csv,"BACKWARD IS VERSION C",NEW,WEAKS,DAYS,Buffer3,Buffer,176,94,JOL,User,-,"How likely are you to correctly recall the second item in the pair?|Type your response on a scale from 0-100 and then press Enter.",Study/JOL,BUFFER,12698,,,11950,12124,,,,70,1
5da86d3475d0bc001951ff5c,5y6xdwojf1,Emily_Honors_Thesis_Part_2,1,20,2020-07-20T13:17:51-07:00,18.953724861145,19,versionC_stim_BACKWARD.csv,BACKWARD_IS_JOLVersionD.csv,"BACKWARD IS VERSION C",NEW,YEAR,MONTH,Buffer3,Buffer,177,92,JOL,User,-,"How likely are you to correctly recall the second item in the pair?|Type your response on a scale from 0-100 and then press Enter.",Study/JOL,BUFFER,18529,,,17748,18108,,,,100,1
5da86d3475d0bc001951ff5c,5y6xdwojf1,Emily_Honors_Thesis_Part_2,1,21,2020-07-20T13:17:58-07:00,7.043338060379,19,versionC_stim_BACKWARD.csv,BACKWARD_IS_JOLVersionD.csv,"BACKWARD IS VERSION C",NEW,FISH,SHRIMP,Buffer3,Buffer,93,95,JOL,User,-,"How likely are you to correctly recall the second item in the pair?|Type your response on a scale from 0-100 and then press Enter.",Study/JOL,BUFFER,6652,,,6140,6299,,,,80,1
5da86d3475d0bc001951ff5c,5y6xdwojf1,Emily_Honors_Thesis_Part_2,1,22,2020-07-20T13:18:02-07:00,3.7741379737854,19,versionC_stim_BACKWARD.csv,BACKWARD_IS_JOLVersionD.csv,"BACKWARD IS VERSION C",NEW,SPOOKY,OCTOBER,Buffer3,Buffer,180,96,JOL,User,-,"How likely are you to correctly recall the second item in the pair?|Type your response on a scale from 0-100 and then press Enter.",Study/JOL,BUFFER,3391,,,2659,3023,,,,100,1
5da86d3475d0bc001951ff5c,5y6xdwojf1,Emily_Honors_Thesis_Part_2,1,23,2020-07-20T13:18:09-07:00,6.4292180538177,19,versionC_stim_BACKWARD.csv,BACKWARD_IS_JOLVersionD.csv,"BACKWARD IS VERSION C",NEW,MARCH,SPRING,Buffer3,Buffer,179,93,JOL,User,-,"How likely are you to correctly recall the second item in the pair?|Type your response on a scale from 0-100 and then press Enter.",Study/JOL,BUFFER,6049,,,5445,5819,,,,100,1
5da86d3475d0bc001951ff5c,5y6xdwojf1,Emily_Honors_Thesis_Part_2,1,24,2020-07-20T13:18:14-07:00,4.9967889785767,19,versionC_stim_BACKWARD.csv,BACKWARD_IS_JOLVersionD.csv,"BACKWARD IS VERSION C",NEW,SHAVE,RAZOR,ON2,S,136,138,JOL,User,-,"How likely are you to correctly recall the second item in the pair?|Type your response on a scale from 0-100 and then press Enter.",Study/JOL,"Study Phase",4637,,,3989,4363,,,,100,1
5da86d3475d0bc001951ff5c,5y6xdwojf1,Emily_Honors_Thesis_Part_2,1,25,2020-07-20T13:19:07-07:00,53.323483943939,19,versionC_stim_BACKWARD.csv,BACKWARD_IS_JOLVersionD.csv,"BACKWARD IS VERSION C",NEW,PENGUIN,BIRD,ON2,F,119,108,JOL,User,-,"How likely are you to correctly recall the second item in the pair?|Type your response on a scale from 0-100 and then press Enter.",Study/JOL,"Study Phase",52733,,,51801,52447,,,,100,0.532
5da86d3475d0bc001951ff5c,5y6xdwojf1,Emily_Honors_Thesis_Part_2,1,26,2020-07-20T13:19:10-07:00,3.5216269493103,19,versionC_stim_BACKWARD.csv,BACKWARD_IS_JOLVersionD.csv,"BACKWARD IS VERSION C",NEW,BREAKABLE,GLASS,ON2,F,127,164,JOL,User,-,"How likely are you to correctly recall the second item in the pair?|Type your response on a scale from 0-100 and then press Enter.",Study/JOL,"Study Phase",3013,,,2504,2637,,,,80,1
5da86d3475d0bc001951ff5c,5y6xdwojf1,Emily_Honors_Thesis_Part_2,1,27,2020-07-20T13:19:16-07:00,5.3989272117615,19,versionC_stim_BACKWARD.csv,BACKWARD_IS_JOLVersionD.csv,"BACKWARD IS VERSION C",NEW,FLIP,TURN,ON2,F,116,115,JOL,User,-,"How likely are you to correctly recall the second item in the pair?|Type your response on a scale from 0-100 and then press Enter.",Study/JOL,"Study Phase",5023,,,4467,4646,,,,70,1
5da86d3475d0bc001951ff5c,5y6xdwojf1,Emily_Honors_Thesis_Part_2,1,28,2020-07-20T13:19:23-07:00,7.5943319797516,19,versionC_stim_BACKWARD.csv,BACKWARD_IS_JOLVersionD.csv,"BACKWARD IS VERSION C",NEW,SHAKE,SHELL,ON2,U,163,131,JOL,User,-,"How likely are you to correctly recall the second item in the pair?|Type your response on a scale from 0-100 and then press Enter.",Study/JOL,"Study Phase",7189,,,4856,5404,,,,50,1
5da86d3475d0bc001951ff5c,5y6xdwojf1,Emily_Honors_Thesis_Part_2,1,29,2020-07-20T13:19:31-07:00,7.9235439300537,19,versionC_stim_BACKWARD.csv,BACKWARD_IS_JOLVersionD.csv,"BACKWARD IS VERSION C",NEW,FIGHT,FEUD,ON2,B,113,176,JOL,User,-,"How likely are you to correctly recall the second item in the pair?|Type your response on a scale from 0-100 and then press Enter.",Study/JOL,"Study Phase",7539,,,6686,7234,,,,100,1
5da86d3475d0bc001951ff5c,5y6xdwojf1,Emily_Honors_Thesis_Part_2,1,30,2020-07-20T13:19:39-07:00,7.3374559879303,19,versionC_stim_BACKWARD.csv,BACKWARD_IS_JOLVersionD.csv,"BACKWARD IS VERSION C",NEW,TIE,SHOELACE,ON2,B,99,136,JOL,User,-,"How likely are you to correctly recall the second item in the pair?|Type your response on a scale from 0-100 and then press Enter.",Study/JOL,"Study Phase",6928,,,5684,6078,,,,100,1
5da86d3475d0bc001951ff5c,5y6xdwojf1,Emily_Honors_Thesis_Part_2,1,31,2020-07-20T13:19:43-07:00,4.5055730342865,19,versionC_stim_BACKWARD.csv,BACKWARD_IS_JOLVersionD.csv,"BACKWARD IS VERSION C",NEW,SIGN,LOAN,ON2,U,171,110,JOL,User,-,"How likely are you to correctly recall the second item in the pair?|Type your response on a scale from 0-100 and then press Enter.",Study/JOL,"Study Phase",3968,,,3307,3584,,,,50,1
5da86d3475d0bc001951ff5c,5y6xdwojf1,Emily_Honors_Thesis_Part_2,1,32,2020-07-20T13:19:48-07:00,5.1273610591888,19,versionC_stim_BACKWARD.csv,BACKWARD_IS_JOLVersionD.csv,"BACKWARD IS VERSION C",NEW,CLOTHES,CAKE,ON2,U,166,124,JOL,User,-,"How likely are you to correctly recall the second item in the pair?|Type your response on a scale from 0-100 and then press Enter.",Study/JOL,"Study Phase",4598,,,3942,4151,,,,40,1
5da86d3475d0bc001951ff5c,5y6xdwojf1,Emily_Honors_Thesis_Part_2,1,33,2020-07-20T13:19:54-07:00,6.1874208450317,19,versionC_stim_BACKWARD.csv,BACKWARD_IS_JOLVersionD.csv,"BACKWARD IS VERSION C",NEW,RED,CHERRY,ON2,B,104,172,JOL,User,-,"How likely are you to correctly recall the second item in the pair?|Type your response on a scale from 0-100 and then press Enter.",Study/JOL,"Study Phase",4737,,,4115,4508,,,,100,1
5da86d3475d0bc001951ff5c,5y6xdwojf1,Emily_Honors_Thesis_Part_2,1,34,2020-07-20T13:19:58-07:00,3.8790259361267,19,versionC_stim_BACKWARD.csv,BACKWARD_IS_JOLVersionD.csv,"BACKWARD IS VERSION C",NEW,EAT,DINE,ON2,B,111,106,JOL,User,-,"How likely are you to correctly recall the second item in the pair?|Type your response on a scale from 0-100 and then press Enter.",Study/JOL,"Study Phase",3455,,,2837,3229,,,,100,1
5da86d3475d0bc001951ff5c,5y6xdwojf1,Emily_Honors_Thesis_Part_2,1,35,2020-07-20T13:20:04-07:00,5.9892420768738,19,versionC_stim_BACKWARD.csv,BACKWARD_IS_JOLVersionD.csv,"BACKWARD IS VERSION C",NEW,THIMBLE,THREAD,ON2,F,121,128,JOL,User,-,"How likely are you to correctly recall the second item in the pair?|Type your response on a scale from 0-100 and then press Enter.",Study/JOL,"Study Phase",5590,,,4737,5110,,,,100,1
5da86d3475d0bc001951ff5c,5y6xdwojf1,Emily_Honors_Thesis_Part_2,1,36,2020-07-20T13:20:10-07:00,5.7357940673828,19,versionC_stim_BACKWARD.csv,BACKWARD_IS_JOLVersionD.csv,"BACKWARD IS VERSION C",NEW,PLANT,CACTUS,ON2,B,98,119,JOL,User,-,"How likely are you to correctly recall the second item in the pair?|Type your response on a scale from 0-100 and then press Enter.",Study/JOL,"Study Phase",4327,,,3800,4006,,,,80,1
5da86d3475d0bc001951ff5c,5y6xdwojf1,Emily_Honors_Thesis_Part_2,1,37,2020-07-20T13:20:16-07:00,5.7455520629883,19,versionC_stim_BACKWARD.csv,BACKWARD_IS_JOLVersionD.csv,"BACKWARD IS VERSION C",NEW,CLEAR,MOAT,ON2,U,169,126,JOL,User,-,"How likely are you to correctly recall the second item in the pair?|Type your response on a scale from 0-100 and then press Enter.",Study/JOL,"Study Phase",5356,,,4629,4945,,,,40,1
5da86d3475d0bc001951ff5c,5y6xdwojf1,Emily_Honors_Thesis_Part_2,1,38,2020-07-20T13:20:22-07:00,5.7169139385223,19,versionC_stim_BACKWARD.csv,BACKWARD_IS_JOLVersionD.csv,"BACKWARD IS VERSION C",NEW,OBTAIN,MEAT,ON2,U,161,169,JOL,User,-,"How likely are you to correctly recall the second item in the pair?|Type your response on a scale from 0-100 and then press Enter.",Study/JOL,"Study Phase",5324,,,4766,5004,,,,40,1
5da86d3475d0bc001951ff5c,5y6xdwojf1,Emily_Honors_Thesis_Part_2,1,39,2020-07-20T13:20:26-07:00,4.5600910186768,19,versionC_stim_BACKWARD.csv,BACKWARD_IS_JOLVersionD.csv,"BACKWARD IS VERSION C",NEW,BALLOON,POP,ON2,F,123,142,JOL,User,-,"How likely are you to correctly recall the second item in the pair?|Type your response on a scale from 0-100 and then press Enter.",Study/JOL,"Study Phase",4178,,,3704,3862,,,,80,1
5da86d3475d0bc001951ff5c,5y6xdwojf1,Emily_Honors_Thesis_Part_2,1,40,2020-07-20T13:20:31-07:00,4.5023438930511,19,versionC_stim_BACKWARD.csv,BACKWARD_IS_JOLVersionD.csv,"BACKWARD IS VERSION C",NEW,COMMUNICATION,PHONE,ON2,S,149,168,JOL,User,-,"How likely are you to correctly recall the second item in the pair?|Type your response on a scale from 0-100 and then press Enter.",Study/JOL,"Study Phase",4108,,,3364,3801,,,,100,1
5da86d3475d0bc001951ff5c,5y6xdwojf1,Emily_Honors_Thesis_Part_2,1,41,2020-07-20T13:20:34-07:00,3.4477980136871,19,versionC_stim_BACKWARD.csv,BACKWARD_IS_JOLVersionD.csv,"BACKWARD IS VERSION C",NEW,TICK,FLEA,ON2,S,151,163,JOL,User,-,"How likely are you to correctly recall the second item in the pair?|Type your response on a scale from 0-100 and then press Enter.",Study/JOL,"Study Phase",3049,,,2143,2542,,,,100,1
5da86d3475d0bc001951ff5c,5y6xdwojf1,Emily_Honors_Thesis_Part_2,1,42,2020-07-20T13:20:42-07:00,7.844938993454,19,versionC_stim_BACKWARD.csv,BACKWARD_IS_JOLVersionD.csv,"BACKWARD IS VERSION C",NEW,LOVE,AFFECTION,ON2,B,115,165,JOL,User,-,"How likely are you to correctly recall the second item in the pair?|Type your response on a scale from 0-100 and then press Enter.",Study/JOL,"Study Phase",7333,,,6742,7087,,,,100,1
5da86d3475d0bc001951ff5c,5y6xdwojf1,Emily_Honors_Thesis_Part_2,1,43,2020-07-20T13:20:50-07:00,8.3144221305847,19,versionC_stim_BACKWARD.csv,BACKWARD_IS_JOLVersionD.csv,"BACKWARD IS VERSION C",NEW,WET,DRY,ON2,S,146,109,JOL,User,-,"How likely are you to correctly recall the second item in the pair?|Type your response on a scale from 0-100 and then press Enter.",Study/JOL,"Study Phase",7680,,,7076,7418,,,,100,1
5da86d3475d0bc001951ff5c,5y6xdwojf1,Emily_Honors_Thesis_Part_2,1,44,2020-07-20T13:20:53-07:00,2.4324769973755,19,versionC_stim_BACKWARD.csv,BACKWARD_IS_JOLVersionD.csv,"BACKWARD IS VERSION C",NEW,NOISE,LOUD,ON2,S,152,154,JOL,User,-,"How likely are you to correctly recall the second item in the pair?|Type your response on a scale from 0-100 and then press Enter.",Study/JOL,"Study Phase",2010,,,1405,1758,,,,100,1
5da86d3475d0bc001951ff5c,5y6xdwojf1,Emily_Honors_Thesis_Part_2,1,45,2020-07-20T13:21:00-07:00,7.061136007309,19,versionC_stim_BACKWARD.csv,BACKWARD_IS_JOLVersionD.csv,"BACKWARD IS VERSION C",NEW,END,ADJOURN,ON2,B,101,129,JOL,User,-,"How likely are you to correctly recall the second item in the pair?|Type your response on a scale from 0-100 and then press Enter.",Study/JOL,"Study Phase",6613,,,6082,6246,,,,80,1
5da86d3475d0bc001951ff5c,5y6xdwojf1,Emily_Honors_Thesis_Part_2,1,46,2020-07-20T13:21:06-07:00,6.0886368751526,19,versionC_stim_BACKWARD.csv,BACKWARD_IS_JOLVersionD.csv,"BACKWARD IS VERSION C",NEW,GAME,CLUE,ON2,B,97,141,JOL,User,-,"How likely are you to correctly recall the second item in the pair?|Type your response on a scale from 0-100 and then press Enter.",Study/JOL,"Study Phase",5686,,,5143,5302,,,,80,1
5da86d3475d0bc001951ff5c,5y6xdwojf1,Emily_Honors_Thesis_Part_2,1,47,2020-07-20T13:21:10-07:00,4.2538340091705,19,versionC_stim_BACKWARD.csv,BACKWARD_IS_JOLVersionD.csv,"BACKWARD IS VERSION C",NEW,COFFIN,DEAD,ON2,F,128,104,JOL,User,-,"How likely are you to correctly recall the second item in the pair?|Type your response on a scale from 0-100 and then press Enter.",Study/JOL,"Study Phase",3825,,,3212,3573,,,,100,1
5da86d3475d0bc001951ff5c,5y6xdwojf1,Emily_Honors_Thesis_Part_2,1,48,2020-07-20T13:21:16-07:00,5.4606039524078,19,versionC_stim_BACKWARD.csv,BACKWARD_IS_JOLVersionD.csv,"BACKWARD IS VERSION C",NEW,CLOTH,STRETCH,ON2,U,157,111,JOL,User,-,"How likely are you to correctly recall the second item in the pair?|Type your response on a scale from 0-100 and then press Enter.",Study/JOL,"Study Phase",5048,,,4512,4677,,,,80,1
5da86d3475d0bc001951ff5c,5y6xdwojf1,Emily_Honors_Thesis_Part_2,1,49,2020-07-20T13:21:20-07:00,4.9296991825104,19,versionC_stim_BACKWARD.csv,BACKWARD_IS_JOLVersionD.csv,"BACKWARD IS VERSION C",NEW,DRINK,WATER,ON2,S,143,174,JOL,User,-,"How likely are you to correctly recall the second item in the pair?|Type your response on a scale from 0-100 and then press Enter.",Study/JOL,"Study Phase",4350,,,3638,3991,,,,100,1
5da86d3475d0bc001951ff5c,5y6xdwojf1,Emily_Honors_Thesis_Part_2,1,50,2020-07-20T13:21:26-07:00,5.2023658752441,19,versionC_stim_BACKWARD.csv,BACKWARD_IS_JOLVersionD.csv,"BACKWARD IS VERSION C",NEW,SMELL,INCENSE,ON2,B,110,102,JOL,User,-,"How likely are you to correctly recall the second item in the pair?|Type your response on a scale from 0-100 and then press Enter.",Study/JOL,"Study Phase",4711,,,4176,4345,,,,70,1
5da86d3475d0bc001951ff5c,5y6xdwojf1,Emily_Honors_Thesis_Part_2,1,51,2020-07-20T13:21:32-07:00,6.2329869270325,19,versionC_stim_BACKWARD.csv,BACKWARD_IS_JOLVersionD.csv,"BACKWARD IS VERSION C",NEW,ACTRESS,STAR,ON2,F,120,120,JOL,User,-,"How likely are you to correctly recall the second item in the pair?|Type your response on a scale from 0-100 and then press Enter.",Study/JOL,"Study Phase",5605,,,5128,5276,,,,80,1
5da86d3475d0bc001951ff5c,5y6xdwojf1,Emily_Honors_Thesis_Part_2,1,52,2020-07-20T13:21:35-07:00,3.1971070766449,19,versionC_stim_BACKWARD.csv,BACKWARD_IS_JOLVersionD.csv,"BACKWARD IS VERSION C",NEW,CAR,DRIVER,ON2,B,106,133,JOL,User,-,"How likely are you to correctly recall the second item in the pair?|Type your response on a scale from 0-100 and then press Enter.",Study/JOL,"Study Phase",2827,,,2246,2596,,,,100,1
5da86d3475d0bc001951ff5c,5y6xdwojf1,Emily_Honors_Thesis_Part_2,1,53,2020-07-20T13:21:40-07:00,4.53706407547,19,versionC_stim_BACKWARD.csv,BACKWARD_IS_JOLVersionD.csv,"BACKWARD IS VERSION C",NEW,BRAWL,FIGHT,ON2,F,135,152,JOL,User,-,"How likely are you to correctly recall the second item in the pair?|Type your response on a scale from 0-100 and then press Enter.",Study/JOL,"Study Phase",3942,,,3305,3682,,,,100,1
5da86d3475d0bc001951ff5c,5y6xdwojf1,Emily_Honors_Thesis_Part_2,1,54,2020-07-20T13:21:42-07:00,2.4050760269165,19,versionC_stim_BACKWARD.csv,BACKWARD_IS_JOLVersionD.csv,"BACKWARD IS VERSION C",NEW,TRUTHFUL,HONEST,ON2,F,133,170,JOL,User,-,"How likely are you to correctly recall the second item in the pair?|Type your response on a scale from 0-100 and then press Enter.",Study/JOL,"Study Phase",2024,,,1394,1758,,,,100,1
5da86d3475d0bc001951ff5c,5y6xdwojf1,Emily_Honors_Thesis_Part_2,1,55,2020-07-20T13:21:45-07:00,3.307785987854,19,versionC_stim_BACKWARD.csv,BACKWARD_IS_JOLVersionD.csv,"BACKWARD IS VERSION C",NEW,JAR,MASON,ON2,S,138,112,JOL,User,-,"How likely are you to correctly recall the second item in the pair?|Type your response on a scale from 0-100 and then press Enter.",Study/JOL,"Study Phase",2890,,,2362,2576,,,,80,1
5da86d3475d0bc001951ff5c,5y6xdwojf1,Emily_Honors_Thesis_Part_2,1,56,2020-07-20T13:21:48-07:00,2.8735709190369,19,versionC_stim_BACKWARD.csv,BACKWARD_IS_JOLVersionD.csv,"BACKWARD IS VERSION C",NEW,BANKER,MONEY,ON2,F,132,148,JOL,User,-,"How likely are you to correctly recall the second item in the pair?|Type your response on a scale from 0-100 and then press Enter.",Study/JOL,"Study Phase",2367,,,1721,2100,,,,100,1
5da86d3475d0bc001951ff5c,5y6xdwojf1,Emily_Honors_Thesis_Part_2,1,57,2020-07-20T13:21:55-07:00,7.0535809993744,19,versionC_stim_BACKWARD.csv,BACKWARD_IS_JOLVersionD.csv,"BACKWARD IS VERSION C",NEW,ELECTION,MAZE,ON2,U,159,151,JOL,User,-,"How likely are you to correctly recall the second item in the pair?|Type your response on a scale from 0-100 and then press Enter.",Study/JOL,"Study Phase",6677,,,6181,6316,,,,50,1
5da86d3475d0bc001951ff5c,5y6xdwojf1,Emily_Honors_Thesis_Part_2,1,58,2020-07-20T13:22:01-07:00,5.6447479724884,19,versionC_stim_BACKWARD.csv,BACKWARD_IS_JOLVersionD.csv,"BACKWARD IS VERSION C",NEW,DOG,FURRY,ON2,B,102,157,JOL,User,-,"How likely are you to correctly recall the second item in the pair?|Type your response on a scale from 0-100 and then press Enter.",Study/JOL,"Study Phase",5111,,,4649,4772,,,,60,1
5da86d3475d0bc001951ff5c,5y6xdwojf1,Emily_Honors_Thesis_Part_2,1,59,2020-07-20T13:22:05-07:00,4.3920660018921,19,versionC_stim_BACKWARD.csv,BACKWARD_IS_JOLVersionD.csv,"BACKWARD IS VERSION C",NEW,,,,,,0,Instruct,-,3,"Remember to focus on how the two items are unique while you study and make your ratings!",,CHECK2,3975,,,-1,-1,,,,,1
5da86d3475d0bc001951ff5c,5y6xdwojf1,Emily_Honors_Thesis_Part_2,1,60,2020-07-20T13:22:16-07:00,10.83979010582,19,versionC_stim_BACKWARD.csv,BACKWARD_IS_JOLVersionD.csv,"BACKWARD IS VERSION C",NEW,PAPER,DOCUMENT,ON2,B,109,140,JOL,User,-,"How likely are you to correctly recall the second item in the pair?|Type your response on a scale from 0-100 and then press Enter.",Study/JOL,"Study Phase",10386,,,8347,8872,,,,100,1
5da86d3475d0bc001951ff5c,5y6xdwojf1,Emily_Honors_Thesis_Part_2,1,61,2020-07-20T13:22:21-07:00,4.8059599399567,19,versionC_stim_BACKWARD.csv,BACKWARD_IS_JOLVersionD.csv,"BACKWARD IS VERSION C",NEW,MAROON,JUSTICE,ON2,U,156,139,JOL,User,-,"How likely are you to correctly recall the second item in the pair?|Type your response on a scale from 0-100 and then press Enter.",Study/JOL,"Study Phase",4325,,,3798,4006,,,,40,1
5da86d3475d0bc001951ff5c,5y6xdwojf1,Emily_Honors_Thesis_Part_2,1,62,2020-07-20T13:22:24-07:00,2.9286420345306,19,versionC_stim_BACKWARD.csv,BACKWARD_IS_JOLVersionD.csv,"BACKWARD IS VERSION C",NEW,TRASH,LITTER,ON2,B,103,113,JOL,User,-,"How likely are you to correctly recall the second item in the pair?|Type your response on a scale from 0-100 and then press Enter.",Study/JOL,"Study Phase",2545,,,1804,2229,,,,100,1
5da86d3475d0bc001951ff5c,5y6xdwojf1,Emily_Honors_Thesis_Part_2,1,63,2020-07-20T13:22:28-07:00,3.6924889087677,19,versionC_stim_BACKWARD.csv,BACKWARD_IS_JOLVersionD.csv,"BACKWARD IS VERSION C",NEW,OUNCE,BOTH,ON2,U,172,118,JOL,User,-,"How likely are you to correctly recall the second item in the pair?|Type your response on a scale from 0-100 and then press Enter.",Study/JOL,"Study Phase",3212,,,2549,2837,,,,40,1
5da86d3475d0bc001951ff5c,5y6xdwojf1,Emily_Honors_Thesis_Part_2,1,64,2020-07-20T13:22:31-07:00,3.27161693573,19,versionC_stim_BACKWARD.csv,BACKWARD_IS_JOLVersionD.csv,"BACKWARD IS VERSION C",NEW,SCISSORS,SHEARS,ON2,B,112,122,JOL,User,-,"How likely are you to correctly recall the second item in the pair?|Type your response on a scale from 0-100 and then press Enter.",Study/JOL,"Study Phase",2757,,,2281,2423,,,,80,1
5da86d3475d0bc001951ff5c,5y6xdwojf1,Emily_Honors_Thesis_Part_2,1,65,2020-07-20T13:22:35-07:00,4.6102750301361,19,versionC_stim_BACKWARD.csv,BACKWARD_IS_JOLVersionD.csv,"BACKWARD IS VERSION C",NEW,ABLE,CRACKLE,ON2,U,162,137,JOL,User,-,"How likely are you to correctly recall the second item in the pair?|Type your response on a scale from 0-100 and then press Enter.",Study/JOL,"Study Phase",4234,,,3674,3923,,,,30,1
5da86d3475d0bc001951ff5c,5y6xdwojf1,Emily_Honors_Thesis_Part_2,1,66,2020-07-20T13:22:39-07:00,3.8955070972443,19,versionC_stim_BACKWARD.csv,BACKWARD_IS_JOLVersionD.csv,"BACKWARD IS VERSION C",NEW,SEATBELT,SAFETY,ON2,S,147,144,JOL,User,-,"How likely are you to correctly recall the second item in the pair?|Type your response on a scale from 0-100 and then press Enter.",Study/JOL,"Study Phase",3428,,,2819,2993,,,,80,1
5da86d3475d0bc001951ff5c,5y6xdwojf1,Emily_Honors_Thesis_Part_2,1,67,2020-07-20T13:22:42-07:00,2.85799908638,19,versionC_stim_BACKWARD.csv,BACKWARD_IS_JOLVersionD.csv,"BACKWARD IS VERSION C",NEW,PANTHER,CAT,ON2,F,126,125,JOL,User,-,"How likely are you to correctly recall the second item in the pair?|Type your response on a scale from 0-100 and then press Enter.",Study/JOL,"Study Phase",2419,,,1700,2134,,,,100,1
5da86d3475d0bc001951ff5c,5y6xdwojf1,Emily_Honors_Thesis_Part_2,1,68,2020-07-20T13:22:50-07:00,8.0055170059204,19,versionC_stim_BACKWARD.csv,BACKWARD_IS_JOLVersionD.csv,"BACKWARD IS VERSION C",NEW,FICTION,LISTEN,ON2,U,164,155,JOL,User,-,"How likely are you to correctly recall the second item in the pair?|Type your response on a scale from 0-100 and then press Enter.",Study/JOL,"Study Phase",6549,,,6028,6208,,,,40,1
5da86d3475d0bc001951ff5c,5y6xdwojf1,Emily_Honors_Thesis_Part_2,1,69,2020-07-20T13:22:56-07:00,5.6223289966583,19,versionC_stim_BACKWARD.csv,BACKWARD_IS_JOLVersionD.csv,"BACKWARD IS VERSION C",NEW,WINDSHIELD,CAR,ON2,F,117,145,JOL,User,-,"How likely are you to correctly recall the second item in the pair?|Type your response on a scale from 0-100 and then press Enter.",Study/JOL,"Study Phase",5185,,,4568,4791,,,,60,1
5da86d3475d0bc001951ff5c,5y6xdwojf1,Emily_Honors_Thesis_Part_2,1,70,2020-07-20T13:22:59-07:00,2.9789087772369,19,versionC_stim_BACKWARD.csv,BACKWARD_IS_JOLVersionD.csv,"BACKWARD IS VERSION C",NEW,AIRCRAFT,PLANE,ON2,F,129,171,JOL,User,-,"How likely are you to correctly recall the second item in the pair?|Type your response on a scale from 0-100 and then press Enter.",Study/JOL,"Study Phase",2539,,,1810,2209,,,,100,1
5da86d3475d0bc001951ff5c,5y6xdwojf1,Emily_Honors_Thesis_Part_2,1,71,2020-07-20T13:23:01-07:00,2.6758670806885,19,versionC_stim_BACKWARD.csv,BACKWARD_IS_JOLVersionD.csv,"BACKWARD IS VERSION C",NEW,HEAD,SCALP,ON2,B,105,123,JOL,User,-,"How likely are you to correctly recall the second item in the pair?|Type your response on a scale from 0-100 and then press Enter.",Study/JOL,"Study Phase",2265,,,1560,1964,,,,100,1
5da86d3475d0bc001951ff5c,5y6xdwojf1,Emily_Honors_Thesis_Part_2,1,72,2020-07-20T13:23:06-07:00,4.4602041244507,19,versionC_stim_BACKWARD.csv,BACKWARD_IS_JOLVersionD.csv,"BACKWARD IS VERSION C",NEW,CARBON,ELEMENT,ON2,S,141,132,JOL,User,-,"How likely are you to correctly recall the second item in the pair?|Type your response on a scale from 0-100 and then press Enter.",Study/JOL,"Study Phase",4036,,,3483,3661,,,,70,1
5da86d3475d0bc001951ff5c,5y6xdwojf1,Emily_Honors_Thesis_Part_2,1,73,2020-07-20T13:23:09-07:00,3.4812848567963,19,versionC_stim_BACKWARD.csv,BACKWARD_IS_JOLVersionD.csv,"BACKWARD IS VERSION C",NEW,WAX,CANDLE,ON2,S,139,116,JOL,User,-,"How likely are you to correctly recall the second item in the pair?|Type your response on a scale from 0-100 and then press Enter.",Study/JOL,"Study Phase",2062,,,1406,1807,,,,100,1
5da86d3475d0bc001951ff5c,5y6xdwojf1,Emily_Honors_Thesis_Part_2,1,74,2020-07-20T13:23:13-07:00,3.1377260684967,19,versionC_stim_BACKWARD.csv,BACKWARD_IS_JOLVersionD.csv,"BACKWARD IS VERSION C",NEW,LONG,EXTENSION,ON2,B,96,150,JOL,User,-,"How likely are you to correctly recall the second item in the pair?|Type your response on a scale from 0-100 and then press Enter.",Study/JOL,"Study Phase",2766,,,2101,2471,,,,100,1
5da86d3475d0bc001951ff5c,5y6xdwojf1,Emily_Honors_Thesis_Part_2,1,75,2020-07-20T13:23:16-07:00,3.0865180492401,19,versionC_stim_BACKWARD.csv,BACKWARD_IS_JOLVersionD.csv,"BACKWARD IS VERSION C",NEW,MYSTERY,DETECTIVE,ON2,B,100,147,JOL,User,-,"How likely are you to correctly recall the second item in the pair?|Type your response on a scale from 0-100 and then press Enter.",Study/JOL,"Study Phase",2682,,,2008,2415,,,,100,1
5da86d3475d0bc001951ff5c,5y6xdwojf1,Emily_Honors_Thesis_Part_2,1,76,2020-07-20T13:23:20-07:00,3.8994369506836,19,versionC_stim_BACKWARD.csv,BACKWARD_IS_JOLVersionD.csv,"BACKWARD IS VERSION C",NEW,CUT,CHOP,ON2,B,107,100,JOL,User,-,"How likely are you to correctly recall the second item in the pair?|Type your response on a scale from 0-100 and then press Enter.",Study/JOL,"Study Phase",3497,,,2802,3207,,,,100,1
5da86d3475d0bc001951ff5c,5y6xdwojf1,Emily_Honors_Thesis_Part_2,1,77,2020-07-20T13:23:24-07:00,4.9143650531769,19,versionC_stim_BACKWARD.csv,BACKWARD_IS_JOLVersionD.csv,"BACKWARD IS VERSION C",NEW,NAP,SLEEP,ON2,F,134,117,JOL,User,-,"How likely are you to correctly recall the second item in the pair?|Type your response on a scale from 0-100 and then press Enter.",Study/JOL,"Study Phase",3498,,,2789,3204,,,,100,1
5da86d3475d0bc001951ff5c,5y6xdwojf1,Emily_Honors_Thesis_Part_2,1,78,2020-07-20T13:23:28-07:00,3.8489308357239,19,versionC_stim_BACKWARD.csv,BACKWARD_IS_JOLVersionD.csv,"BACKWARD IS VERSION C",NEW,LEAGUE,BASEBALL,ON2,F,131,143,JOL,User,-,"How likely are you to correctly recall the second item in the pair?|Type your response on a scale from 0-100 and then press Enter.",Study/JOL,"Study Phase",3300,,,2748,2946,,,,70,1
5da86d3475d0bc001951ff5c,5y6xdwojf1,Emily_Honors_Thesis_Part_2,1,79,2020-07-20T13:23:35-07:00,6.7820751667023,19,versionC_stim_BACKWARD.csv,BACKWARD_IS_JOLVersionD.csv,"BACKWARD IS VERSION C",NEW,HAVE,OWN,ON2,S,153,175,JOL,User,-,"How likely are you to correctly recall the second item in the pair?|Type your response on a scale from 0-100 and then press Enter.",Study/JOL,"Study Phase",6405,,,2784,4610,,,,100,1
5da86d3475d0bc001951ff5c,5y6xdwojf1,Emily_Honors_Thesis_Part_2,1,80,2020-07-20T13:23:38-07:00,3.2744028568268,19,versionC_stim_BACKWARD.csv,BACKWARD_IS_JOLVersionD.csv,"BACKWARD IS VERSION C",NEW,MORNING,TEMPERATURE,ON2,U,173,167,JOL,User,-,"How likely are you to correctly recall the second item in the pair?|Type your response on a scale from 0-100 and then press Enter.",Study/JOL,"Study Phase",2833,,,2263,2471,,,,50,1
5da86d3475d0bc001951ff5c,5y6xdwojf1,Emily_Honors_Thesis_Part_2,1,81,2020-07-20T13:23:41-07:00,2.6516921520233,19,versionC_stim_BACKWARD.csv,BACKWARD_IS_JOLVersionD.csv,"BACKWARD IS VERSION C",NEW,LIE,TRUTH,ON2,S,148,103,JOL,User,-,"How likely are you to correctly recall the second item in the pair?|Type your response on a scale from 0-100 and then press Enter.",Study/JOL,"Study Phase",2277,,,1522,1962,,,,100,1
5da86d3475d0bc001951ff5c,5y6xdwojf1,Emily_Honors_Thesis_Part_2,1,82,2020-07-20T13:23:44-07:00,2.8813149929047,19,versionC_stim_BACKWARD.csv,BACKWARD_IS_JOLVersionD.csv,"BACKWARD IS VERSION C",NEW,EQUAL,RIGHTS,ON2,S,137,101,JOL,User,-,"How likely are you to correctly recall the second item in the pair?|Type your response on a scale from 0-100 and then press Enter.",Study/JOL,"Study Phase",2437,,,1727,2152,,,,100,1
5da86d3475d0bc001951ff5c,5y6xdwojf1,Emily_Honors_Thesis_Part_2,1,83,2020-07-20T13:23:47-07:00,3.025554895401,19,versionC_stim_BACKWARD.csv,BACKWARD_IS_JOLVersionD.csv,"BACKWARD IS VERSION C",NEW,REEL,ROD,ON2,S,150,121,JOL,User,-,"How likely are you to correctly recall the second item in the pair?|Type your response on a scale from 0-100 and then press Enter.",Study/JOL,"Study Phase",2499,,,1992,2137,,,,80,1
5da86d3475d0bc001951ff5c,5y6xdwojf1,Emily_Honors_Thesis_Part_2,1,84,2020-07-20T13:23:52-07:00,4.9985349178314,19,versionC_stim_BACKWARD.csv,BACKWARD_IS_JOLVersionD.csv,"BACKWARD IS VERSION C",NEW,BANG,FUZZY,ON2,U,168,107,JOL,User,-,"How likely are you to correctly recall the second item in the pair?|Type your response on a scale from 0-100 and then press Enter.",Study/JOL,"Study Phase",4538,,,2275,4217,,,,20,1
5da86d3475d0bc001951ff5c,5y6xdwojf1,Emily_Honors_Thesis_Part_2,1,85,2020-07-20T13:23:56-07:00,3.8457570075989,19,versionC_stim_BACKWARD.csv,BACKWARD_IS_JOLVersionD.csv,"BACKWARD IS VERSION C",NEW,SARDINE,FISH,ON2,F,130,114,JOL,User,-,"How likely are you to correctly recall the second item in the pair?|Type your response on a scale from 0-100 and then press Enter.",Study/JOL,"Study Phase",2445,,,1359,2135,,,,100,1
5da86d3475d0bc001951ff5c,5y6xdwojf1,Emily_Honors_Thesis_Part_2,1,86,2020-07-20T13:24:00-07:00,4.5323240756989,19,versionC_stim_BACKWARD.csv,BACKWARD_IS_JOLVersionD.csv,"BACKWARD IS VERSION C",NEW,CHARM,VEHICLE,ON2,U,160,135,JOL,User,-,"How likely are you to correctly recall the second item in the pair?|Type your response on a scale from 0-100 and then press Enter.",Study/JOL,"Study Phase",4151,,,3692,3846,,,,20,1
5da86d3475d0bc001951ff5c,5y6xdwojf1,Emily_Honors_Thesis_Part_2,1,87,2020-07-20T13:24:09-07:00,8.5926511287689,19,versionC_stim_BACKWARD.csv,BACKWARD_IS_JOLVersionD.csv,"BACKWARD IS VERSION C",NEW,SCAR,MAIN,ON2,U,175,99,JOL,User,-,"How likely are you to correctly recall the second item in the pair?|Type your response on a scale from 0-100 and then press Enter.",Study/JOL,"Study Phase",8218,,,6099,6099,,,,0,1
5da86d3475d0bc001951ff5c,5y6xdwojf1,Emily_Honors_Thesis_Part_2,1,88,2020-07-20T13:24:12-07:00,2.9555358886719,19,versionC_stim_BACKWARD.csv,BACKWARD_IS_JOLVersionD.csv,"BACKWARD IS VERSION C",NEW,BRACELET,WRIST,ON2,S,140,105,JOL,User,-,"How likely are you to correctly recall the second item in the pair?|Type your response on a scale from 0-100 and then press Enter.",Study/JOL,"Study Phase",2358,,,1622,1986,,,,100,1
5da86d3475d0bc001951ff5c,5y6xdwojf1,Emily_Honors_Thesis_Part_2,1,89,2020-07-20T13:24:18-07:00,5.7740819454193,19,versionC_stim_BACKWARD.csv,BACKWARD_IS_JOLVersionD.csv,"BACKWARD IS VERSION C",NEW,STEAK,GIVE,ON2,U,158,159,JOL,User,-,"How likely are you to correctly recall the second item in the pair?|Type your response on a scale from 0-100 and then press Enter.",Study/JOL,"Study Phase",5366,,,3348,4919,,,,0,1
5da86d3475d0bc001951ff5c,5y6xdwojf1,Emily_Honors_Thesis_Part_2,1,90,2020-07-20T13:24:21-07:00,3.5339751243591,19,versionC_stim_BACKWARD.csv,BACKWARD_IS_JOLVersionD.csv,"BACKWARD IS VERSION C",NEW,GROUND,EARTH,ON2,S,144,173,JOL,User,-,"How likely are you to correctly recall the second item in the pair?|Type your response on a scale from 0-100 and then press Enter.",Study/JOL,"Study Phase",3114,,,2461,2679,,,,60,1
5da86d3475d0bc001951ff5c,5y6xdwojf1,Emily_Honors_Thesis_Part_2,1,91,2020-07-20T13:24:27-07:00,5.8160538673401,19,versionC_stim_BACKWARD.csv,BACKWARD_IS_JOLVersionD.csv,"BACKWARD IS VERSION C",NEW,TOIL,LEASE,ON2,U,170,166,JOL,User,-,"How likely are you to correctly recall the second item in the pair?|Type your response on a scale from 0-100 and then press Enter.",Study/JOL,"Study Phase",5338,,,2254,5071,,,,0,1
5da86d3475d0bc001951ff5c,5y6xdwojf1,Emily_Honors_Thesis_Part_2,1,92,2020-07-20T13:24:32-07:00,4.5961170196533,19,versionC_stim_BACKWARD.csv,BACKWARD_IS_JOLVersionD.csv,"BACKWARD IS VERSION C",NEW,TAN,SUN,ON2,S,155,160,JOL,User,-,"How likely are you to correctly recall the second item in the pair?|Type your response on a scale from 0-100 and then press Enter.",Study/JOL,"Study Phase",4011,,,3417,3622,,,,70,1
5da86d3475d0bc001951ff5c,5y6xdwojf1,Emily_Honors_Thesis_Part_2,1,93,2020-07-20T13:24:35-07:00,3.1925201416016,19,versionC_stim_BACKWARD.csv,BACKWARD_IS_JOLVersionD.csv,"BACKWARD IS VERSION C",NEW,STRAWBERRY,FRUIT,ON2,F,124,158,JOL,User,-,"How likely are you to correctly recall the second item in the pair?|Type your response on a scale from 0-100 and then press Enter.",Study/JOL,"Study Phase",2799,,,1704,2504,,,,100,1
5da86d3475d0bc001951ff5c,5y6xdwojf1,Emily_Honors_Thesis_Part_2,1,94,2020-07-20T13:24:40-07:00,4.8991248607635,19,versionC_stim_BACKWARD.csv,BACKWARD_IS_JOLVersionD.csv,"BACKWARD IS VERSION C",NEW,HATE,NAME,ON2,U,167,98,JOL,User,-,"How likely are you to correctly recall the second item in the pair?|Type your response on a scale from 0-100 and then press Enter.",Study/JOL,"Study Phase",3266,,,2331,2331,,,,0,1
5da86d3475d0bc001951ff5c,5y6xdwojf1,Emily_Honors_Thesis_Part_2,1,95,2020-07-20T13:24:45-07:00,5.474555015564,19,versionC_stim_BACKWARD.csv,BACKWARD_IS_JOLVersionD.csv,"BACKWARD IS VERSION C",NEW,AWAY,GONE,ON2,S,142,130,JOL,User,-,"How likely are you to correctly recall the second item in the pair?|Type your response on a scale from 0-100 and then press Enter.",Study/JOL,"Study Phase",5059,,,4521,4699,,,,70,1
5da86d3475d0bc001951ff5c,5y6xdwojf1,Emily_Honors_Thesis_Part_2,1,96,2020-07-20T13:24:49-07:00,3.3994131088257,19,versionC_stim_BACKWARD.csv,BACKWARD_IS_JOLVersionD.csv,"BACKWARD IS VERSION C",NEW,TEMPER,TANTRUM,ON2,S,154,97,JOL,User,-,"How likely are you to correctly recall the second item in the pair?|Type your response on a scale from 0-100 and then press Enter.",Study/JOL,"Study Phase",2986,,,2129,2690,,,,100,1
5da86d3475d0bc001951ff5c,5y6xdwojf1,Emily_Honors_Thesis_Part_2,1,97,2020-07-20T13:24:51-07:00,2.2700319290161,19,versionC_stim_BACKWARD.csv,BACKWARD_IS_JOLVersionD.csv,"BACKWARD IS VERSION C",NEW,VILLAIN,BAD,ON2,F,118,156,JOL,User,-,"How likely are you to correctly recall the second item in the pair?|Type your response on a scale from 0-100 and then press Enter.",Study/JOL,"Study Phase",1862,,,1186,1571,,,,100,1
5da86d3475d0bc001951ff5c,5y6xdwojf1,Emily_Honors_Thesis_Part_2,1,98,2020-07-20T13:24:56-07:00,5.1513519287109,19,versionC_stim_BACKWARD.csv,BACKWARD_IS_JOLVersionD.csv,"BACKWARD IS VERSION C",NEW,JOKE,KEYS,ON2,U,165,127,JOL,User,-,"How likely are you to correctly recall the second item in the pair?|Type your response on a scale from 0-100 and then press Enter.",Study/JOL,"Study Phase",4705,,,3690,3900,,,,20,1
5da86d3475d0bc001951ff5c,5y6xdwojf1,Emily_Honors_Thesis_Part_2,1,99,2020-07-20T13:25:00-07:00,4.1959919929504,19,versionC_stim_BACKWARD.csv,BACKWARD_IS_JOLVersionD.csv,"BACKWARD IS VERSION C",NEW,REVENGE,EVEN,ON2,F,122,161,JOL,User,-,"How likely are you to correctly recall the second item in the pair?|Type your response on a scale from 0-100 and then press Enter.",Study/JOL,"Study Phase",3806,,,3287,3496,,,,50,1
5da86d3475d0bc001951ff5c,5y6xdwojf1,Emily_Honors_Thesis_Part_2,1,100,2020-07-20T13:25:04-07:00,3.5064151287079,19,versionC_stim_BACKWARD.csv,BACKWARD_IS_JOLVersionD.csv,"BACKWARD IS VERSION C",NEW,LONELY,ALONE,ON2,S,145,146,JOL,User,-,"How likely are you to correctly recall the second item in the pair?|Type your response on a scale from 0-100 and then press Enter.",Study/JOL,"Study Phase",3106,,,2413,2816,,,,100,1
5da86d3475d0bc001951ff5c,5y6xdwojf1,Emily_Honors_Thesis_Part_2,1,101,2020-07-20T13:25:07-07:00,2.8938679695129,19,versionC_stim_BACKWARD.csv,BACKWARD_IS_JOLVersionD.csv,"BACKWARD IS VERSION C",NEW,FAVORITE,BEST,ON2,F,125,153,JOL,User,-,"How likely are you to correctly recall the second item in the pair?|Type your response on a scale from 0-100 and then press Enter.",Study/JOL,"Study Phase",2373,,,1718,2107,,,,100,1
5da86d3475d0bc001951ff5c,5y6xdwojf1,Emily_Honors_Thesis_Part_2,1,102,2020-07-20T13:25:09-07:00,2.7208409309387,19,versionC_stim_BACKWARD.csv,BACKWARD_IS_JOLVersionD.csv,"BACKWARD IS VERSION C",NEW,DONKEY,MULE,ON2,B,108,149,JOL,User,-,"How likely are you to correctly recall the second item in the pair?|Type your response on a scale from 0-100 and then press Enter.",Study/JOL,"Study Phase",2147,,,1491,1881,,,,100,1
5da86d3475d0bc001951ff5c,5y6xdwojf1,Emily_Honors_Thesis_Part_2,1,103,2020-07-20T13:25:15-07:00,5.9249839782715,19,versionC_stim_BACKWARD.csv,BACKWARD_IS_JOLVersionD.csv,"BACKWARD IS VERSION C",NEW,CHILDREN,MIRROR,ON2,U,174,134,JOL,User,-,"How likely are you to correctly recall the second item in the pair?|Type your response on a scale from 0-100 and then press Enter.",Study/JOL,"Study Phase",5532,,,5148,5148,,,,0,1
5da86d3475d0bc001951ff5c,5y6xdwojf1,Emily_Honors_Thesis_Part_2,1,104,2020-07-20T13:25:19-07:00,3.7721869945526,19,versionC_stim_BACKWARD.csv,BACKWARD_IS_JOLVersionD.csv,"BACKWARD IS VERSION C",NEW,COLD,CHILL,ON2,B,114,162,JOL,User,-,"How likely are you to correctly recall the second item in the pair?|Type your response on a scale from 0-100 and then press Enter.",Study/JOL,"Study Phase",3326,,,2760,2929,,,,70,1
5da86d3475d0bc001951ff5c,5y6xdwojf1,Emily_Honors_Thesis_Part_2,1,105,2020-07-20T13:25:23-07:00,3.8102819919586,19,versionC_stim_BACKWARD.csv,BACKWARD_IS_JOLVersionD.csv,"BACKWARD IS VERSION C",NEW,SHED,TOOL,Buffer3,Buffer,178,181,JOL,User,-,"How likely are you to correctly recall the second item in the pair?|Type your response on a scale from 0-100 and then press Enter.",Study/JOL,BUFFER2,3284,,,2763,2977,,,,80,1
5da86d3475d0bc001951ff5c,5y6xdwojf1,Emily_Honors_Thesis_Part_2,1,106,2020-07-20T13:25:26-07:00,3.5061821937561,19,versionC_stim_BACKWARD.csv,BACKWARD_IS_JOLVersionD.csv,"BACKWARD IS VERSION C",NEW,STRING,NOODLE,Buffer3,Buffer,92,179,JOL,User,-,"How likely are you to correctly recall the second item in the pair?|Type your response on a scale from 0-100 and then press Enter.",Study/JOL,BUFFER2,2919,,,2344,2553,,,,70,1
5da86d3475d0bc001951ff5c,5y6xdwojf1,Emily_Honors_Thesis_Part_2,1,107,2020-07-20T13:25:29-07:00,2.4955079555511,19,versionC_stim_BACKWARD.csv,BACKWARD_IS_JOLVersionD.csv,"BACKWARD IS VERSION C",NEW,FROZEN,ICE,Buffer3,Buffer,94,177,JOL,User,-,"How likely are you to correctly recall the second item in the pair?|Type your response on a scale from 0-100 and then press Enter.",Study/JOL,BUFFER2,2047,,,1381,1800,,,,100,1
5da86d3475d0bc001951ff5c,5y6xdwojf1,Emily_Honors_Thesis_Part_2,1,108,2020-07-20T13:25:32-07:00,3.1901779174805,19,versionC_stim_BACKWARD.csv,BACKWARD_IS_JOLVersionD.csv,"BACKWARD IS VERSION C",NEW,ADVENTURE,CAMP,Buffer3,Buffer,95,178,JOL,User,-,"How likely are you to correctly recall the second item in the pair?|Type your response on a scale from 0-100 and then press Enter.",Study/JOL,BUFFER2,2791,,,2297,2462,,,,50,1
5da86d3475d0bc001951ff5c,5y6xdwojf1,Emily_Honors_Thesis_Part_2,1,109,2020-07-20T13:25:35-07:00,2.7202870845795,19,versionC_stim_BACKWARD.csv,BACKWARD_IS_JOLVersionD.csv,"BACKWARD IS VERSION C",NEW,POTATO,CARROT,Buffer3,Buffer,91,180,JOL,User,-,"How likely are you to correctly recall the second item in the pair?|Type your response on a scale from 0-100 and then press Enter.",Study/JOL,BUFFER2,2312,,,1837,2011,,,,50,1
5da86d3475d0bc001951ff5c,5y6xdwojf1,Emily_Honors_Thesis_Part_2,1,110,2020-07-20T13:25:38-07:00,3.7793760299683,19,versionC_stim_BACKWARD.csv,BACKWARD_IS_JOLVersionD.csv,"BACKWARD IS VERSION C",NEW,,,,,,0,Instruct,User,-,"You have completed this section. Please press Enter.",Filler_Instruction,Instruct5,3360,,,-1,-1,,,,,1
5da86d3475d0bc001951ff5c,5y6xdwojf1,Emily_Honors_Thesis_Part_2,1,111,2020-07-20T13:26:20-07:00,41.328418970108,19,versionC_stim_BACKWARD.csv,BACKWARD_IS_JOLVersionD.csv,"BACKWARD IS VERSION C",NEW,,,,,,0,FreeRecall,-,10,"What were you supposed to focus on while you studied each pair? (Hint: Think back to the instructions). Type your answer in the space below.",,CHECK3,40879,"how they are unique and likelihood of remembering the second pair.",0,6222,39056,0,0,,,1
5da86d3475d0bc001951ff5c,5y6xdwojf1,Emily_Honors_Thesis_Part_2,1,112,2020-07-20T13:26:22-07:00,2.2614748477936,19,versionC_stim_BACKWARD.csv,BACKWARD_IS_JOLVersionD.csv,"BACKWARD IS VERSION C",NEW,,,,,,0,Instruct,User,-,"You have completed this section. Please press Enter.",Filler_Instruction,Instruct2,1873,,,-1,-1,,,,,1
5da86d3475d0bc001951ff5c,5y6xdwojf1,Emily_Honors_Thesis_Part_2,1,113,2020-07-20T13:28:23-07:00,121.28010606766,19,versionC_stim_BACKWARD.csv,BACKWARD_IS_JOLVersionD.csv,"BACKWARD IS VERSION C",NEW,,,,,,0,FreeRecall,120,120,"Please list the 50 US states in alphabetical order. The task will automatically advance to the next screen after two minutes.",,Filler1,120630,"Alabama Alaska Arizona Arkansas California Colorado Connecticut Delawara Florida Georgia Hawaii Idaho Illinois Indiana Iowa Kansas Kentucky Louisiana Maine Maryland Massachusetts Michigan Minnesota Mississippi Missouri Montana Nebraska Nevada New Hampshire New Jersey New Mexico New York North Carolina North Dakota Ohio Oklahoma Oregon Pennsylvania Rhode Island South Carolina South Dakota Tennessee Texas Utah Vermont Virginia Washington West Virginia Wisconsin Wyoming ",0,102821,102821,0,0,,,0.865
5da86d3475d0bc001951ff5c,5y6xdwojf1,Emily_Honors_Thesis_Part_2,1,114,2020-07-20T13:28:36-07:00,12.976485013962,19,versionC_stim_BACKWARD.csv,BACKWARD_IS_JOLVersionD.csv,"BACKWARD IS VERSION C",NEW,,,,,,0,Instruct,-,10,"You will now be presented with the first word from each of the previously studied item pairs. Please type the missing word. If you do not know the word, you may guess or press Enter to skip forward to the next pair.",,Instruct3,12484,,,-1,-1,,,,,1
5da86d3475d0bc001951ff5c,5y6xdwojf1,Emily_Honors_Thesis_Part_2,1,115,2020-07-20T13:29:30-07:00,54.027793884277,19,versionC_stim_BACKWARD.csv,BACKWARD_IS_JOLVersionD.csv,"BACKWARD IS VERSION C",NEW,BANKER,MONEY,ON2,F,132,148,Test,User,-,,Recall,Recall1,53469,money,100,51658,52293,1,1,,,1
5da86d3475d0bc001951ff5c,5y6xdwojf1,Emily_Honors_Thesis_Part_2,1,116,2020-07-20T13:30:06-07:00,35.798590183258,19,versionC_stim_BACKWARD.csv,BACKWARD_IS_JOLVersionD.csv,"BACKWARD IS VERSION C",NEW,GROUND,EARTH,ON2,S,144,173,Test,User,-,,Recall,Recall1,35312,earth,100,2542,3776,1,1,,,1
5da86d3475d0bc001951ff5c,5y6xdwojf1,Emily_Honors_Thesis_Part_2,1,117,2020-07-20T13:30:11-07:00,5.1745409965515,19,versionC_stim_BACKWARD.csv,BACKWARD_IS_JOLVersionD.csv,"BACKWARD IS VERSION C",NEW,SHAVE,RAZOR,ON2,S,136,138,Test,User,-,,Recall,Recall1,4759,razor,100,3056,3952,1,1,,,1
5da86d3475d0bc001951ff5c,5y6xdwojf1,Emily_Honors_Thesis_Part_2,1,118,2020-07-20T13:31:38-07:00,86.415536880493,19,versionC_stim_BACKWARD.csv,BACKWARD_IS_JOLVersionD.csv,"BACKWARD IS VERSION C",NEW,JOKE,KEYS,ON2,U,165,127,Test,User,-,,Recall,Recall1,85850,clue,25,84468,85267,0,0,,,1
5da86d3475d0bc001951ff5c,5y6xdwojf1,Emily_Honors_Thesis_Part_2,1,119,2020-07-20T13:32:06-07:00,27.844638109207,19,versionC_stim_BACKWARD.csv,BACKWARD_IS_JOLVersionD.csv,"BACKWARD IS VERSION C",NEW,STRAWBERRY,FRUIT,ON2,F,124,158,Test,User,-,,Recall,Recall1,27283,fruit,100,1770,2315,1,1,,,1
5da86d3475d0bc001951ff5c,5y6xdwojf1,Emily_Honors_Thesis_Part_2,1,120,2020-07-20T13:32:27-07:00,21.289170026779,19,versionC_stim_BACKWARD.csv,BACKWARD_IS_JOLVersionD.csv,"BACKWARD IS VERSION C",NEW,REEL,ROD,ON2,S,150,121,Test,User,-,,Recall,Recall1,20653,thread,44.444444444444,13553,16018,0,0,,,0.911
5da86d3475d0bc001951ff5c,5y6xdwojf1,Emily_Honors_Thesis_Part_2,1,121,2020-07-20T13:33:07-07:00,39.98585486412,19,versionC_stim_BACKWARD.csv,BACKWARD_IS_JOLVersionD.csv,"BACKWARD IS VERSION C",NEW,CLOTH,STRETCH,ON2,U,157,111,Test,User,-,,Recall,Recall1,39465,string,46.153846153846,34735,38823,0,0,,,1
5da86d3475d0bc001951ff5c,5y6xdwojf1,Emily_Honors_Thesis_Part_2,1,122,2020-07-20T13:33:16-07:00,9.4921441078186,19,versionC_stim_BACKWARD.csv,BACKWARD_IS_JOLVersionD.csv,"BACKWARD IS VERSION C",NEW,FIGHT,FEUD,ON2,B,113,176,Test,User,-,,Recall,Recall1,8944,row,0,8376,8621,0,0,,,1
5da86d3475d0bc001951ff5c,5y6xdwojf1,Emily_Honors_Thesis_Part_2,1,123,2020-07-20T13:33:21-07:00,4.6188540458679,19,versionC_stim_BACKWARD.csv,BACKWARD_IS_JOLVersionD.csv,"BACKWARD IS VERSION C",NEW,TEMPER,TANTRUM,ON2,S,154,97,Test,User,-,,Recall,Recall1,4177,tantrum,100,1264,3846,1,1,,,1
5da86d3475d0bc001951ff5c,5y6xdwojf1,Emily_Honors_Thesis_Part_2,1,124,2020-07-20T13:34:06-07:00,45.262636899948,19,versionC_stim_BACKWARD.csv,BACKWARD_IS_JOLVersionD.csv,"BACKWARD IS VERSION C",NEW,ELECTION,MAZE,ON2,U,159,151,Test,User,-,,Recall,Recall1,44750,vote,25,43184,44440,0,0,,,0.771
5da86d3475d0bc001951ff5c,5y6xdwojf1,Emily_Honors_Thesis_Part_2,1,125,2020-07-20T13:34:26-07:00,19.882133960724,19,versionC_stim_BACKWARD.csv,BACKWARD_IS_JOLVersionD.csv,"BACKWARD IS VERSION C",NEW,TRASH,LITTER,ON2,B,103,113,Test,User,-,,Recall,Recall1,19448,rubbish,15.384615384615,1541,2645,0,0,,,1
5da86d3475d0bc001951ff5c,5y6xdwojf1,Emily_Honors_Thesis_Part_2,1,126,2020-07-20T13:34:30-07:00,3.5701460838318,19,versionC_stim_BACKWARD.csv,BACKWARD_IS_JOLVersionD.csv,"BACKWARD IS VERSION C",NEW,AWAY,GONE,ON2,S,142,130,Test,User,-,,Recall,Recall1,3099,gone,100,2421,2882,1,1,,,1
5da86d3475d0bc001951ff5c,5y6xdwojf1,Emily_Honors_Thesis_Part_2,1,127,2020-07-20T13:34:33-07:00,3.0055499076843,19,versionC_stim_BACKWARD.csv,BACKWARD_IS_JOLVersionD.csv,"BACKWARD IS VERSION C",NEW,WINDSHIELD,CAR,ON2,F,117,145,Test,User,-,,Recall,Recall1,2629,car,100,1987,2328,1,1,,,1
5da86d3475d0bc001951ff5c,5y6xdwojf1,Emily_Honors_Thesis_Part_2,1,128,2020-07-20T13:35:08-07:00,35.204524993896,19,versionC_stim_BACKWARD.csv,BACKWARD_IS_JOLVersionD.csv,"BACKWARD IS VERSION C",NEW,GAME,CLUE,ON2,B,97,141,Test,User,-,,Recall,Recall1,34756,clue,100,23813,28306,1,1,,,1
5da86d3475d0bc001951ff5c,5y6xdwojf1,Emily_Honors_Thesis_Part_2,1,129,2020-07-20T13:35:28-07:00,20.274769067764,19,versionC_stim_BACKWARD.csv,BACKWARD_IS_JOLVersionD.csv,"BACKWARD IS VERSION C",NEW,TAN,SUN,ON2,S,155,160,Test,User,-,,Recall,Recall1,19659,sun,100,3421,6729,1,1,,,1
5da86d3475d0bc001951ff5c,5y6xdwojf1,Emily_Honors_Thesis_Part_2,1,130,2020-07-20T13:35:50-07:00,21.670361042023,19,versionC_stim_BACKWARD.csv,BACKWARD_IS_JOLVersionD.csv,"BACKWARD IS VERSION C",NEW,VILLAIN,BAD,ON2,F,118,156,Test,User,-,,Recall,Recall1,21114,bad,100,5751,6181,1,1,,,1
5da86d3475d0bc001951ff5c,5y6xdwojf1,Emily_Honors_Thesis_Part_2,1,131,2020-07-20T13:37:44-07:00,114.21500587463,19,versionC_stim_BACKWARD.csv,BACKWARD_IS_JOLVersionD.csv,"BACKWARD IS VERSION C",NEW,EQUAL,RIGHTS,ON2,S,137,101,Test,User,-,,Recall,Recall1,113555,balanced,0,57299,113258,0,0,,,0.805
5da86d3475d0bc001951ff5c,5y6xdwojf1,Emily_Honors_Thesis_Part_2,1,132,2020-07-20T13:38:11-07:00,27.056140184402,19,versionC_stim_BACKWARD.csv,BACKWARD_IS_JOLVersionD.csv,"BACKWARD IS VERSION C",NEW,HEAD,SCALP,ON2,B,105,123,Test,User,-,,Recall,Recall1,25516,shell,40,24623,25231,0,0,,,1
5da86d3475d0bc001951ff5c,5y6xdwojf1,Emily_Honors_Thesis_Part_2,1,133,2020-07-20T13:38:47-07:00,35.670420885086,19,versionC_stim_BACKWARD.csv,BACKWARD_IS_JOLVersionD.csv,"BACKWARD IS VERSION C",NEW,FICTION,LISTEN,ON2,U,164,155,Test,User,-,,Recall,Recall1,35243,read,20,34599,35000,0,0,,,1
5da86d3475d0bc001951ff5c,5y6xdwojf1,Emily_Honors_Thesis_Part_2,1,134,2020-07-20T13:38:50-07:00,3.1125869750977,19,versionC_stim_BACKWARD.csv,BACKWARD_IS_JOLVersionD.csv,"BACKWARD IS VERSION C",NEW,BRACELET,WRIST,ON2,S,140,105,Test,User,-,,Recall,Recall1,2671,wrist,100,1728,2450,1,1,,,1
5da86d3475d0bc001951ff5c,5y6xdwojf1,Emily_Honors_Thesis_Part_2,1,135,2020-07-20T13:39:13-07:00,22.821855068207,19,versionC_stim_BACKWARD.csv,BACKWARD_IS_JOLVersionD.csv,"BACKWARD IS VERSION C",NEW,CHILDREN,MIRROR,ON2,U,174,134,Test,User,-,,Recall,Recall1,22352,turn,20,20674,21522,0,0,,,1
5da86d3475d0bc001951ff5c,5y6xdwojf1,Emily_Honors_Thesis_Part_2,1,136,2020-07-20T13:39:39-07:00,26.328899860382,19,versionC_stim_BACKWARD.csv,BACKWARD_IS_JOLVersionD.csv,"BACKWARD IS VERSION C",NEW,PLANT,CACTUS,ON2,B,98,119,Test,User,-,,Recall,Recall1,25864,water,36.363636363636,22792,25006,0,0,,,1
5da86d3475d0bc001951ff5c,5y6xdwojf1,Emily_Honors_Thesis_Part_2,1,137,2020-07-20T13:39:44-07:00,5.0944111347198,19,versionC_stim_BACKWARD.csv,BACKWARD_IS_JOLVersionD.csv,"BACKWARD IS VERSION C",NEW,SMELL,INCENSE,ON2,B,110,102,Test,User,-,,Recall,Recall1,4674,insense,85.714285714286,2420,4101,0,1,,,1
5da86d3475d0bc001951ff5c,5y6xdwojf1,Emily_Honors_Thesis_Part_2,1,138,2020-07-20T13:39:53-07:00,8.7916600704193,19,versionC_stim_BACKWARD.csv,BACKWARD_IS_JOLVersionD.csv,"BACKWARD IS VERSION C",NEW,LEAGUE,BASEBALL,ON2,F,131,143,Test,User,-,,Recall,Recall1,8398,basketball,88.888888888889,4764,7735,0,1,,,1
5da86d3475d0bc001951ff5c,5y6xdwojf1,Emily_Honors_Thesis_Part_2,1,139,2020-07-20T13:39:58-07:00,5.3344628810883,19,versionC_stim_BACKWARD.csv,BACKWARD_IS_JOLVersionD.csv,"BACKWARD IS VERSION C",NEW,DOG,FURRY,ON2,B,102,157,Test,User,-,,Recall,Recall1,4936,cat,0,1901,2181,0,0,,,1
5da86d3475d0bc001951ff5c,5y6xdwojf1,Emily_Honors_Thesis_Part_2,1,140,2020-07-20T13:40:01-07:00,2.4179661273956,19,versionC_stim_BACKWARD.csv,BACKWARD_IS_JOLVersionD.csv,"BACKWARD IS VERSION C",NEW,COFFIN,DEAD,ON2,F,128,104,Test,User,-,,Recall,Recall1,2015,dea,85.714285714286,1422,1733,0,1,,,1
5da86d3475d0bc001951ff5c,5y6xdwojf1,Emily_Honors_Thesis_Part_2,1,141,2020-07-20T13:40:09-07:00,8.7311859130859,19,versionC_stim_BACKWARD.csv,BACKWARD_IS_JOLVersionD.csv,"BACKWARD IS VERSION C",NEW,PAPER,DOCUMENT,ON2,B,109,140,Test,User,-,,Recall,Recall1,8323,document,100,6576,7980,1,1,,,1
5da86d3475d0bc001951ff5c,5y6xdwojf1,Emily_Honors_Thesis_Part_2,1,142,2020-07-20T13:40:13-07:00,3.9739189147949,19,versionC_stim_BACKWARD.csv,BACKWARD_IS_JOLVersionD.csv,"BACKWARD IS VERSION C",NEW,CLEAR,MOAT,ON2,U,169,126,Test,User,-,,Recall,Recall1,3451,water,44.444444444444,1522,2164,0,0,,,1
5da86d3475d0bc001951ff5c,5y6xdwojf1,Emily_Honors_Thesis_Part_2,1,143,2020-07-20T13:40:19-07:00,5.949000120163,19,versionC_stim_BACKWARD.csv,BACKWARD_IS_JOLVersionD.csv,"BACKWARD IS VERSION C",NEW,COMMUNICATION,PHONE,ON2,S,149,168,Test,User,-,,Recall,Recall1,4546,phone,100,2771,4325,1,1,,,1
5da86d3475d0bc001951ff5c,5y6xdwojf1,Emily_Honors_Thesis_Part_2,1,144,2020-07-20T13:40:26-07:00,6.5422439575195,19,versionC_stim_BACKWARD.csv,BACKWARD_IS_JOLVersionD.csv,"BACKWARD IS VERSION C",NEW,SIGN,LOAN,ON2,U,171,110,Test,User,-,,Recall,Recall1,6027,clue,25,4821,5340,0,0,,,1
5da86d3475d0bc001951ff5c,5y6xdwojf1,Emily_Honors_Thesis_Part_2,1,145,2020-07-20T13:40:48-07:00,22.389380931854,19,versionC_stim_BACKWARD.csv,BACKWARD_IS_JOLVersionD.csv,"BACKWARD IS VERSION C",NEW,HATE,NAME,ON2,U,167,98,Test,User,-,,Recall,Recall1,22001,row,0,16464,16739,0,0,,,1
5da86d3475d0bc001951ff5c,5y6xdwojf1,Emily_Honors_Thesis_Part_2,1,146,2020-07-20T13:40:51-07:00,3.0191819667816,19,versionC_stim_BACKWARD.csv,BACKWARD_IS_JOLVersionD.csv,"BACKWARD IS VERSION C",NEW,NOISE,LOUD,ON2,S,152,154,Test,User,-,,Recall,Recall1,2583,loud,100,1448,2392,1,1,,,1
5da86d3475d0bc001951ff5c,5y6xdwojf1,Emily_Honors_Thesis_Part_2,1,147,2020-07-20T13:41:00-07:00,8.956484079361,19,versionC_stim_BACKWARD.csv,BACKWARD_IS_JOLVersionD.csv,"BACKWARD IS VERSION C",NEW,CARBON,ELEMENT,ON2,S,141,132,Test,User,-,,Recall,Recall1,8553,element,100,6672,8261,1,1,,,1
5da86d3475d0bc001951ff5c,5y6xdwojf1,Emily_Honors_Thesis_Part_2,1,148,2020-07-20T13:41:27-07:00,27.019254922867,19,versionC_stim_BACKWARD.csv,BACKWARD_IS_JOLVersionD.csv,"BACKWARD IS VERSION C",NEW,END,ADJOURN,ON2,B,101,129,Test,User,-,,Recall,Recall1,26480,adjourn,100,23340,25067,1,1,,,1
5da86d3475d0bc001951ff5c,5y6xdwojf1,Emily_Honors_Thesis_Part_2,1,149,2020-07-20T13:41:32-07:00,4.7439160346985,19,versionC_stim_BACKWARD.csv,BACKWARD_IS_JOLVersionD.csv,"BACKWARD IS VERSION C",NEW,AIRCRAFT,PLANE,ON2,F,129,171,Test,User,-,,Recall,Recall1,4309,plane,100,1464,3726,1,1,,,1
5da86d3475d0bc001951ff5c,5y6xdwojf1,Emily_Honors_Thesis_Part_2,1,150,2020-07-20T13:41:54-07:00,21.7834379673,19,versionC_stim_BACKWARD.csv,BACKWARD_IS_JOLVersionD.csv,"BACKWARD IS VERSION C",NEW,SHAKE,SHELL,ON2,U,163,131,Test,User,-,,Recall,Recall1,21379,pop,0,17356,17665,0,0,,,1
5da86d3475d0bc001951ff5c,5y6xdwojf1,Emily_Honors_Thesis_Part_2,1,151,2020-07-20T13:42:30-07:00,35.811429023743,19,versionC_stim_BACKWARD.csv,BACKWARD_IS_JOLVersionD.csv,"BACKWARD IS VERSION C",NEW,SCAR,MAIN,ON2,U,175,99,Test,User,-,,Recall,Recall1,35334,sceptic,18.181818181818,32683,34516,0,0,,,1
5da86d3475d0bc001951ff5c,5y6xdwojf1,Emily_Honors_Thesis_Part_2,1,152,2020-07-20T13:42:38-07:00,8.4294590950012,19,versionC_stim_BACKWARD.csv,BACKWARD_IS_JOLVersionD.csv,"BACKWARD IS VERSION C",NEW,CUT,CHOP,ON2,B,107,100,Test,User,-,,Recall,Recall1,7989,scar,25,5602,7038,0,0,,,1
5da86d3475d0bc001951ff5c,5y6xdwojf1,Emily_Honors_Thesis_Part_2,1,153,2020-07-20T13:43:47-07:00,68.805285930634,19,versionC_stim_BACKWARD.csv,BACKWARD_IS_JOLVersionD.csv,"BACKWARD IS VERSION C",NEW,OBTAIN,MEAT,ON2,U,161,169,Test,User,-,,Recall,Recall1,68281,gain,25,66859,67355,0,0,,,0.477
5da86d3475d0bc001951ff5c,5y6xdwojf1,Emily_Honors_Thesis_Part_2,1,154,2020-07-20T13:44:03-07:00,15.959025144577,19,versionC_stim_BACKWARD.csv,BACKWARD_IS_JOLVersionD.csv,"BACKWARD IS VERSION C",NEW,LONG,EXTENSION,ON2,B,96,150,Test,User,-,,Recall,Recall1,15502,stretch,12.5,2741,3674,0,0,,,1
5da86d3475d0bc001951ff5c,5y6xdwojf1,Emily_Honors_Thesis_Part_2,1,155,2020-07-20T13:44:11-07:00,8.606871843338,19,versionC_stim_BACKWARD.csv,BACKWARD_IS_JOLVersionD.csv,"BACKWARD IS VERSION C",NEW,FLIP,TURN,ON2,F,116,115,Test,User,-,,Recall,Recall1,8100,turn,100,7082,7491,1,1,,,1
5da86d3475d0bc001951ff5c,5y6xdwojf1,Emily_Honors_Thesis_Part_2,1,156,2020-07-20T13:45:05-07:00,53.521669149399,19,versionC_stim_BACKWARD.csv,BACKWARD_IS_JOLVersionD.csv,"BACKWARD IS VERSION C",NEW,ABLE,CRACKLE,ON2,U,162,137,Test,User,-,,Recall,Recall1,53012,capable,57.142857142857,51422,52815,0,0,,,0.748
5da86d3475d0bc001951ff5c,5y6xdwojf1,Emily_Honors_Thesis_Part_2,1,157,2020-07-20T13:45:30-07:00,24.729324817657,19,versionC_stim_BACKWARD.csv,BACKWARD_IS_JOLVersionD.csv,"BACKWARD IS VERSION C",NEW,CHARM,VEHICLE,ON2,U,160,135,Test,User,-,,Recall,Recall1,24290,gift,18.181818181818,1920,2744,0,0,,,1
5da86d3475d0bc001951ff5c,5y6xdwojf1,Emily_Honors_Thesis_Part_2,1,158,2020-07-20T13:45:43-07:00,13.698583126068,19,versionC_stim_BACKWARD.csv,BACKWARD_IS_JOLVersionD.csv,"BACKWARD IS VERSION C",NEW,RED,CHERRY,ON2,B,104,172,Test,User,-,,Recall,Recall1,13288,cherry,100,4021,12986,1,1,,,1
5da86d3475d0bc001951ff5c,5y6xdwojf1,Emily_Honors_Thesis_Part_2,1,159,2020-07-20T13:45:46-07:00,2.5344479084015,19,versionC_stim_BACKWARD.csv,BACKWARD_IS_JOLVersionD.csv,"BACKWARD IS VERSION C",NEW,SARDINE,FISH,ON2,F,130,114,Test,User,-,,Recall,Recall1,2124,fish,100,1394,1795,1,1,,,1
5da86d3475d0bc001951ff5c,5y6xdwojf1,Emily_Honors_Thesis_Part_2,1,160,2020-07-20T13:45:49-07:00,2.6770770549774,19,versionC_stim_BACKWARD.csv,BACKWARD_IS_JOLVersionD.csv,"BACKWARD IS VERSION C",NEW,STEAK,GIVE,ON2,U,158,159,Test,User,-,,Recall,Recall1,2222,meat,25,1352,2035,0,0,,,1
5da86d3475d0bc001951ff5c,5y6xdwojf1,Emily_Honors_Thesis_Part_2,1,161,2020-07-20T13:45:51-07:00,2.6412839889526,19,versionC_stim_BACKWARD.csv,BACKWARD_IS_JOLVersionD.csv,"BACKWARD IS VERSION C",NEW,PENGUIN,BIRD,ON2,F,119,108,Test,User,-,,Recall,Recall1,2216,bird,100,1543,2025,1,1,,,1
5da86d3475d0bc001951ff5c,5y6xdwojf1,Emily_Honors_Thesis_Part_2,1,162,2020-07-20T13:46:19-07:00,27.989861011505,19,versionC_stim_BACKWARD.csv,BACKWARD_IS_JOLVersionD.csv,"BACKWARD IS VERSION C",NEW,FAVORITE,BEST,ON2,F,125,153,Test,User,-,,Recall,Recall1,27571,affection,30.769230769231,15209,16813,0,0,,,1
5da86d3475d0bc001951ff5c,5y6xdwojf1,Emily_Honors_Thesis_Part_2,1,163,2020-07-20T13:50:10-07:00,230.3535490036,19,versionC_stim_BACKWARD.csv,BACKWARD_IS_JOLVersionD.csv,"BACKWARD IS VERSION C",NEW,REVENGE,EVEN,ON2,F,122,161,Test,User,-,,Recall,Recall1,229617,feud,25,13823,14361,0,0,,,0.358
5da86d3475d0bc001951ff5c,5y6xdwojf1,Emily_Honors_Thesis_Part_2,1,164,2020-07-20T13:50:13-07:00,3.1005449295044,19,versionC_stim_BACKWARD.csv,BACKWARD_IS_JOLVersionD.csv,"BACKWARD IS VERSION C",NEW,BALLOON,POP,ON2,F,123,142,Test,User,-,,Recall,Recall1,2454,pop,100,1593,1839,1,1,,,1
5da86d3475d0bc001951ff5c,5y6xdwojf1,Emily_Honors_Thesis_Part_2,1,165,2020-07-20T13:50:16-07:00,3.3897950649261,19,versionC_stim_BACKWARD.csv,BACKWARD_IS_JOLVersionD.csv,"BACKWARD IS VERSION C",NEW,MAROON,JUSTICE,ON2,U,156,139,Test,User,-,,Recall,Recall1,2992,red,20,1738,2074,0,0,,,1
5da86d3475d0bc001951ff5c,5y6xdwojf1,Emily_Honors_Thesis_Part_2,1,166,2020-07-20T13:50:21-07:00,5.2850480079651,19,versionC_stim_BACKWARD.csv,BACKWARD_IS_JOLVersionD.csv,"BACKWARD IS VERSION C",NEW,LONELY,ALONE,ON2,S,145,146,Test,User,-,,Recall,Recall1,4858,alone,100,3347,4145,1,1,,,1
5da86d3475d0bc001951ff5c,5y6xdwojf1,Emily_Honors_Thesis_Part_2,1,167,2020-07-20T13:51:03-07:00,41.678329944611,19,versionC_stim_BACKWARD.csv,BACKWARD_IS_JOLVersionD.csv,"BACKWARD IS VERSION C",NEW,HAVE,OWN,ON2,S,153,175,Test,User,-,,Recall,Recall1,41169,got,33.333333333333,18991,40803,0,0,,,1
5da86d3475d0bc001951ff5c,5y6xdwojf1,Emily_Honors_Thesis_Part_2,1,168,2020-07-20T13:51:20-07:00,17.010848999023,19,versionC_stim_BACKWARD.csv,BACKWARD_IS_JOLVersionD.csv,"BACKWARD IS VERSION C",NEW,TRUTHFUL,HONEST,ON2,F,133,170,Test,User,-,,Recall,Recall1,16494,honest,100,15197,16107,1,1,,,1
5da86d3475d0bc001951ff5c,5y6xdwojf1,Emily_Honors_Thesis_Part_2,1,169,2020-07-20T13:51:25-07:00,5.0179419517517,19,versionC_stim_BACKWARD.csv,BACKWARD_IS_JOLVersionD.csv,"BACKWARD IS VERSION C",NEW,TICK,FLEA,ON2,S,151,163,Test,User,-,,Recall,Recall1,4526,flea,100,3682,4170,1,1,,,1
5da86d3475d0bc001951ff5c,5y6xdwojf1,Emily_Honors_Thesis_Part_2,1,170,2020-07-20T13:51:28-07:00,3.1861011981964,19,versionC_stim_BACKWARD.csv,BACKWARD_IS_JOLVersionD.csv,"BACKWARD IS VERSION C",NEW,SEATBELT,SAFETY,ON2,S,147,144,Test,User,-,,Recall,Recall1,2723,car,22.222222222222,1797,2173,0,0,,,1
5da86d3475d0bc001951ff5c,5y6xdwojf1,Emily_Honors_Thesis_Part_2,1,171,2020-07-20T13:51:41-07:00,13.199402809143,19,versionC_stim_BACKWARD.csv,BACKWARD_IS_JOLVersionD.csv,"BACKWARD IS VERSION C",NEW,LOVE,AFFECTION,ON2,B,115,165,Test,User,-,,Recall,Recall1,12777,affection,100,10353,12192,1,1,,,1
5da86d3475d0bc001951ff5c,5y6xdwojf1,Emily_Honors_Thesis_Part_2,1,172,2020-07-20T13:51:59-07:00,17.135419130325,19,versionC_stim_BACKWARD.csv,BACKWARD_IS_JOLVersionD.csv,"BACKWARD IS VERSION C",NEW,CAR,DRIVER,ON2,B,106,133,Test,User,-,,Recall,Recall1,16673,driver,100,15162,15939,1,1,,,1
5da86d3475d0bc001951ff5c,5y6xdwojf1,Emily_Honors_Thesis_Part_2,1,173,2020-07-20T13:53:08-07:00,69.374910831451,19,versionC_stim_BACKWARD.csv,BACKWARD_IS_JOLVersionD.csv,"BACKWARD IS VERSION C",NEW,TOIL,LEASE,ON2,U,170,166,Test,User,-,,Recall,Recall1,68859,labour,36.363636363636,67714,68601,0,0,,,0.813
5da86d3475d0bc001951ff5c,5y6xdwojf1,Emily_Honors_Thesis_Part_2,1,174,2020-07-20T13:53:11-07:00,3.1481812000275,19,versionC_stim_BACKWARD.csv,BACKWARD_IS_JOLVersionD.csv,"BACKWARD IS VERSION C",NEW,PANTHER,CAT,ON2,F,126,125,Test,User,-,,Recall,Recall1,2730,cat,100,1447,2225,1,1,,,1
5da86d3475d0bc001951ff5c,5y6xdwojf1,Emily_Honors_Thesis_Part_2,1,175,2020-07-20T13:53:30-07:00,18.567307949066,19,versionC_stim_BACKWARD.csv,BACKWARD_IS_JOLVersionD.csv,"BACKWARD IS VERSION C",NEW,CLOTHES,CAKE,ON2,U,166,124,Test,User,-,,Recall,Recall1,18132,style,22.222222222222,1766,17712,0,0,,,1
5da86d3475d0bc001951ff5c,5y6xdwojf1,Emily_Honors_Thesis_Part_2,1,176,2020-07-20T13:53:33-07:00,3.0571870803833,19,versionC_stim_BACKWARD.csv,BACKWARD_IS_JOLVersionD.csv,"BACKWARD IS VERSION C",NEW,WET,DRY,ON2,S,146,109,Test,User,-,,Recall,Recall1,2659,water,25,1844,2471,0,0,,,1
5da86d3475d0bc001951ff5c,5y6xdwojf1,Emily_Honors_Thesis_Part_2,1,177,2020-07-20T13:53:56-07:00,22.932936906815,19,versionC_stim_BACKWARD.csv,BACKWARD_IS_JOLVersionD.csv,"BACKWARD IS VERSION C",NEW,COLD,CHILL,ON2,B,114,162,Test,User,-,,Recall,Recall1,22486,days,0,13000,21890,0,0,,,1
5da86d3475d0bc001951ff5c,5y6xdwojf1,Emily_Honors_Thesis_Part_2,1,178,2020-07-20T13:54:12-07:00,16.678456068039,19,versionC_stim_BACKWARD.csv,BACKWARD_IS_JOLVersionD.csv,"BACKWARD IS VERSION C",NEW,EAT,DINE,ON2,B,111,106,Test,User,-,,Recall,Recall1,16228,meat,25,14815,15355,0,0,,,1
5da86d3475d0bc001951ff5c,5y6xdwojf1,Emily_Honors_Thesis_Part_2,1,179,2020-07-20T13:54:24-07:00,11.347158908844,19,versionC_stim_BACKWARD.csv,BACKWARD_IS_JOLVersionD.csv,"BACKWARD IS VERSION C",NEW,LIE,TRUTH,ON2,S,148,103,Test,User,-,,Recall,Recall1,10904,sceptic,16.666666666667,7951,10647,0,0,,,1
5da86d3475d0bc001951ff5c,5y6xdwojf1,Emily_Honors_Thesis_Part_2,1,180,2020-07-20T13:54:27-07:00,2.9739079475403,19,versionC_stim_BACKWARD.csv,BACKWARD_IS_JOLVersionD.csv,"BACKWARD IS VERSION C",NEW,DONKEY,MULE,ON2,B,108,149,Test,User,-,,Recall,Recall1,2591,mule,100,1666,2215,1,1,,,1
5da86d3475d0bc001951ff5c,5y6xdwojf1,Emily_Honors_Thesis_Part_2,1,181,2020-07-20T13:54:30-07:00,3.2093260288239,19,versionC_stim_BACKWARD.csv,BACKWARD_IS_JOLVersionD.csv,"BACKWARD IS VERSION C",NEW,MYSTERY,DETECTIVE,ON2,B,100,147,Test,User,-,,Recall,Recall1,2814,clue,30.769230769231,1738,2545,0,0,,,1
5da86d3475d0bc001951ff5c,5y6xdwojf1,Emily_Honors_Thesis_Part_2,1,182,2020-07-20T13:54:33-07:00,2.7718629837036,19,versionC_stim_BACKWARD.csv,BACKWARD_IS_JOLVersionD.csv,"BACKWARD IS VERSION C",NEW,JAR,MASON,ON2,S,138,112,Test,User,-,,Recall,Recall1,2379,jam,25,1671,1982,0,0,,,1
5da86d3475d0bc001951ff5c,5y6xdwojf1,Emily_Honors_Thesis_Part_2,1,183,2020-07-20T13:54:35-07:00,2.4968731403351,19,versionC_stim_BACKWARD.csv,BACKWARD_IS_JOLVersionD.csv,"BACKWARD IS VERSION C",NEW,NAP,SLEEP,ON2,F,134,117,Test,User,-,,Recall,Recall1,2094,sleep,100,1088,1747,1,1,,,1
5da86d3475d0bc001951ff5c,5y6xdwojf1,Emily_Honors_Thesis_Part_2,1,184,2020-07-20T13:54:41-07:00,5.8474538326263,19,versionC_stim_BACKWARD.csv,BACKWARD_IS_JOLVersionD.csv,"BACKWARD IS VERSION C",NEW,BRAWL,FIGHT,ON2,F,135,152,Test,User,-,,Recall,Recall1,5405,feud,22.222222222222,1792,5148,0,0,,,1
5da86d3475d0bc001951ff5c,5y6xdwojf1,Emily_Honors_Thesis_Part_2,1,185,2020-07-20T13:54:48-07:00,7.2605199813843,19,versionC_stim_BACKWARD.csv,BACKWARD_IS_JOLVersionD.csv,"BACKWARD IS VERSION C",NEW,OUNCE,BOTH,ON2,U,172,118,Test,User,-,,Recall,Recall1,6825,gram,0,3852,4895,0,0,,,1
5da86d3475d0bc001951ff5c,5y6xdwojf1,Emily_Honors_Thesis_Part_2,1,186,2020-07-20T13:54:51-07:00,2.7795960903168,19,versionC_stim_BACKWARD.csv,BACKWARD_IS_JOLVersionD.csv,"BACKWARD IS VERSION C",NEW,TIE,SHOELACE,ON2,B,99,136,Test,User,-,,Recall,Recall1,2363,bow,18.181818181818,1466,1808,0,0,,,1
5da86d3475d0bc001951ff5c,5y6xdwojf1,Emily_Honors_Thesis_Part_2,1,187,2020-07-20T13:55:02-07:00,10.840287923813,19,versionC_stim_BACKWARD.csv,BACKWARD_IS_JOLVersionD.csv,"BACKWARD IS VERSION C",NEW,BANG,FUZZY,ON2,U,168,107,Test,User,-,,Recall,Recall1,10453,loud,22.222222222222,7426,10201,0,0,,,1
5da86d3475d0bc001951ff5c,5y6xdwojf1,Emily_Honors_Thesis_Part_2,1,188,2020-07-20T13:55:34-07:00,32.179356098175,19,versionC_stim_BACKWARD.csv,BACKWARD_IS_JOLVersionD.csv,"BACKWARD IS VERSION C",NEW,MORNING,TEMPERATURE,ON2,U,173,167,Test,User,-,,Recall,Recall1,31628,month,25,28865,31119,0,0,,,1
5da86d3475d0bc001951ff5c,5y6xdwojf1,Emily_Honors_Thesis_Part_2,1,189,2020-07-20T13:55:43-07:00,9.0410299301147,19,versionC_stim_BACKWARD.csv,BACKWARD_IS_JOLVersionD.csv,"BACKWARD IS VERSION C",NEW,THIMBLE,THREAD,ON2,F,121,128,Test,User,-,,Recall,Recall1,8589,thread,100,6925,7958,1,1,,,1
5da86d3475d0bc001951ff5c,5y6xdwojf1,Emily_Honors_Thesis_Part_2,1,190,2020-07-20T13:55:48-07:00,5.4177899360657,19,versionC_stim_BACKWARD.csv,BACKWARD_IS_JOLVersionD.csv,"BACKWARD IS VERSION C",NEW,DRINK,WATER,ON2,S,143,174,Test,User,-,,Recall,Recall1,5030,water,100,1489,4418,1,1,,,1
5da86d3475d0bc001951ff5c,5y6xdwojf1,Emily_Honors_Thesis_Part_2,1,191,2020-07-20T13:55:53-07:00,4.881245136261,19,versionC_stim_BACKWARD.csv,BACKWARD_IS_JOLVersionD.csv,"BACKWARD IS VERSION C",NEW,ACTRESS,STAR,ON2,F,120,120,Test,User,-,,Recall,Recall1,4479,star,100,3195,3596,1,1,,,1
5da86d3475d0bc001951ff5c,5y6xdwojf1,Emily_Honors_Thesis_Part_2,1,192,2020-07-20T13:56:12-07:00,18.456805944443,19,versionC_stim_BACKWARD.csv,BACKWARD_IS_JOLVersionD.csv,"BACKWARD IS VERSION C",NEW,BREAKABLE,GLASS,ON2,F,127,164,Test,User,-,,Recall,Recall1,18065,glass,100,17218,17896,1,1,,,1
5da86d3475d0bc001951ff5c,5y6xdwojf1,Emily_Honors_Thesis_Part_2,1,193,2020-07-20T13:56:17-07:00,5.5624270439148,19,versionC_stim_BACKWARD.csv,BACKWARD_IS_JOLVersionD.csv,"BACKWARD IS VERSION C",NEW,SCISSORS,SHEARS,ON2,B,112,122,Test,User,-,,Recall,Recall1,5159,sheers,83.333333333333,3374,4756,0,1,,,1
5da86d3475d0bc001951ff5c,5y6xdwojf1,Emily_Honors_Thesis_Part_2,1,194,2020-07-20T13:56:45-07:00,27.762876987457,19,versionC_stim_BACKWARD.csv,BACKWARD_IS_JOLVersionD.csv,"BACKWARD IS VERSION C",NEW,WAX,CANDLE,ON2,S,139,116,Test,User,-,,Recall,Recall1,27352,crayon,50,2451,5136,0,0,,,1
5da86d3475d0bc001951ff5c,5y6xdwojf1,Emily_Honors_Thesis_Part_2,1,195,2020-07-20T13:56:47-07:00,1.5531930923462,19,versionC_stim_BACKWARD.csv,BACKWARD_IS_JOLVersionD.csv,"BACKWARD IS VERSION C",NEW,,,,,,0,Instruct,User,-,"You have completed this section. Please press Enter.",Filler_Instruction,Instruct31,1117,,,-1,-1,,,,,1
5da86d3475d0bc001951ff5c,5y6xdwojf1,Emily_Honors_Thesis_Part_2,1,196,2020-07-20T13:57:03-07:00,16.645828008652,19,versionC_stim_BACKWARD.csv,BACKWARD_IS_JOLVersionD.csv,"BACKWARD IS VERSION C",NEW,,,,,,0,Instruct,-,12,"The order that words are presented in can affect how well you remember them. For example, the pairs CREDIT-CARD and CARD-CREDIT both have the same words, but people are less likely to remember CARD-CREDIT because the order is uncommon. On the next screen you will be shown a graph illustrating this finding. Please study it for at least 20 seconds.",,BACKWARD_INSTRUCTIONS1,16210,,,-1,-1,,,,,1
5da86d3475d0bc001951ff5c,5y6xdwojf1,Emily_Honors_Thesis_Part_2,1,197,2020-07-20T13:57:44-07:00,40.196213960648,19,versionC_stim_BACKWARD.csv,BACKWARD_IS_JOLVersionD.csv,"BACKWARD IS VERSION C",NEW,images/Sample.jpg,"Forward pairs (CREDIT-CARD) are remembered better than Backward pairs (CARD-CREDIT) and Symmetrical pairs (KING-QUEEN), even though people rate their ability to remember them the same way. Please keep this in mind as you make your ratings!",,,,192,StudyPic,-,20,,,GRAPH1,39759,,,-1,-1,,,,,1
5da86d3475d0bc001951ff5c,5y6xdwojf1,Emily_Honors_Thesis_Part_2,1,198,2020-07-20T13:57:55-07:00,11.561513900757,19,versionC_stim_BACKWARD.csv,BACKWARD_IS_JOLVersionD.csv,"BACKWARD IS VERSION C",NEW,,,,,,0,FreeRecall,-,10,"Based on the graph you just studied, what pair type is best remembered (Forward, Backward, or Symmetrical)?",,BACKWARD_INSTRUCTIONS2,11134,"forward ",0,4263,5661,0,0,,,1
5da86d3475d0bc001951ff5c,5y6xdwojf1,Emily_Honors_Thesis_Part_2,1,199,2020-07-20T13:58:09-07:00,13.539659023285,19,versionC_stim_BACKWARD.csv,BACKWARD_IS_JOLVersionD.csv,"BACKWARD IS VERSION C",NEW,,,,,,0,Instruct,-,10,"You will now be presented with a new set of word pairs. Please study each pair. Remember that your memory will be tested! When finished, press Enter to move to the next pair.",Initial_Instruct,Instruct4,13089,,,-1,-1,,,,,1
5da86d3475d0bc001951ff5c,5y6xdwojf1,Emily_Honors_Thesis_Part_2,1,200,2020-07-20T13:58:22-07:00,12.948237895966,19,versionC_stim_BACKWARD.csv,BACKWARD_IS_JOLVersionD.csv,"BACKWARD IS VERSION C",NEW,,,,,,0,Instruct,,10,"You will again be asked to rate your ability to remember these items using a 0 to 100 scale. Remember to use the full range of the scale!",,Instruct10,11554,,,-1,-1,,,,,1
5da86d3475d0bc001951ff5c,5y6xdwojf1,Emily_Honors_Thesis_Part_2,1,201,2020-07-20T13:58:38-07:00,16.319439172745,19,versionC_stim_BACKWARD.csv,BACKWARD_IS_JOLVersionD.csv,"BACKWARD IS VERSION C",NEW,,,,,,0,Instruct,-,15,"As you study and make your ratings, please think about the unique featues of each item and how the two concepts are DIFFERENT from each other. For example, if you see the pair TURTLE-CAT, think about how TURTLES have shells and are reptiles, while CATS are mammals and have fur.",,Instruct20,15875,,,-1,-1,,,,,1
5da86d3475d0bc001951ff5c,5y6xdwojf1,Emily_Honors_Thesis_Part_2,1,202,2020-07-20T13:58:57-07:00,19.247292041779,19,versionC_stim_BACKWARD.csv,BACKWARD_IS_JOLVersionD.csv,"BACKWARD IS VERSION C",NEW,,,,,,0,FreeRecall,-,10,"What you should think about as you study each item pair? Type your response in the box below.",,CHECK4,18682,"how each are different",0,6392,16468,0,0,,,1
5da86d3475d0bc001951ff5c,5y6xdwojf1,Emily_Honors_Thesis_Part_2,1,203,2020-07-20T13:58:59-07:00,2.2299838066101,19,versionC_stim_BACKWARD.csv,BACKWARD_IS_JOLVersionD.csv,"BACKWARD IS VERSION C",NEW,,,,,,0,Instruct,User,-,"Press Enter when you are readty to begin",,Instruct11,1731,,,-1,-1,,,,,1
5da86d3475d0bc001951ff5c,5y6xdwojf1,Emily_Honors_Thesis_Part_2,1,204,2020-07-20T13:59:13-07:00,14.044193029404,19,versionC_stim_BACKWARD.csv,BACKWARD_IS_JOLVersionD.csv,"BACKWARD IS VERSION C",NEW,JAM,SPACE,Buffer,Buffer,5,4,JOL,User,-,"How likely are you to correctly recall the second item in the pair?|Type your response on a scale from 0-100 and then press Enter.",Study/JOL,BUFFER3,13555,,,11479,11674,,,,40,0.969
5da86d3475d0bc001951ff5c,5y6xdwojf1,Emily_Honors_Thesis_Part_2,1,205,2020-07-20T13:59:19-07:00,5.8057670593262,19,versionC_stim_BACKWARD.csv,BACKWARD_IS_JOLVersionD.csv,"BACKWARD IS VERSION C",NEW,CATCHER,BASEBALL,Buffer,Buffer,2,3,JOL,User,-,"How likely are you to correctly recall the second item in the pair?|Type your response on a scale from 0-100 and then press Enter.",Study/JOL,BUFFER3,5388,,,4889,5076,,,,20,1
5da86d3475d0bc001951ff5c,5y6xdwojf1,Emily_Honors_Thesis_Part_2,1,206,2020-07-20T13:59:23-07:00,3.3351359367371,19,versionC_stim_BACKWARD.csv,BACKWARD_IS_JOLVersionD.csv,"BACKWARD IS VERSION C",NEW,HIDE,SCARE,Buffer,Buffer,4,6,JOL,User,-,"How likely are you to correctly recall the second item in the pair?|Type your response on a scale from 0-100 and then press Enter.",Study/JOL,BUFFER3,2932,,,2401,2569,,,,50,1
5da86d3475d0bc001951ff5c,5y6xdwojf1,Emily_Honors_Thesis_Part_2,1,207,2020-07-20T13:59:26-07:00,3.2341849803925,19,versionC_stim_BACKWARD.csv,BACKWARD_IS_JOLVersionD.csv,"BACKWARD IS VERSION C",NEW,GREEN,TREES,Buffer,Buffer,1,5,JOL,User,-,"How likely are you to correctly recall the second item in the pair?|Type your response on a scale from 0-100 and then press Enter.",Study/JOL,BUFFER3,2850,,,1865,2295,,,,100,1
5da86d3475d0bc001951ff5c,5y6xdwojf1,Emily_Honors_Thesis_Part_2,1,208,2020-07-20T13:59:30-07:00,4.3227331638336,19,versionC_stim_BACKWARD.csv,BACKWARD_IS_JOLVersionD.csv,"BACKWARD IS VERSION C",NEW,BUTTER,PEANUT,Buffer,Buffer,3,2,JOL,User,-,"How likely are you to correctly recall the second item in the pair?|Type your response on a scale from 0-100 and then press Enter.",Study/JOL,BUFFER3,3873,,,3029,3197,,,,80,1
5da86d3475d0bc001951ff5c,5y6xdwojf1,Emily_Honors_Thesis_Part_2,1,209,2020-07-20T13:59:34-07:00,3.9781270027161,19,versionC_stim_BACKWARD.csv,BACKWARD_IS_JOLVersionD.csv,"BACKWARD IS VERSION C",NEW,BLAZE,FIRE,ON,F,45,17,JOL,User,-,"How likely are you to correctly recall the second item in the pair?|Type your response on a scale from 0-100 and then press Enter.",Study/JOL,"Study Phase2",3346,,,2842,3044,,,,80,1
5da86d3475d0bc001951ff5c,5y6xdwojf1,Emily_Honors_Thesis_Part_2,1,210,2020-07-20T13:59:42-07:00,8.3041219711304,19,versionC_stim_BACKWARD.csv,BACKWARD_IS_JOLVersionD.csv,"BACKWARD IS VERSION C",NEW,DESIGN,ARCHITECTURE,ON,S,51,24,JOL,User,-,"How likely are you to correctly recall the second item in the pair?|Type your response on a scale from 0-100 and then press Enter.",Study/JOL,"Study Phase2",7862,,,7269,7554,,,,50,1
5da86d3475d0bc001951ff5c,5y6xdwojf1,Emily_Honors_Thesis_Part_2,1,211,2020-07-20T13:59:45-07:00,3.0813479423523,19,versionC_stim_BACKWARD.csv,BACKWARD_IS_JOLVersionD.csv,"BACKWARD IS VERSION C",NEW,COW,HERD,ON,B,22,32,JOL,User,-,"How likely are you to correctly recall the second item in the pair?|Type your response on a scale from 0-100 and then press Enter.",Study/JOL,"Study Phase2",2691,,,2232,2439,,,,20,1
5da86d3475d0bc001951ff5c,5y6xdwojf1,Emily_Honors_Thesis_Part_2,1,212,2020-07-20T13:59:50-07:00,4.6019310951233,19,versionC_stim_BACKWARD.csv,BACKWARD_IS_JOLVersionD.csv,"BACKWARD IS VERSION C",NEW,SITE,LOCATION,ON,S,48,75,JOL,User,-,"How likely are you to correctly recall the second item in the pair?|Type your response on a scale from 0-100 and then press Enter.",Study/JOL,"Study Phase2",4205,,,3711,3938,,,,80,1
5da86d3475d0bc001951ff5c,5y6xdwojf1,Emily_Honors_Thesis_Part_2,1,213,2020-07-20T13:59:54-07:00,3.897766828537,19,versionC_stim_BACKWARD.csv,BACKWARD_IS_JOLVersionD.csv,"BACKWARD IS VERSION C",NEW,CAVE,DARK,ON,F,28,73,JOL,User,-,"How likely are you to correctly recall the second item in the pair?|Type your response on a scale from 0-100 and then press Enter.",Study/JOL,"Study Phase2",3509,,,2132,2731,,,,40,1
5da86d3475d0bc001951ff5c,5y6xdwojf1,Emily_Honors_Thesis_Part_2,1,214,2020-07-20T13:59:57-07:00,3.1968359947205,19,versionC_stim_BACKWARD.csv,BACKWARD_IS_JOLVersionD.csv,"BACKWARD IS VERSION C",NEW,BUSINESS,DEATH,ON,U,72,57,JOL,User,-,"How likely are you to correctly recall the second item in the pair?|Type your response on a scale from 0-100 and then press Enter.",Study/JOL,"Study Phase2",2724,,,2395,2395,,,,0,1
5da86d3475d0bc001951ff5c,5y6xdwojf1,Emily_Honors_Thesis_Part_2,1,215,2020-07-20T14:00:00-07:00,2.8477289676666,19,versionC_stim_BACKWARD.csv,BACKWARD_IS_JOLVersionD.csv,"BACKWARD IS VERSION C",NEW,CHORE,WORK,ON,F,39,37,JOL,User,-,"How likely are you to correctly recall the second item in the pair?|Type your response on a scale from 0-100 and then press Enter.",Study/JOL,"Study Phase2",2422,,,1883,2140,,,,50,1
5da86d3475d0bc001951ff5c,5y6xdwojf1,Emily_Honors_Thesis_Part_2,1,216,2020-07-20T14:00:03-07:00,2.6625192165375,19,versionC_stim_BACKWARD.csv,BACKWARD_IS_JOLVersionD.csv,"BACKWARD IS VERSION C",NEW,NEWS,EDITOR,ON,B,10,31,JOL,User,-,"How likely are you to correctly recall the second item in the pair?|Type your response on a scale from 0-100 and then press Enter.",Study/JOL,"Study Phase2",2286,,,1815,2039,,,,80,1
5da86d3475d0bc001951ff5c,5y6xdwojf1,Emily_Honors_Thesis_Part_2,1,217,2020-07-20T14:00:06-07:00,3.6704318523407,19,versionC_stim_BACKWARD.csv,BACKWARD_IS_JOLVersionD.csv,"BACKWARD IS VERSION C",NEW,END,BEGIN,ON,S,54,68,JOL,User,-,"How likely are you to correctly recall the second item in the pair?|Type your response on a scale from 0-100 and then press Enter.",Study/JOL,"Study Phase2",3235,,,2682,2903,,,,80,1
5da86d3475d0bc001951ff5c,5y6xdwojf1,Emily_Honors_Thesis_Part_2,1,218,2020-07-20T14:00:10-07:00,3.4740810394287,19,versionC_stim_BACKWARD.csv,BACKWARD_IS_JOLVersionD.csv,"BACKWARD IS VERSION C",NEW,DEFINITION,MEANING,ON,S,62,72,JOL,User,-,"How likely are you to correctly recall the second item in the pair?|Type your response on a scale from 0-100 and then press Enter.",Study/JOL,"Study Phase2",3074,,,2147,2585,,,,100,1
5da86d3475d0bc001951ff5c,5y6xdwojf1,Emily_Honors_Thesis_Part_2,1,219,2020-07-20T14:00:12-07:00,2.3619930744171,19,versionC_stim_BACKWARD.csv,BACKWARD_IS_JOLVersionD.csv,"BACKWARD IS VERSION C",NEW,WASP,BUG,ON,F,32,48,JOL,User,-,"How likely are you to correctly recall the second item in the pair?|Type your response on a scale from 0-100 and then press Enter.",Study/JOL,"Study Phase2",1960,,,1172,1637,,,,100,1
5da86d3475d0bc001951ff5c,5y6xdwojf1,Emily_Honors_Thesis_Part_2,1,220,2020-07-20T14:00:14-07:00,2.2579078674316,19,versionC_stim_BACKWARD.csv,BACKWARD_IS_JOLVersionD.csv,"BACKWARD IS VERSION C",NEW,CHEESE,WINE,ON,S,57,65,JOL,User,-,"How likely are you to correctly recall the second item in the pair?|Type your response on a scale from 0-100 and then press Enter.",Study/JOL,"Study Phase2",1826,,,1151,1563,,,,100,1
5da86d3475d0bc001951ff5c,5y6xdwojf1,Emily_Honors_Thesis_Part_2,1,221,2020-07-20T14:00:19-07:00,4.1192491054535,19,versionC_stim_BACKWARD.csv,BACKWARD_IS_JOLVersionD.csv,"BACKWARD IS VERSION C",NEW,WOMAN,LIFT,ON,U,69,53,JOL,User,-,"How likely are you to correctly recall the second item in the pair?|Type your response on a scale from 0-100 and then press Enter.",Study/JOL,"Study Phase2",3550,,,3040,3277,,,,20,1
5da86d3475d0bc001951ff5c,5y6xdwojf1,Emily_Honors_Thesis_Part_2,1,222,2020-07-20T14:00:21-07:00,2.577693939209,19,versionC_stim_BACKWARD.csv,BACKWARD_IS_JOLVersionD.csv,"BACKWARD IS VERSION C",NEW,ROCK,GEOLOGY,ON,B,19,21,JOL,User,-,"How likely are you to correctly recall the second item in the pair?|Type your response on a scale from 0-100 and then press Enter.",Study/JOL,"Study Phase2",2167,,,1693,1919,,,,50,1
5da86d3475d0bc001951ff5c,5y6xdwojf1,Emily_Honors_Thesis_Part_2,1,223,2020-07-20T14:00:24-07:00,2.3744919300079,19,versionC_stim_BACKWARD.csv,BACKWARD_IS_JOLVersionD.csv,"BACKWARD IS VERSION C",NEW,JURY,TRIAL,ON,S,50,18,JOL,User,-,"How likely are you to correctly recall the second item in the pair?|Type your response on a scale from 0-100 and then press Enter.",Study/JOL,"Study Phase2",1954,,,1473,1705,,,,50,1
5da86d3475d0bc001951ff5c,5y6xdwojf1,Emily_Honors_Thesis_Part_2,1,224,2020-07-20T14:00:25-07:00,1.7385191917419,19,versionC_stim_BACKWARD.csv,BACKWARD_IS_JOLVersionD.csv,"BACKWARD IS VERSION C",NEW,BIRD,SWAN,ON,B,14,28,JOL,User,-,"How likely are you to correctly recall the second item in the pair?|Type your response on a scale from 0-100 and then press Enter.",Study/JOL,"Study Phase2",1360,,,1350,1350,,,,5,1
5da86d3475d0bc001951ff5c,5y6xdwojf1,Emily_Honors_Thesis_Part_2,1,225,2020-07-20T14:00:29-07:00,3.6792209148407,19,versionC_stim_BACKWARD.csv,BACKWARD_IS_JOLVersionD.csv,"BACKWARD IS VERSION C",NEW,STOMACH,DIGESTION,ON,B,7,44,JOL,User,-,"How likely are you to correctly recall the second item in the pair?|Type your response on a scale from 0-100 and then press Enter.",Study/JOL,"Study Phase2",3226,,,2628,2885,,,,40,1
5da86d3475d0bc001951ff5c,5y6xdwojf1,Emily_Honors_Thesis_Part_2,1,226,2020-07-20T14:00:32-07:00,3.5339360237122,19,versionC_stim_BACKWARD.csv,BACKWARD_IS_JOLVersionD.csv,"BACKWARD IS VERSION C",NEW,FLOWER,ORCHID,ON,B,24,35,JOL,User,-,"How likely are you to correctly recall the second item in the pair?|Type your response on a scale from 0-100 and then press Enter.",Study/JOL,"Study Phase2",3130,,,1924,2648,,,,40,1
5da86d3475d0bc001951ff5c,5y6xdwojf1,Emily_Honors_Thesis_Part_2,1,227,2020-07-20T14:00:35-07:00,2.0969429016113,19,versionC_stim_BACKWARD.csv,BACKWARD_IS_JOLVersionD.csv,"BACKWARD IS VERSION C",NEW,PLANT,ROOT,ON,B,13,30,JOL,User,-,"How likely are you to correctly recall the second item in the pair?|Type your response on a scale from 0-100 and then press Enter.",Study/JOL,"Study Phase2",1712,,,1171,1444,,,,40,1
5da86d3475d0bc001951ff5c,5y6xdwojf1,Emily_Honors_Thesis_Part_2,1,228,2020-07-20T14:00:37-07:00,2.6222369670868,19,versionC_stim_BACKWARD.csv,BACKWARD_IS_JOLVersionD.csv,"BACKWARD IS VERSION C",NEW,WASTE,DUMP,ON,S,49,26,JOL,User,-,"How likely are you to correctly recall the second item in the pair?|Type your response on a scale from 0-100 and then press Enter.",Study/JOL,"Study Phase2",1997,,,1378,1734,,,,40,1
5da86d3475d0bc001951ff5c,5y6xdwojf1,Emily_Honors_Thesis_Part_2,1,229,2020-07-20T14:00:40-07:00,2.3110871315002,19,versionC_stim_BACKWARD.csv,BACKWARD_IS_JOLVersionD.csv,"BACKWARD IS VERSION C",NEW,MONEY,WAGE,ON,B,8,83,JOL,User,-,"How likely are you to correctly recall the second item in the pair?|Type your response on a scale from 0-100 and then press Enter.",Study/JOL,"Study Phase2",1897,,,1367,1634,,,,20,1
5da86d3475d0bc001951ff5c,5y6xdwojf1,Emily_Honors_Thesis_Part_2,1,230,2020-07-20T14:00:43-07:00,3.5404238700867,19,versionC_stim_BACKWARD.csv,BACKWARD_IS_JOLVersionD.csv,"BACKWARD IS VERSION C",NEW,SACKING,DIETARY,ON,U,67,36,JOL,User,-,"How likely are you to correctly recall the second item in the pair?|Type your response on a scale from 0-100 and then press Enter.",Study/JOL,"Study Phase2",3125,,,2887,2887,,,,0,1
5da86d3475d0bc001951ff5c,5y6xdwojf1,Emily_Honors_Thesis_Part_2,1,231,2020-07-20T14:00:47-07:00,3.6452810764313,19,versionC_stim_BACKWARD.csv,BACKWARD_IS_JOLVersionD.csv,"BACKWARD IS VERSION C",NEW,RACKET,BALL,ON,F,38,13,JOL,User,-,"How likely are you to correctly recall the second item in the pair?|Type your response on a scale from 0-100 and then press Enter.",Study/JOL,"Study Phase2",3209,,,2553,2791,,,,30,1
5da86d3475d0bc001951ff5c,5y6xdwojf1,Emily_Honors_Thesis_Part_2,1,232,2020-07-20T14:00:50-07:00,3.1196150779724,19,versionC_stim_BACKWARD.csv,BACKWARD_IS_JOLVersionD.csv,"BACKWARD IS VERSION C",NEW,SEIZE,TAKE,ON,F,29,61,JOL,User,-,"How likely are you to correctly recall the second item in the pair?|Type your response on a scale from 0-100 and then press Enter.",Study/JOL,"Study Phase2",2703,,,2229,2419,,,,30,1
5da86d3475d0bc001951ff5c,5y6xdwojf1,Emily_Honors_Thesis_Part_2,1,233,2020-07-20T14:00:52-07:00,2.6489269733429,19,versionC_stim_BACKWARD.csv,BACKWARD_IS_JOLVersionD.csv,"BACKWARD IS VERSION C",NEW,DROWSY,SLEEP,ON,F,41,29,JOL,User,-,"How likely are you to correctly recall the second item in the pair?|Type your response on a scale from 0-100 and then press Enter.",Study/JOL,"Study Phase2",2271,,,1722,1974,,,,50,1
5da86d3475d0bc001951ff5c,5y6xdwojf1,Emily_Honors_Thesis_Part_2,1,234,2020-07-20T14:00:56-07:00,3.2547008991241,19,versionC_stim_BACKWARD.csv,BACKWARD_IS_JOLVersionD.csv,"BACKWARD IS VERSION C",NEW,BAD,DELINQUENT,ON,B,6,7,JOL,User,-,"How likely are you to correctly recall the second item in the pair?|Type your response on a scale from 0-100 and then press Enter.",Study/JOL,"Study Phase2",2872,,,2396,2633,,,,20,1
5da86d3475d0bc001951ff5c,5y6xdwojf1,Emily_Honors_Thesis_Part_2,1,235,2020-07-20T14:00:59-07:00,2.9261391162872,19,versionC_stim_BACKWARD.csv,BACKWARD_IS_JOLVersionD.csv,"BACKWARD IS VERSION C",NEW,FLOOR,DISCOVER,ON,U,71,12,JOL,User,-,"How likely are you to correctly recall the second item in the pair?|Type your response on a scale from 0-100 and then press Enter.",Study/JOL,"Study Phase2",2538,,,2258,2258,,,,0,1
5da86d3475d0bc001951ff5c,5y6xdwojf1,Emily_Honors_Thesis_Part_2,1,236,2020-07-20T14:01:02-07:00,3.6977648735046,19,versionC_stim_BACKWARD.csv,BACKWARD_IS_JOLVersionD.csv,"BACKWARD IS VERSION C",NEW,HAND,FIX,ON,U,75,78,JOL,User,-,"How likely are you to correctly recall the second item in the pair?|Type your response on a scale from 0-100 and then press Enter.",Study/JOL,"Study Phase2",3270,,,3024,3024,,,,0,1
5da86d3475d0bc001951ff5c,5y6xdwojf1,Emily_Honors_Thesis_Part_2,1,237,2020-07-20T14:01:05-07:00,3.0296361446381,19,versionC_stim_BACKWARD.csv,BACKWARD_IS_JOLVersionD.csv,"BACKWARD IS VERSION C",NEW,CLEAN,HYGIENE,ON,B,17,34,JOL,User,-,"How likely are you to correctly recall the second item in the pair?|Type your response on a scale from 0-100 and then press Enter.",Study/JOL,"Study Phase2",2602,,,2058,2319,,,,80,1
5da86d3475d0bc001951ff5c,5y6xdwojf1,Emily_Honors_Thesis_Part_2,1,238,2020-07-20T14:01:09-07:00,3.4990549087524,19,versionC_stim_BACKWARD.csv,BACKWARD_IS_JOLVersionD.csv,"BACKWARD IS VERSION C",NEW,AMOUNT,NUMBER,ON,S,47,86,JOL,User,-,"How likely are you to correctly recall the second item in the pair?|Type your response on a scale from 0-100 and then press Enter.",Study/JOL,"Study Phase2",3087,,,2555,2821,,,,60,1
5da86d3475d0bc001951ff5c,5y6xdwojf1,Emily_Honors_Thesis_Part_2,1,239,2020-07-20T14:01:13-07:00,3.7726681232452,19,versionC_stim_BACKWARD.csv,BACKWARD_IS_JOLVersionD.csv,"BACKWARD IS VERSION C",NEW,WATER,BRIDGE,ON,B,18,20,JOL,User,-,"How likely are you to correctly recall the second item in the pair?|Type your response on a scale from 0-100 and then press Enter.",Study/JOL,"Study Phase2",3377,,,2911,3129,,,,20,1
5da86d3475d0bc001951ff5c,5y6xdwojf1,Emily_Honors_Thesis_Part_2,1,240,2020-07-20T14:01:20-07:00,7.8225319385529,19,versionC_stim_BACKWARD.csv,BACKWARD_IS_JOLVersionD.csv,"BACKWARD IS VERSION C",NEW,CHILI,HOT,ON,F,37,8,JOL,User,-,"How likely are you to correctly recall the second item in the pair?|Type your response on a scale from 0-100 and then press Enter.",Study/JOL,"Study Phase2",7435,,,5019,5519,,,,70,1
5da86d3475d0bc001951ff5c,5y6xdwojf1,Emily_Honors_Thesis_Part_2,1,241,2020-07-20T14:01:24-07:00,3.9081480503082,19,versionC_stim_BACKWARD.csv,BACKWARD_IS_JOLVersionD.csv,"BACKWARD IS VERSION C",NEW,DIVISION,MATH,ON,F,33,79,JOL,User,-,"How likely are you to correctly recall the second item in the pair?|Type your response on a scale from 0-100 and then press Enter.",Study/JOL,"Study Phase2",3493,,,2996,3182,,,,80,1
5da86d3475d0bc001951ff5c,5y6xdwojf1,Emily_Honors_Thesis_Part_2,1,242,2020-07-20T14:01:28-07:00,3.2195358276367,19,versionC_stim_BACKWARD.csv,BACKWARD_IS_JOLVersionD.csv,"BACKWARD IS VERSION C",NEW,STENCH,SMELL,ON,F,42,60,JOL,User,-,"How likely are you to correctly recall the second item in the pair?|Type your response on a scale from 0-100 and then press Enter.",Study/JOL,"Study Phase2",2845,,,2376,2568,,,,80,1
5da86d3475d0bc001951ff5c,5y6xdwojf1,Emily_Honors_Thesis_Part_2,1,243,2020-07-20T14:01:30-07:00,2.7060329914093,19,versionC_stim_BACKWARD.csv,BACKWARD_IS_JOLVersionD.csv,"BACKWARD IS VERSION C",NEW,BELT,SOON,ON,U,70,51,JOL,User,-,"How likely are you to correctly recall the second item in the pair?|Type your response on a scale from 0-100 and then press Enter.",Study/JOL,"Study Phase2",2326,,,2099,2099,,,,0,1
5da86d3475d0bc001951ff5c,5y6xdwojf1,Emily_Honors_Thesis_Part_2,1,244,2020-07-20T14:01:35-07:00,5.1819961071014,19,versionC_stim_BACKWARD.csv,BACKWARD_IS_JOLVersionD.csv,"BACKWARD IS VERSION C",NEW,,,,,,0,Instruct,-,3,"Remember to focus on how the two items are unique while you study and make your ratings!",,CHECK5,4432,,,-1,-1,,,,,1
5da86d3475d0bc001951ff5c,5y6xdwojf1,Emily_Honors_Thesis_Part_2,1,245,2020-07-20T14:01:42-07:00,6.3472969532013,19,versionC_stim_BACKWARD.csv,BACKWARD_IS_JOLVersionD.csv,"BACKWARD IS VERSION C",NEW,TOILET,BATHROOM,ON,S,58,25,JOL,User,-,"How likely are you to correctly recall the second item in the pair?|Type your response on a scale from 0-100 and then press Enter.",Study/JOL,"Study Phase2",5925,,,5332,5469,,,,80,1
5da86d3475d0bc001951ff5c,5y6xdwojf1,Emily_Honors_Thesis_Part_2,1,246,2020-07-20T14:01:44-07:00,2.6203501224518,19,versionC_stim_BACKWARD.csv,BACKWARD_IS_JOLVersionD.csv,"BACKWARD IS VERSION C",NEW,GROWTH,HEIGHT,ON,F,30,69,JOL,User,-,"How likely are you to correctly recall the second item in the pair?|Type your response on a scale from 0-100 and then press Enter.",Study/JOL,"Study Phase2",2165,,,1597,1739,,,,80,1
5da86d3475d0bc001951ff5c,5y6xdwojf1,Emily_Honors_Thesis_Part_2,1,247,2020-07-20T14:01:48-07:00,3.9285600185394,19,versionC_stim_BACKWARD.csv,BACKWARD_IS_JOLVersionD.csv,"BACKWARD IS VERSION C",NEW,BAR,GRILL,ON,S,52,59,JOL,User,-,"How likely are you to correctly recall the second item in the pair?|Type your response on a scale from 0-100 and then press Enter.",Study/JOL,"Study Phase2",3464,,,2988,3170,,,,50,1
5da86d3475d0bc001951ff5c,5y6xdwojf1,Emily_Honors_Thesis_Part_2,1,248,2020-07-20T14:01:52-07:00,4.0537519454956,19,versionC_stim_BACKWARD.csv,BACKWARD_IS_JOLVersionD.csv,"BACKWARD IS VERSION C",NEW,HAMMER,CHISEL,ON,B,9,52,JOL,User,-,"How likely are you to correctly recall the second item in the pair?|Type your response on a scale from 0-100 and then press Enter.",Study/JOL,"Study Phase2",3636,,,2944,3126,,,,40,1
5da86d3475d0bc001951ff5c,5y6xdwojf1,Emily_Honors_Thesis_Part_2,1,249,2020-07-20T14:01:57-07:00,4.2627928256989,19,versionC_stim_BACKWARD.csv,BACKWARD_IS_JOLVersionD.csv,"BACKWARD IS VERSION C",NEW,ADD,VALLEY,ON,U,82,23,JOL,User,-,"How likely are you to correctly recall the second item in the pair?|Type your response on a scale from 0-100 and then press Enter.",Study/JOL,"Study Phase2",3872,,,2118,2399,,,,0,1
5da86d3475d0bc001951ff5c,5y6xdwojf1,Emily_Honors_Thesis_Part_2,1,250,2020-07-20T14:02:01-07:00,4.1221740245819,19,versionC_stim_BACKWARD.csv,BACKWARD_IS_JOLVersionD.csv,"BACKWARD IS VERSION C",NEW,ASSIGNMENT,DUE,ON,S,46,62,JOL,User,-,"How likely are you to correctly recall the second item in the pair?|Type your response on a scale from 0-100 and then press Enter.",Study/JOL,"Study Phase2",3727,,,3217,3445,,,,40,1
5da86d3475d0bc001951ff5c,5y6xdwojf1,Emily_Honors_Thesis_Part_2,1,251,2020-07-20T14:02:04-07:00,2.9233071804047,19,versionC_stim_BACKWARD.csv,BACKWARD_IS_JOLVersionD.csv,"BACKWARD IS VERSION C",NEW,FUTURE,PAST,ON,S,61,41,JOL,User,-,"How likely are you to correctly recall the second item in the pair?|Type your response on a scale from 0-100 and then press Enter.",Study/JOL,"Study Phase2",2526,,,2051,2213,,,,80,1
5da86d3475d0bc001951ff5c,5y6xdwojf1,Emily_Honors_Thesis_Part_2,1,252,2020-07-20T14:02:06-07:00,2.3865427970886,19,versionC_stim_BACKWARD.csv,BACKWARD_IS_JOLVersionD.csv,"BACKWARD IS VERSION C",NEW,WOULD,CASH,ON,U,83,46,JOL,User,-,"How likely are you to correctly recall the second item in the pair?|Type your response on a scale from 0-100 and then press Enter.",Study/JOL,"Study Phase2",1977,,,1711,1711,,,,0,1
5da86d3475d0bc001951ff5c,5y6xdwojf1,Emily_Honors_Thesis_Part_2,1,253,2020-07-20T14:02:08-07:00,2.3414580821991,19,versionC_stim_BACKWARD.csv,BACKWARD_IS_JOLVersionD.csv,"BACKWARD IS VERSION C",NEW,HUNGRY,PARK,ON,U,68,27,JOL,User,-,"How likely are you to correctly recall the second item in the pair?|Type your response on a scale from 0-100 and then press Enter.",Study/JOL,"Study Phase2",1861,,,1590,1590,,,,0,1
5da86d3475d0bc001951ff5c,5y6xdwojf1,Emily_Honors_Thesis_Part_2,1,254,2020-07-20T14:02:12-07:00,3.7644970417023,19,versionC_stim_BACKWARD.csv,BACKWARD_IS_JOLVersionD.csv,"BACKWARD IS VERSION C",NEW,STING,HORNET,ON,B,11,81,JOL,User,-,"How likely are you to correctly recall the second item in the pair?|Type your response on a scale from 0-100 and then press Enter.",Study/JOL,"Study Phase2",2172,,,1668,1899,,,,50,1
5da86d3475d0bc001951ff5c,5y6xdwojf1,Emily_Honors_Thesis_Part_2,1,255,2020-07-20T14:02:15-07:00,3.1447539329529,19,versionC_stim_BACKWARD.csv,BACKWARD_IS_JOLVersionD.csv,"BACKWARD IS VERSION C",NEW,WORD,SENTENCE,ON,F,31,10,JOL,User,-,"How likely are you to correctly recall the second item in the pair?|Type your response on a scale from 0-100 and then press Enter.",Study/JOL,"Study Phase2",2733,,,2274,2469,,,,50,1
5da86d3475d0bc001951ff5c,5y6xdwojf1,Emily_Honors_Thesis_Part_2,1,256,2020-07-20T14:02:18-07:00,2.8455481529236,19,versionC_stim_BACKWARD.csv,BACKWARD_IS_JOLVersionD.csv,"BACKWARD IS VERSION C",NEW,CARD,CREDIT,ON,B,23,11,JOL,User,-,"How likely are you to correctly recall the second item in the pair?|Type your response on a scale from 0-100 and then press Enter.",Study/JOL,"Study Phase2",2361,,,1900,2092,,,,50,1
5da86d3475d0bc001951ff5c,5y6xdwojf1,Emily_Honors_Thesis_Part_2,1,257,2020-07-20T14:02:21-07:00,2.3180928230286,19,versionC_stim_BACKWARD.csv,BACKWARD_IS_JOLVersionD.csv,"BACKWARD IS VERSION C",NEW,CLUTTER,PUSHER,ON,U,66,54,JOL,User,-,"How likely are you to correctly recall the second item in the pair?|Type your response on a scale from 0-100 and then press Enter.",Study/JOL,"Study Phase2",1904,,,1598,1598,,,,0,1
5da86d3475d0bc001951ff5c,5y6xdwojf1,Emily_Honors_Thesis_Part_2,1,258,2020-07-20T14:02:23-07:00,2.2666840553284,19,versionC_stim_BACKWARD.csv,BACKWARD_IS_JOLVersionD.csv,"BACKWARD IS VERSION C",NEW,SALAD,LETTUCE,ON,S,59,9,JOL,User,-,"How likely are you to correctly recall the second item in the pair?|Type your response on a scale from 0-100 and then press Enter.",Study/JOL,"Study Phase2",1740,,,1275,1452,,,,50,1
5da86d3475d0bc001951ff5c,5y6xdwojf1,Emily_Honors_Thesis_Part_2,1,259,2020-07-20T14:02:28-07:00,4.8568329811096,19,versionC_stim_BACKWARD.csv,BACKWARD_IS_JOLVersionD.csv,"BACKWARD IS VERSION C",NEW,OUT,WAY,ON,B,16,40,JOL,User,-,"How likely are you to correctly recall the second item in the pair?|Type your response on a scale from 0-100 and then press Enter.",Study/JOL,"Study Phase2",3387,,,2903,3120,,,,10,1
5da86d3475d0bc001951ff5c,5y6xdwojf1,Emily_Honors_Thesis_Part_2,1,260,2020-07-20T14:02:30-07:00,2.2863521575928,19,versionC_stim_BACKWARD.csv,BACKWARD_IS_JOLVersionD.csv,"BACKWARD IS VERSION C",NEW,LION,ART,ON,U,79,80,JOL,User,-,"How likely are you to correctly recall the second item in the pair?|Type your response on a scale from 0-100 and then press Enter.",Study/JOL,"Study Phase2",1884,,,1632,1632,,,,0,1
5da86d3475d0bc001951ff5c,5y6xdwojf1,Emily_Honors_Thesis_Part_2,1,261,2020-07-20T14:02:34-07:00,3.7992079257965,19,versionC_stim_BACKWARD.csv,BACKWARD_IS_JOLVersionD.csv,"BACKWARD IS VERSION C",NEW,FANTASTIC,GREAT,ON,F,35,77,JOL,User,-,"How likely are you to correctly recall the second item in the pair?|Type your response on a scale from 0-100 and then press Enter.",Study/JOL,"Study Phase2",3402,,,2898,3100,,,,60,1
5da86d3475d0bc001951ff5c,5y6xdwojf1,Emily_Honors_Thesis_Part_2,1,262,2020-07-20T14:02:36-07:00,2.6187369823456,19,versionC_stim_BACKWARD.csv,BACKWARD_IS_JOLVersionD.csv,"BACKWARD IS VERSION C",NEW,ATTORNEY,LAW,ON,F,34,85,JOL,User,-,"How likely are you to correctly recall the second item in the pair?|Type your response on a scale from 0-100 and then press Enter.",Study/JOL,"Study Phase2",2155,,,1561,1928,,,,60,1
