Username,ID,ExperimentName,Session,Trial,Date,TimeDif,"Condition Number","Stimuli File","Order File","Condition Description","Condition Notes",Stimuli*Cue,Stimuli*Answer,Stimuli*Shuffle,"Stimuli*Stimuli Notes",Stimuli*Value,Procedure*Item,"Procedure*Trial Type","Procedure*Max Time","Procedure*Min Time",Procedure*Text,"Procedure*Procedure Notes",Procedure*Shuffle,Response*RT,Response*Response,Response*Accuracy,Response*RTfirst,Response*RTlast,Response*strictAcc,Response*lenientAcc,Response*focus,Response*JOL,Response*Focus
5b92bd88f2ac7e0001d8a45f,unapte21vm,Emily_Honors_Thesis_Part_2,1,1,2020-08-31T08:09:31-07:00,522.80985999107,10,versionA_stim.csv,RL_JOLVersionB.csv,"RELATIONAL Version B",OLD,,,,,,0,Instruct,-,10,"In this section, you will be presented with a series of word pairs. As you study, you will be asked to rate your ability to remember the second item in the pair if you were only shown the first at test. You will make these ratings using a 0 to 100 Scale.",,Instruct13,522323,,,-1,-1,,,,,0.299
5b92bd88f2ac7e0001d8a45f,unapte21vm,Emily_Honors_Thesis_Part_2,1,2,2020-08-31T08:09:45-07:00,14.117416143417,10,versionA_stim.csv,RL_JOLVersionB.csv,"RELATIONAL Version B",OLD,,,,,,0,Instruct,-,10,"For example, if you are given the pair CAT - DOG, a rating of 0 indicates that you would not remember DOG at test, while a rating of 100 indicates full certainty that you would remember the word DOG at test.",,Instruct14,13571,,,-1,-1,,,,,0.847
5b92bd88f2ac7e0001d8a45f,unapte21vm,Emily_Honors_Thesis_Part_2,1,3,2020-08-31T08:09:59-07:00,13.625097036362,10,versionA_stim.csv,RL_JOLVersionB.csv,"RELATIONAL Version B",OLD,,,,,,0,Instruct,-,10,"When making these ratings, it is criticial that you use the full range of the scale. You will be disqualified for only giving ratings of 0 or 100! After making your rating, press Enter to advance to the next pair.",,Instruct15,13101,,,-1,-1,,,,,1
5b92bd88f2ac7e0001d8a45f,unapte21vm,Emily_Honors_Thesis_Part_2,1,4,2020-08-31T08:10:22-07:00,23.134479999542,10,versionA_stim.csv,RL_JOLVersionB.csv,"RELATIONAL Version B",OLD,,,,,,0,Instruct,-,15,"As you study and make your ratings, please think about how the two concepts are RELATED to each other. For example, if you see the pair TURTLE-CAT, think about how both are alive, they are both animals, and both can be kept as pets.",,Instruct19,22064,,,-1,-1,,,,,1
5b92bd88f2ac7e0001d8a45f,unapte21vm,Emily_Honors_Thesis_Part_2,1,5,2020-08-31T08:11:22-07:00,59.45738697052,10,versionA_stim.csv,RL_JOLVersionB.csv,"RELATIONAL Version B",OLD,,,,,,0,FreeRecall,-,10,"What you should think about as you study each item pair? Type your response in the box below.",,CHECK1,58476,"How those animals are related, turtles and cats are both animals, could be kept as pets and are alive.",0,23819,56118,0,0,,,1
5b92bd88f2ac7e0001d8a45f,unapte21vm,Emily_Honors_Thesis_Part_2,1,6,2020-08-31T08:11:41-07:00,19.594395875931,10,versionA_stim.csv,RL_JOLVersionB.csv,"RELATIONAL Version B",OLD,,,,,,0,Instruct,-,5,"You will now complete a practice session. Please study the following items and rate your ability to remember them. Remember to think about how the two items are similiar!",,Instruct17,18550,,,-1,-1,,,,,1
5b92bd88f2ac7e0001d8a45f,unapte21vm,Emily_Honors_Thesis_Part_2,1,7,2020-08-31T08:11:46-07:00,5.1721069812775,10,versionA_stim.csv,RL_JOLVersionB.csv,"RELATIONAL Version B",OLD,FASHION,MODEL,PRACTICE,PRACTICE,190,184,JOL,User,-,"How likely are you to correctly recall the second item in the pair?|Type your response on a scale from 0-100 and then press Enter.",Study/JOL,PRACTICE,4628,,,4196,4439,,,,100,1
5b92bd88f2ac7e0001d8a45f,unapte21vm,Emily_Honors_Thesis_Part_2,1,8,2020-08-31T08:11:50-07:00,3.3956000804901,10,versionA_stim.csv,RL_JOLVersionB.csv,"RELATIONAL Version B",OLD,PADDLE,ROW,PRACTICE,PRACTICE,184,189,JOL,User,-,"How likely are you to correctly recall the second item in the pair?|Type your response on a scale from 0-100 and then press Enter.",Study/JOL,PRACTICE,2916,,,2192,2404,,,,100,1
5b92bd88f2ac7e0001d8a45f,unapte21vm,Emily_Honors_Thesis_Part_2,1,9,2020-08-31T08:11:55-07:00,5.3076438903809,10,versionA_stim.csv,RL_JOLVersionB.csv,"RELATIONAL Version B",OLD,CHIME,MUSIC,PRACTICE,PRACTICE,188,182,JOL,User,-,"How likely are you to correctly recall the second item in the pair?|Type your response on a scale from 0-100 and then press Enter.",Study/JOL,PRACTICE,4833,,,4499,4569,,,,90,1
5b92bd88f2ac7e0001d8a45f,unapte21vm,Emily_Honors_Thesis_Part_2,1,10,2020-08-31T08:12:00-07:00,4.9809429645538,10,versionA_stim.csv,RL_JOLVersionB.csv,"RELATIONAL Version B",OLD,BEHAVIOR,SOCIAL,PRACTICE,PRACTICE,189,187,JOL,User,-,"How likely are you to correctly recall the second item in the pair?|Type your response on a scale from 0-100 and then press Enter.",Study/JOL,PRACTICE,4488,,,3829,3861,,,,90,1
5b92bd88f2ac7e0001d8a45f,unapte21vm,Emily_Honors_Thesis_Part_2,1,11,2020-08-31T08:12:04-07:00,4.0853250026703,10,versionA_stim.csv,RL_JOLVersionB.csv,"RELATIONAL Version B",OLD,HAM,BONE,PRACTICE,PRACTICE,183,188,JOL,User,-,"How likely are you to correctly recall the second item in the pair?|Type your response on a scale from 0-100 and then press Enter.",Study/JOL,PRACTICE,3602,,,3181,3270,,,,80,1
5b92bd88f2ac7e0001d8a45f,unapte21vm,Emily_Honors_Thesis_Part_2,1,12,2020-08-31T08:12:09-07:00,4.3313410282135,10,versionA_stim.csv,RL_JOLVersionB.csv,"RELATIONAL Version B",OLD,AARDVARK,ZOO,PRACTICE,PRACTICE,181,191,JOL,User,-,"How likely are you to correctly recall the second item in the pair?|Type your response on a scale from 0-100 and then press Enter.",Study/JOL,PRACTICE,3847,,,3241,3311,,,,80,1
5b92bd88f2ac7e0001d8a45f,unapte21vm,Emily_Honors_Thesis_Part_2,1,13,2020-08-31T08:12:26-07:00,17.013941049576,10,versionA_stim.csv,RL_JOLVersionB.csv,"RELATIONAL Version B",OLD,HINGE,SWING,PRACTICE,PRACTICE,185,186,JOL,User,-,"How likely are you to correctly recall the second item in the pair?|Type your response on a scale from 0-100 and then press Enter.",Study/JOL,PRACTICE,16537,,,13003,13340,,,,30,1
5b92bd88f2ac7e0001d8a45f,unapte21vm,Emily_Honors_Thesis_Part_2,1,14,2020-08-31T08:12:30-07:00,4.535012960434,10,versionA_stim.csv,RL_JOLVersionB.csv,"RELATIONAL Version B",OLD,DEAF,MUTE,PRACTICE,PRACTICE,182,190,JOL,User,-,"How likely are you to correctly recall the second item in the pair?|Type your response on a scale from 0-100 and then press Enter.",Study/JOL,PRACTICE,3881,,,2650,3456,,,,100,1
5b92bd88f2ac7e0001d8a45f,unapte21vm,Emily_Honors_Thesis_Part_2,1,15,2020-08-31T08:12:33-07:00,3.1745991706848,10,versionA_stim.csv,RL_JOLVersionB.csv,"RELATIONAL Version B",OLD,CHOCOLATE,BAR,PRACTICE,PRACTICE,187,183,JOL,User,-,"How likely are you to correctly recall the second item in the pair?|Type your response on a scale from 0-100 and then press Enter.",Study/JOL,PRACTICE,2657,,,1505,2127,,,,100,1
5b92bd88f2ac7e0001d8a45f,unapte21vm,Emily_Honors_Thesis_Part_2,1,16,2020-08-31T08:12:39-07:00,5.3042988777161,10,versionA_stim.csv,RL_JOLVersionB.csv,"RELATIONAL Version B",OLD,DISBELIEVE,SKEPTIC,PRACTICE,PRACTICE,186,185,JOL,User,-,"How likely are you to correctly recall the second item in the pair?|Type your response on a scale from 0-100 and then press Enter.",Study/JOL,PRACTICE,4795,,,4237,4329,,,,90,1
5b92bd88f2ac7e0001d8a45f,unapte21vm,Emily_Honors_Thesis_Part_2,1,17,2020-08-31T08:12:40-07:00,1.5426499843597,10,versionA_stim.csv,RL_JOLVersionB.csv,"RELATIONAL Version B",OLD,,,,,,0,Instruct,User,-,"You have completed this section. Please press Enter to continue.",,Instruct18,1164,,,-1,-1,,,,,1
5b92bd88f2ac7e0001d8a45f,unapte21vm,Emily_Honors_Thesis_Part_2,1,18,2020-08-31T08:12:47-07:00,6.7788031101227,10,versionA_stim.csv,RL_JOLVersionB.csv,"RELATIONAL Version B",OLD,,,,,,0,Instruct,User,-,"You will now begin the study. Press Enter when you are ready to begin.",,Instruct16,6217,,,1665,1665,,,,,1
5b92bd88f2ac7e0001d8a45f,unapte21vm,Emily_Honors_Thesis_Part_2,1,19,2020-08-31T08:12:52-07:00,5.1729068756104,10,versionA_stim.csv,RL_JOLVersionB.csv,"RELATIONAL Version B",OLD,TOOL,SHED,Buffer3,Buffer,178,94,JOL,User,-,"How likely are you to correctly recall the second item in the pair?|Type your response on a scale from 0-100 and then press Enter.",Study/JOL,BUFFER,4138,,,3055,3840,,,,100,1
5b92bd88f2ac7e0001d8a45f,unapte21vm,Emily_Honors_Thesis_Part_2,1,20,2020-08-31T08:12:54-07:00,2.0623409748077,10,versionA_stim.csv,RL_JOLVersionB.csv,"RELATIONAL Version B",OLD,SHRIMP,FISH,Buffer3,Buffer,93,93,JOL,User,-,"How likely are you to correctly recall the second item in the pair?|Type your response on a scale from 0-100 and then press Enter.",Study/JOL,BUFFER,1614,,,1391,1431,,,,90,1
5b92bd88f2ac7e0001d8a45f,unapte21vm,Emily_Honors_Thesis_Part_2,1,21,2020-08-31T08:12:57-07:00,2.6941711902618,10,versionA_stim.csv,RL_JOLVersionB.csv,"RELATIONAL Version B",OLD,ICE,FROZEN,Buffer3,Buffer,94,96,JOL,User,-,"How likely are you to correctly recall the second item in the pair?|Type your response on a scale from 0-100 and then press Enter.",Study/JOL,BUFFER,2226,,,1509,1939,,,,100,1
5b92bd88f2ac7e0001d8a45f,unapte21vm,Emily_Honors_Thesis_Part_2,1,22,2020-08-31T08:13:00-07:00,3.6389157772064,10,versionA_stim.csv,RL_JOLVersionB.csv,"RELATIONAL Version B",OLD,CAMP,ADVENTURE,Buffer3,Buffer,95,95,JOL,User,-,"How likely are you to correctly recall the second item in the pair?|Type your response on a scale from 0-100 and then press Enter.",Study/JOL,BUFFER,3157,,,2680,2755,,,,70,1
5b92bd88f2ac7e0001d8a45f,unapte21vm,Emily_Honors_Thesis_Part_2,1,23,2020-08-31T08:13:04-07:00,3.8224360942841,10,versionA_stim.csv,RL_JOLVersionB.csv,"RELATIONAL Version B",OLD,SPRING,MARCH,Buffer3,Buffer,179,92,JOL,User,-,"How likely are you to correctly recall the second item in the pair?|Type your response on a scale from 0-100 and then press Enter.",Study/JOL,BUFFER,3353,,,2250,2348,,,,80,1
5b92bd88f2ac7e0001d8a45f,unapte21vm,Emily_Honors_Thesis_Part_2,1,24,2020-08-31T08:13:14-07:00,10.037101984024,10,versionA_stim.csv,RL_JOLVersionB.csv,"RELATIONAL Version B",OLD,STRETCH,CLOTH,ON2,U,157,102,JOL,User,-,"How likely are you to correctly recall the second item in the pair?|Type your response on a scale from 0-100 and then press Enter.",Study/JOL,"Study Phase",9566,,,9025,9231,,,,40,1
5b92bd88f2ac7e0001d8a45f,unapte21vm,Emily_Honors_Thesis_Part_2,1,25,2020-08-31T08:13:31-07:00,16.852648973465,10,versionA_stim.csv,RL_JOLVersionB.csv,"RELATIONAL Version B",OLD,CAT,PANTHER,ON2,B,126,98,JOL,User,-,"How likely are you to correctly recall the second item in the pair?|Type your response on a scale from 0-100 and then press Enter.",Study/JOL,"Study Phase",16334,,,13657,16235,,,,60,1
5b92bd88f2ac7e0001d8a45f,unapte21vm,Emily_Honors_Thesis_Part_2,1,26,2020-08-31T08:13:35-07:00,3.4179329872131,10,versionA_stim.csv,RL_JOLVersionB.csv,"RELATIONAL Version B",OLD,SUN,TAN,ON2,S,155,147,JOL,User,-,"How likely are you to correctly recall the second item in the pair?|Type your response on a scale from 0-100 and then press Enter.",Study/JOL,"Study Phase",2891,,,2532,2616,,,,90,1
5b92bd88f2ac7e0001d8a45f,unapte21vm,Emily_Honors_Thesis_Part_2,1,27,2020-08-31T08:13:41-07:00,6.2214879989624,10,versionA_stim.csv,RL_JOLVersionB.csv,"RELATIONAL Version B",OLD,ELEMENT,CARBON,ON2,S,141,123,JOL,User,-,"How likely are you to correctly recall the second item in the pair?|Type your response on a scale from 0-100 and then press Enter.",Study/JOL,"Study Phase",5716,,,4563,4656,,,,80,1
5b92bd88f2ac7e0001d8a45f,unapte21vm,Emily_Honors_Thesis_Part_2,1,28,2020-08-31T08:13:52-07:00,11.587437152863,10,versionA_stim.csv,RL_JOLVersionB.csv,"RELATIONAL Version B",OLD,KEYS,JOKE,ON2,U,165,106,JOL,User,-,"How likely are you to correctly recall the second item in the pair?|Type your response on a scale from 0-100 and then press Enter.",Study/JOL,"Study Phase",11111,,,10936,11003,,,,20,1
5b92bd88f2ac7e0001d8a45f,unapte21vm,Emily_Honors_Thesis_Part_2,1,29,2020-08-31T08:13:58-07:00,5.4193148612976,10,versionA_stim.csv,RL_JOLVersionB.csv,"RELATIONAL Version B",OLD,GIVE,STEAK,ON2,U,158,168,JOL,User,-,"How likely are you to correctly recall the second item in the pair?|Type your response on a scale from 0-100 and then press Enter.",Study/JOL,"Study Phase",4889,,,2490,2560,,,,30,1
5b92bd88f2ac7e0001d8a45f,unapte21vm,Emily_Honors_Thesis_Part_2,1,30,2020-08-31T08:14:01-07:00,2.7824840545654,10,versionA_stim.csv,RL_JOLVersionB.csv,"RELATIONAL Version B",OLD,VEHICLE,CHARM,ON2,U,160,154,JOL,User,-,"How likely are you to correctly recall the second item in the pair?|Type your response on a scale from 0-100 and then press Enter.",Study/JOL,"Study Phase",2281,,,1848,1914,,,,30,1
5b92bd88f2ac7e0001d8a45f,unapte21vm,Emily_Honors_Thesis_Part_2,1,31,2020-08-31T08:14:04-07:00,3.2530119419098,10,versionA_stim.csv,RL_JOLVersionB.csv,"RELATIONAL Version B",OLD,FUZZY,BANG,ON2,U,168,128,JOL,User,-,"How likely are you to correctly recall the second item in the pair?|Type your response on a scale from 0-100 and then press Enter.",Study/JOL,"Study Phase",2747,,,2410,2471,,,,20,1
5b92bd88f2ac7e0001d8a45f,unapte21vm,Emily_Honors_Thesis_Part_2,1,32,2020-08-31T08:14:07-07:00,2.8581559658051,10,versionA_stim.csv,RL_JOLVersionB.csv,"RELATIONAL Version B",OLD,ROD,REEL,ON2,S,150,105,JOL,User,-,"How likely are you to correctly recall the second item in the pair?|Type your response on a scale from 0-100 and then press Enter.",Study/JOL,"Study Phase",2379,,,1761,1815,,,,20,1
5b92bd88f2ac7e0001d8a45f,unapte21vm,Emily_Honors_Thesis_Part_2,1,33,2020-08-31T08:14:15-07:00,8.288024187088,10,versionA_stim.csv,RL_JOLVersionB.csv,"RELATIONAL Version B",OLD,MAIN,SCAR,ON2,U,175,107,JOL,User,-,"How likely are you to correctly recall the second item in the pair?|Type your response on a scale from 0-100 and then press Enter.",Study/JOL,"Study Phase",7783,,,7166,7329,,,,30,1
5b92bd88f2ac7e0001d8a45f,unapte21vm,Emily_Honors_Thesis_Part_2,1,34,2020-08-31T08:14:23-07:00,7.9535818099976,10,versionA_stim.csv,RL_JOLVersionB.csv,"RELATIONAL Version B",OLD,SHELL,SHAKE,ON2,U,163,109,JOL,User,-,"How likely are you to correctly recall the second item in the pair?|Type your response on a scale from 0-100 and then press Enter.",Study/JOL,"Study Phase",7347,,,6461,6672,,,,30,1
5b92bd88f2ac7e0001d8a45f,unapte21vm,Emily_Honors_Thesis_Part_2,1,35,2020-08-31T08:14:28-07:00,5.1210432052612,10,versionA_stim.csv,RL_JOLVersionB.csv,"RELATIONAL Version B",OLD,SHEARS,SCISSORS,ON2,F,112,157,JOL,User,-,"How likely are you to correctly recall the second item in the pair?|Type your response on a scale from 0-100 and then press Enter.",Study/JOL,"Study Phase",4597,,,3546,4328,,,,70,1
5b92bd88f2ac7e0001d8a45f,unapte21vm,Emily_Honors_Thesis_Part_2,1,36,2020-08-31T08:14:31-07:00,3.1225538253784,10,versionA_stim.csv,RL_JOLVersionB.csv,"RELATIONAL Version B",OLD,FEUD,FIGHT,ON2,F,113,150,JOL,User,-,"How likely are you to correctly recall the second item in the pair?|Type your response on a scale from 0-100 and then press Enter.",Study/JOL,"Study Phase",2644,,,2322,2408,,,,60,1
5b92bd88f2ac7e0001d8a45f,unapte21vm,Emily_Honors_Thesis_Part_2,1,37,2020-08-31T08:14:34-07:00,2.7340140342712,10,versionA_stim.csv,RL_JOLVersionB.csv,"RELATIONAL Version B",OLD,FIGHT,BRAWL,ON2,B,135,153,JOL,User,-,"How likely are you to correctly recall the second item in the pair?|Type your response on a scale from 0-100 and then press Enter.",Study/JOL,"Study Phase",2255,,,1965,2025,,,,80,1
5b92bd88f2ac7e0001d8a45f,unapte21vm,Emily_Honors_Thesis_Part_2,1,38,2020-08-31T08:14:36-07:00,2.3379249572754,10,versionA_stim.csv,RL_JOLVersionB.csv,"RELATIONAL Version B",OLD,DETECTIVE,MYSTERY,ON2,F,100,148,JOL,User,-,"How likely are you to correctly recall the second item in the pair?|Type your response on a scale from 0-100 and then press Enter.",Study/JOL,"Study Phase",1847,,,1282,1418,,,,90,1
5b92bd88f2ac7e0001d8a45f,unapte21vm,Emily_Honors_Thesis_Part_2,1,39,2020-08-31T08:14:39-07:00,3.0261039733887,10,versionA_stim.csv,RL_JOLVersionB.csv,"RELATIONAL Version B",OLD,JUSTICE,MAROON,ON2,U,156,146,JOL,User,-,"How likely are you to correctly recall the second item in the pair?|Type your response on a scale from 0-100 and then press Enter.",Study/JOL,"Study Phase",2533,,,1976,2090,,,,20,1
5b92bd88f2ac7e0001d8a45f,unapte21vm,Emily_Honors_Thesis_Part_2,1,40,2020-08-31T08:14:44-07:00,5.171257019043,10,versionA_stim.csv,RL_JOLVersionB.csv,"RELATIONAL Version B",OLD,SHOELACE,TIE,ON2,F,99,97,JOL,User,-,"How likely are you to correctly recall the second item in the pair?|Type your response on a scale from 0-100 and then press Enter.",Study/JOL,"Study Phase",4692,,,4364,4432,,,,50,1
5b92bd88f2ac7e0001d8a45f,unapte21vm,Emily_Honors_Thesis_Part_2,1,41,2020-08-31T08:14:52-07:00,7.6448271274567,10,versionA_stim.csv,RL_JOLVersionB.csv,"RELATIONAL Version B",OLD,EVEN,REVENGE,ON2,B,122,161,JOL,User,-,"How likely are you to correctly recall the second item in the pair?|Type your response on a scale from 0-100 and then press Enter.",Study/JOL,"Study Phase",7140,,,6908,6973,,,,60,1
5b92bd88f2ac7e0001d8a45f,unapte21vm,Emily_Honors_Thesis_Part_2,1,42,2020-08-31T08:14:59-07:00,7.3858978748322,10,versionA_stim.csv,RL_JOLVersionB.csv,"RELATIONAL Version B",OLD,CLUE,GAME,ON2,F,97,122,JOL,User,-,"How likely are you to correctly recall the second item in the pair?|Type your response on a scale from 0-100 and then press Enter.",Study/JOL,"Study Phase",6914,,,3640,3756,,,,70,1
5b92bd88f2ac7e0001d8a45f,unapte21vm,Emily_Honors_Thesis_Part_2,1,43,2020-08-31T08:15:04-07:00,4.2126359939575,10,versionA_stim.csv,RL_JOLVersionB.csv,"RELATIONAL Version B",OLD,LEASE,TOIL,ON2,U,170,131,JOL,User,-,"How likely are you to correctly recall the second item in the pair?|Type your response on a scale from 0-100 and then press Enter.",Study/JOL,"Study Phase",3734,,,2635,3521,,,,20,1
5b92bd88f2ac7e0001d8a45f,unapte21vm,Emily_Honors_Thesis_Part_2,1,44,2020-08-31T08:15:15-07:00,11.219597101212,10,versionA_stim.csv,RL_JOLVersionB.csv,"RELATIONAL Version B",OLD,LOUD,NOISE,ON2,S,152,164,JOL,User,-,"How likely are you to correctly recall the second item in the pair?|Type your response on a scale from 0-100 and then press Enter.",Study/JOL,"Study Phase",10750,,,10031,10491,,,,100,1
5b92bd88f2ac7e0001d8a45f,unapte21vm,Emily_Honors_Thesis_Part_2,1,45,2020-08-31T08:15:19-07:00,4.1506478786469,10,versionA_stim.csv,RL_JOLVersionB.csv,"RELATIONAL Version B",OLD,THREAD,THIMBLE,ON2,B,121,121,JOL,User,-,"How likely are you to correctly recall the second item in the pair?|Type your response on a scale from 0-100 and then press Enter.",Study/JOL,"Study Phase",2620,,,2318,2373,,,,70,1
5b92bd88f2ac7e0001d8a45f,unapte21vm,Emily_Honors_Thesis_Part_2,1,46,2020-08-31T08:15:22-07:00,2.9783251285553,10,versionA_stim.csv,RL_JOLVersionB.csv,"RELATIONAL Version B",OLD,SLEEP,NAP,ON2,B,134,127,JOL,User,-,"How likely are you to correctly recall the second item in the pair?|Type your response on a scale from 0-100 and then press Enter.",Study/JOL,"Study Phase",2507,,,1771,2286,,,,100,1
5b92bd88f2ac7e0001d8a45f,unapte21vm,Emily_Honors_Thesis_Part_2,1,47,2020-08-31T08:15:29-07:00,7.1223819255829,10,versionA_stim.csv,RL_JOLVersionB.csv,"RELATIONAL Version B",OLD,DEAD,COFFIN,ON2,B,128,117,JOL,User,-,"How likely are you to correctly recall the second item in the pair?|Type your response on a scale from 0-100 and then press Enter.",Study/JOL,"Study Phase",6649,,,3802,6420,,,,90,1
5b92bd88f2ac7e0001d8a45f,unapte21vm,Emily_Honors_Thesis_Part_2,1,48,2020-08-31T08:15:32-07:00,3.1570179462433,10,versionA_stim.csv,RL_JOLVersionB.csv,"RELATIONAL Version B",OLD,BIRD,PENGUIN,ON2,B,119,113,JOL,User,-,"How likely are you to correctly recall the second item in the pair?|Type your response on a scale from 0-100 and then press Enter.",Study/JOL,"Study Phase",2558,,,1796,2154,,,,90,1
5b92bd88f2ac7e0001d8a45f,unapte21vm,Emily_Honors_Thesis_Part_2,1,49,2020-08-31T08:15:36-07:00,4.0206010341644,10,versionA_stim.csv,RL_JOLVersionB.csv,"RELATIONAL Version B",OLD,GLASS,BREAKABLE,ON2,B,127,111,JOL,User,-,"How likely are you to correctly recall the second item in the pair?|Type your response on a scale from 0-100 and then press Enter.",Study/JOL,"Study Phase",3395,,,1941,2348,,,,100,1
5b92bd88f2ac7e0001d8a45f,unapte21vm,Emily_Honors_Thesis_Part_2,1,50,2020-08-31T08:16:00-07:00,23.203878164291,10,versionA_stim.csv,RL_JOLVersionB.csv,"RELATIONAL Version B",OLD,ADJOURN,END,ON2,F,101,120,JOL,User,-,"How likely are you to correctly recall the second item in the pair?|Type your response on a scale from 0-100 and then press Enter.",Study/JOL,"Study Phase",22710,,,12896,13670,,,,60,1
5b92bd88f2ac7e0001d8a45f,unapte21vm,Emily_Honors_Thesis_Part_2,1,51,2020-08-31T08:16:02-07:00,2.0896859169006,10,versionA_stim.csv,RL_JOLVersionB.csv,"RELATIONAL Version B",OLD,LITTER,TRASH,ON2,F,103,171,JOL,User,-,"How likely are you to correctly recall the second item in the pair?|Type your response on a scale from 0-100 and then press Enter.",Study/JOL,"Study Phase",1675,,,1321,1532,,,,100,1
5b92bd88f2ac7e0001d8a45f,unapte21vm,Emily_Honors_Thesis_Part_2,1,52,2020-08-31T08:16:12-07:00,10.117065906525,10,versionA_stim.csv,RL_JOLVersionB.csv,"RELATIONAL Version B",OLD,INCENSE,SMELL,ON2,F,110,160,JOL,User,-,"How likely are you to correctly recall the second item in the pair?|Type your response on a scale from 0-100 and then press Enter.",Study/JOL,"Study Phase",9627,,,1885,9112,,,,80,1
5b92bd88f2ac7e0001d8a45f,unapte21vm,Emily_Honors_Thesis_Part_2,1,53,2020-08-31T08:16:36-07:00,24.271129131317,10,versionA_stim.csv,RL_JOLVersionB.csv,"RELATIONAL Version B",OLD,ALONE,LONELY,ON2,S,145,141,JOL,User,-,"How likely are you to correctly recall the second item in the pair?|Type your response on a scale from 0-100 and then press Enter.",Study/JOL,"Study Phase",23749,,,1565,1692,,,,90,1
5b92bd88f2ac7e0001d8a45f,unapte21vm,Emily_Honors_Thesis_Part_2,1,54,2020-08-31T08:16:39-07:00,2.713693857193,10,versionA_stim.csv,RL_JOLVersionB.csv,"RELATIONAL Version B",OLD,CANDLE,WAX,ON2,S,139,151,JOL,User,-,"How likely are you to correctly recall the second item in the pair?|Type your response on a scale from 0-100 and then press Enter.",Study/JOL,"Study Phase",2198,,,2006,2038,,,,90,1
5b92bd88f2ac7e0001d8a45f,unapte21vm,Emily_Honors_Thesis_Part_2,1,55,2020-08-31T08:16:43-07:00,4.6075370311737,10,versionA_stim.csv,RL_JOLVersionB.csv,"RELATIONAL Version B",OLD,BOTH,OUNCE,ON2,U,172,159,JOL,User,-,"How likely are you to correctly recall the second item in the pair?|Type your response on a scale from 0-100 and then press Enter.",Study/JOL,"Study Phase",3104,,,2526,2768,,,,20,1
5b92bd88f2ac7e0001d8a45f,unapte21vm,Emily_Honors_Thesis_Part_2,1,56,2020-08-31T08:16:46-07:00,2.6851689815521,10,versionA_stim.csv,RL_JOLVersionB.csv,"RELATIONAL Version B",OLD,CHILL,COLD,ON2,F,114,132,JOL,User,-,"How likely are you to correctly recall the second item in the pair?|Type your response on a scale from 0-100 and then press Enter.",Study/JOL,"Study Phase",2192,,,1960,1993,,,,90,1
5b92bd88f2ac7e0001d8a45f,unapte21vm,Emily_Honors_Thesis_Part_2,1,57,2020-08-31T08:17:02-07:00,16.294172048569,10,versionA_stim.csv,RL_JOLVersionB.csv,"RELATIONAL Version B",OLD,MULE,DONKEY,ON2,F,108,175,JOL,User,-,"How likely are you to correctly recall the second item in the pair?|Type your response on a scale from 0-100 and then press Enter.",Study/JOL,"Study Phase",15809,,,1532,1585,,,,90,1
5b92bd88f2ac7e0001d8a45f,unapte21vm,Emily_Honors_Thesis_Part_2,1,58,2020-08-31T08:17:12-07:00,9.2009301185608,10,versionA_stim.csv,RL_JOLVersionB.csv,"RELATIONAL Version B",OLD,EXTENSION,LONG,ON2,F,96,149,JOL,User,-,"How likely are you to correctly recall the second item in the pair?|Type your response on a scale from 0-100 and then press Enter.",Study/JOL,"Study Phase",8662,,,8316,8394,,,,80,1
5b92bd88f2ac7e0001d8a45f,unapte21vm,Emily_Honors_Thesis_Part_2,1,59,2020-08-31T08:17:18-07:00,6.5808420181274,10,versionA_stim.csv,RL_JOLVersionB.csv,"RELATIONAL Version B",OLD,,,,,,0,Instruct,-,3,"Remember to focus on how the two items are similiar while you study and make your ratings!",,CHECK2,6108,,,-1,-1,,,,,0.355
5b92bd88f2ac7e0001d8a45f,unapte21vm,Emily_Honors_Thesis_Part_2,1,60,2020-08-31T08:17:22-07:00,3.8656139373779,10,versionA_stim.csv,RL_JOLVersionB.csv,"RELATIONAL Version B",OLD,MOAT,CLEAR,ON2,U,169,104,JOL,User,-,"How likely are you to correctly recall the second item in the pair?|Type your response on a scale from 0-100 and then press Enter.",Study/JOL,"Study Phase",3379,,,2883,2919,,,,50,1
5b92bd88f2ac7e0001d8a45f,unapte21vm,Emily_Honors_Thesis_Part_2,1,61,2020-08-31T08:17:26-07:00,4.1481819152832,10,versionA_stim.csv,RL_JOLVersionB.csv,"RELATIONAL Version B",OLD,LISTEN,FICTION,ON2,U,164,155,JOL,User,-,"How likely are you to correctly recall the second item in the pair?|Type your response on a scale from 0-100 and then press Enter.",Study/JOL,"Study Phase",3649,,,3349,3415,,,,30,1
5b92bd88f2ac7e0001d8a45f,unapte21vm,Emily_Honors_Thesis_Part_2,1,62,2020-08-31T08:17:35-07:00,9.2055530548096,10,versionA_stim.csv,RL_JOLVersionB.csv,"RELATIONAL Version B",OLD,BASEBALL,LEAGUE,ON2,B,131,174,JOL,User,-,"How likely are you to correctly recall the second item in the pair?|Type your response on a scale from 0-100 and then press Enter.",Study/JOL,"Study Phase",8705,,,7621,8299,,,,60,1
5b92bd88f2ac7e0001d8a45f,unapte21vm,Emily_Honors_Thesis_Part_2,1,63,2020-08-31T08:17:41-07:00,5.207722902298,10,versionA_stim.csv,RL_JOLVersionB.csv,"RELATIONAL Version B",OLD,DRIVER,CAR,ON2,F,106,145,JOL,User,-,"How likely are you to correctly recall the second item in the pair?|Type your response on a scale from 0-100 and then press Enter.",Study/JOL,"Study Phase",4722,,,4513,4561,,,,90,1
5b92bd88f2ac7e0001d8a45f,unapte21vm,Emily_Honors_Thesis_Part_2,1,64,2020-08-31T08:17:43-07:00,2.9546899795532,10,versionA_stim.csv,RL_JOLVersionB.csv,"RELATIONAL Version B",OLD,DRY,WET,ON2,S,146,116,JOL,User,-,"How likely are you to correctly recall the second item in the pair?|Type your response on a scale from 0-100 and then press Enter.",Study/JOL,"Study Phase",2474,,,1523,1606,,,,70,1
5b92bd88f2ac7e0001d8a45f,unapte21vm,Emily_Honors_Thesis_Part_2,1,65,2020-08-31T08:18:11-07:00,27.584495067596,10,versionA_stim.csv,RL_JOLVersionB.csv,"RELATIONAL Version B",OLD,MAZE,ELECTION,ON2,U,159,112,JOL,User,-,"How likely are you to correctly recall the second item in the pair?|Type your response on a scale from 0-100 and then press Enter.",Study/JOL,"Study Phase",27046,,,2103,26335,,,,10,1
5b92bd88f2ac7e0001d8a45f,unapte21vm,Emily_Honors_Thesis_Part_2,1,66,2020-08-31T08:18:14-07:00,2.5120279788971,10,versionA_stim.csv,RL_JOLVersionB.csv,"RELATIONAL Version B",OLD,FISH,SARDINE,ON2,B,130,124,JOL,User,-,"How likely are you to correctly recall the second item in the pair?|Type your response on a scale from 0-100 and then press Enter.",Study/JOL,"Study Phase",1983,,,1629,1667,,,,90,1
5b92bd88f2ac7e0001d8a45f,unapte21vm,Emily_Honors_Thesis_Part_2,1,67,2020-08-31T08:18:15-07:00,1.7879910469055,10,versionA_stim.csv,RL_JOLVersionB.csv,"RELATIONAL Version B",OLD,RAZOR,SHAVE,ON2,S,136,125,JOL,User,-,"How likely are you to correctly recall the second item in the pair?|Type your response on a scale from 0-100 and then press Enter.",Study/JOL,"Study Phase",1409,,,1107,1150,,,,80,1
5b92bd88f2ac7e0001d8a45f,unapte21vm,Emily_Honors_Thesis_Part_2,1,68,2020-08-31T08:18:20-07:00,4.1705300807953,10,versionA_stim.csv,RL_JOLVersionB.csv,"RELATIONAL Version B",OLD,CAR,WINDSHIELD,ON2,B,117,170,JOL,User,-,"How likely are you to correctly recall the second item in the pair?|Type your response on a scale from 0-100 and then press Enter.",Study/JOL,"Study Phase",3683,,,3166,3258,,,,80,1
5b92bd88f2ac7e0001d8a45f,unapte21vm,Emily_Honors_Thesis_Part_2,1,69,2020-08-31T08:18:26-07:00,6.4123368263245,10,versionA_stim.csv,RL_JOLVersionB.csv,"RELATIONAL Version B",OLD,TANTRUM,TEMPER,ON2,S,154,101,JOL,User,-,"How likely are you to correctly recall the second item in the pair?|Type your response on a scale from 0-100 and then press Enter.",Study/JOL,"Study Phase",5947,,,5748,5803,,,,80,1
5b92bd88f2ac7e0001d8a45f,unapte21vm,Emily_Honors_Thesis_Part_2,1,70,2020-08-31T08:18:31-07:00,5.1674540042877,10,versionA_stim.csv,RL_JOLVersionB.csv,"RELATIONAL Version B",OLD,HONEST,TRUTHFUL,ON2,B,133,126,JOL,User,-,"How likely are you to correctly recall the second item in the pair?|Type your response on a scale from 0-100 and then press Enter.",Study/JOL,"Study Phase",3677,,,3334,3405,,,,90,1
5b92bd88f2ac7e0001d8a45f,unapte21vm,Emily_Honors_Thesis_Part_2,1,71,2020-08-31T08:18:41-07:00,10.114914178848,10,versionA_stim.csv,RL_JOLVersionB.csv,"RELATIONAL Version B",OLD,EARTH,GROUND,ON2,S,144,135,JOL,User,-,"How likely are you to correctly recall the second item in the pair?|Type your response on a scale from 0-100 and then press Enter.",Study/JOL,"Study Phase",9629,,,8731,8791,,,,90,1
5b92bd88f2ac7e0001d8a45f,unapte21vm,Emily_Honors_Thesis_Part_2,1,72,2020-08-31T08:18:44-07:00,2.9049849510193,10,versionA_stim.csv,RL_JOLVersionB.csv,"RELATIONAL Version B",OLD,WATER,DRINK,ON2,S,143,130,JOL,User,-,"How likely are you to correctly recall the second item in the pair?|Type your response on a scale from 0-100 and then press Enter.",Study/JOL,"Study Phase",2366,,,1881,1967,,,,90,1
5b92bd88f2ac7e0001d8a45f,unapte21vm,Emily_Honors_Thesis_Part_2,1,73,2020-08-31T08:18:48-07:00,3.7738468647003,10,versionA_stim.csv,RL_JOLVersionB.csv,"RELATIONAL Version B",OLD,OWN,HAVE,ON2,S,153,152,JOL,User,-,"How likely are you to correctly recall the second item in the pair?|Type your response on a scale from 0-100 and then press Enter.",Study/JOL,"Study Phase",3288,,,2308,2681,,,,100,1
5b92bd88f2ac7e0001d8a45f,unapte21vm,Emily_Honors_Thesis_Part_2,1,74,2020-08-31T08:18:51-07:00,3.3179302215576,10,versionA_stim.csv,RL_JOLVersionB.csv,"RELATIONAL Version B",OLD,TURN,FLIP,ON2,B,116,142,JOL,User,-,"How likely are you to correctly recall the second item in the pair?|Type your response on a scale from 0-100 and then press Enter.",Study/JOL,"Study Phase",2821,,,2445,2533,,,,90,1
5b92bd88f2ac7e0001d8a45f,unapte21vm,Emily_Honors_Thesis_Part_2,1,75,2020-08-31T08:18:54-07:00,2.9344129562378,10,versionA_stim.csv,RL_JOLVersionB.csv,"RELATIONAL Version B",OLD,DINE,EAT,ON2,F,111,99,JOL,User,-,"How likely are you to correctly recall the second item in the pair?|Type your response on a scale from 0-100 and then press Enter.",Study/JOL,"Study Phase",2439,,,1030,2166,,,,90,1
5b92bd88f2ac7e0001d8a45f,unapte21vm,Emily_Honors_Thesis_Part_2,1,76,2020-08-31T08:19:00-07:00,6.3022539615631,10,versionA_stim.csv,RL_JOLVersionB.csv,"RELATIONAL Version B",OLD,PLANE,AIRCRAFT,ON2,B,129,172,JOL,User,-,"How likely are you to correctly recall the second item in the pair?|Type your response on a scale from 0-100 and then press Enter.",Study/JOL,"Study Phase",5808,,,3012,3319,,,,90,1
5b92bd88f2ac7e0001d8a45f,unapte21vm,Emily_Honors_Thesis_Part_2,1,77,2020-08-31T08:19:11-07:00,11.047375917435,10,versionA_stim.csv,RL_JOLVersionB.csv,"RELATIONAL Version B",OLD,WRIST,BRACELET,ON2,S,140,115,JOL,User,-,"How likely are you to correctly recall the second item in the pair?|Type your response on a scale from 0-100 and then press Enter.",Study/JOL,"Study Phase",10530,,,5282,5313,,,,90,1
5b92bd88f2ac7e0001d8a45f,unapte21vm,Emily_Honors_Thesis_Part_2,1,78,2020-08-31T08:19:15-07:00,3.6225759983063,10,versionA_stim.csv,RL_JOLVersionB.csv,"RELATIONAL Version B",OLD,GONE,AWAY,ON2,S,142,167,JOL,User,-,"How likely are you to correctly recall the second item in the pair?|Type your response on a scale from 0-100 and then press Enter.",Study/JOL,"Study Phase",2079,,,1281,1337,,,,90,1
5b92bd88f2ac7e0001d8a45f,unapte21vm,Emily_Honors_Thesis_Part_2,1,79,2020-08-31T08:19:26-07:00,11.043179035187,10,versionA_stim.csv,RL_JOLVersionB.csv,"RELATIONAL Version B",OLD,LOAN,SIGN,ON2,U,171,166,JOL,User,-,"How likely are you to correctly recall the second item in the pair?|Type your response on a scale from 0-100 and then press Enter.",Study/JOL,"Study Phase",10508,,,9831,10200,,,,20,1
5b92bd88f2ac7e0001d8a45f,unapte21vm,Emily_Honors_Thesis_Part_2,1,80,2020-08-31T08:19:49-07:00,22.709828138351,10,versionA_stim.csv,RL_JOLVersionB.csv,"RELATIONAL Version B",OLD,TEMPERATURE,MORNING,ON2,U,173,140,JOL,User,-,"How likely are you to correctly recall the second item in the pair?|Type your response on a scale from 0-100 and then press Enter.",Study/JOL,"Study Phase",22177,,,11329,21909,,,,60,1
5b92bd88f2ac7e0001d8a45f,unapte21vm,Emily_Honors_Thesis_Part_2,1,81,2020-08-31T08:19:53-07:00,3.6575708389282,10,versionA_stim.csv,RL_JOLVersionB.csv,"RELATIONAL Version B",OLD,STAR,ACTRESS,ON2,B,120,110,JOL,User,-,"How likely are you to correctly recall the second item in the pair?|Type your response on a scale from 0-100 and then press Enter.",Study/JOL,"Study Phase",3125,,,1903,2053,,,,90,1
5b92bd88f2ac7e0001d8a45f,unapte21vm,Emily_Honors_Thesis_Part_2,1,82,2020-08-31T08:19:54-07:00,1.8215589523315,10,versionA_stim.csv,RL_JOLVersionB.csv,"RELATIONAL Version B",OLD,BAD,VILLAIN,ON2,B,118,103,JOL,User,-,"How likely are you to correctly recall the second item in the pair?|Type your response on a scale from 0-100 and then press Enter.",Study/JOL,"Study Phase",1438,,,1232,1262,,,,90,1
5b92bd88f2ac7e0001d8a45f,unapte21vm,Emily_Honors_Thesis_Part_2,1,83,2020-08-31T08:19:58-07:00,3.8974771499634,10,versionA_stim.csv,RL_JOLVersionB.csv,"RELATIONAL Version B",OLD,MONEY,BANKER,ON2,B,132,165,JOL,User,-,"How likely are you to correctly recall the second item in the pair?|Type your response on a scale from 0-100 and then press Enter.",Study/JOL,"Study Phase",3415,,,2736,2811,,,,90,1
5b92bd88f2ac7e0001d8a45f,unapte21vm,Emily_Honors_Thesis_Part_2,1,84,2020-08-31T08:20:04-07:00,5.5968568325043,10,versionA_stim.csv,RL_JOLVersionB.csv,"RELATIONAL Version B",OLD,SCALP,HEAD,ON2,F,105,118,JOL,User,-,"How likely are you to correctly recall the second item in the pair?|Type your response on a scale from 0-100 and then press Enter.",Study/JOL,"Study Phase",5097,,,2811,2882,,,,90,1
5b92bd88f2ac7e0001d8a45f,unapte21vm,Emily_Honors_Thesis_Part_2,1,85,2020-08-31T08:20:07-07:00,3.4361991882324,10,versionA_stim.csv,RL_JOLVersionB.csv,"RELATIONAL Version B",OLD,MEAT,OBTAIN,ON2,U,161,156,JOL,User,-,"How likely are you to correctly recall the second item in the pair?|Type your response on a scale from 0-100 and then press Enter.",Study/JOL,"Study Phase",2951,,,2038,2592,,,,10,1
5b92bd88f2ac7e0001d8a45f,unapte21vm,Emily_Honors_Thesis_Part_2,1,86,2020-08-31T08:20:13-07:00,6.0369019508362,10,versionA_stim.csv,RL_JOLVersionB.csv,"RELATIONAL Version B",OLD,FLEA,TICK,ON2,S,151,133,JOL,User,-,"How likely are you to correctly recall the second item in the pair?|Type your response on a scale from 0-100 and then press Enter.",Study/JOL,"Study Phase",5555,,,5007,5010,,,,90,1
5b92bd88f2ac7e0001d8a45f,unapte21vm,Emily_Honors_Thesis_Part_2,1,87,2020-08-31T08:20:27-07:00,13.318275928497,10,versionA_stim.csv,RL_JOLVersionB.csv,"RELATIONAL Version B",OLD,RIGHTS,EQUAL,ON2,S,137,108,JOL,User,-,"How likely are you to correctly recall the second item in the pair?|Type your response on a scale from 0-100 and then press Enter.",Study/JOL,"Study Phase",12844,,,5116,5579,,,,100,1
5b92bd88f2ac7e0001d8a45f,unapte21vm,Emily_Honors_Thesis_Part_2,1,88,2020-08-31T08:20:29-07:00,2.344908952713,10,versionA_stim.csv,RL_JOLVersionB.csv,"RELATIONAL Version B",OLD,TRUTH,LIE,ON2,S,148,100,JOL,User,-,"How likely are you to correctly recall the second item in the pair?|Type your response on a scale from 0-100 and then press Enter.",Study/JOL,"Study Phase",1770,,,1427,1513,,,,80,1
5b92bd88f2ac7e0001d8a45f,unapte21vm,Emily_Honors_Thesis_Part_2,1,89,2020-08-31T08:20:33-07:00,4.0986921787262,10,versionA_stim.csv,RL_JOLVersionB.csv,"RELATIONAL Version B",OLD,FURRY,DOG,ON2,F,102,114,JOL,User,-,"How likely are you to correctly recall the second item in the pair?|Type your response on a scale from 0-100 and then press Enter.",Study/JOL,"Study Phase",3475,,,3033,3092,,,,90,1
5b92bd88f2ac7e0001d8a45f,unapte21vm,Emily_Honors_Thesis_Part_2,1,90,2020-08-31T08:20:36-07:00,3.2866430282593,10,versionA_stim.csv,RL_JOLVersionB.csv,"RELATIONAL Version B",OLD,CHERRY,RED,ON2,F,104,169,JOL,User,-,"How likely are you to correctly recall the second item in the pair?|Type your response on a scale from 0-100 and then press Enter.",Study/JOL,"Study Phase",2800,,,1630,2410,,,,90,1
5b92bd88f2ac7e0001d8a45f,unapte21vm,Emily_Honors_Thesis_Part_2,1,91,2020-08-31T08:20:42-07:00,5.3442897796631,10,versionA_stim.csv,RL_JOLVersionB.csv,"RELATIONAL Version B",OLD,MASON,JAR,ON2,S,138,162,JOL,User,-,"How likely are you to correctly recall the second item in the pair?|Type your response on a scale from 0-100 and then press Enter.",Study/JOL,"Study Phase",4780,,,1920,1953,,,,90,1
5b92bd88f2ac7e0001d8a45f,unapte21vm,Emily_Honors_Thesis_Part_2,1,92,2020-08-31T08:21:02-07:00,20.467455148697,10,versionA_stim.csv,RL_JOLVersionB.csv,"RELATIONAL Version B",OLD,CACTUS,PLANT,ON2,F,98,134,JOL,User,-,"How likely are you to correctly recall the second item in the pair?|Type your response on a scale from 0-100 and then press Enter.",Study/JOL,"Study Phase",19980,,,6970,6998,,,,90,1
5b92bd88f2ac7e0001d8a45f,unapte21vm,Emily_Honors_Thesis_Part_2,1,93,2020-08-31T08:21:05-07:00,3.2483048439026,10,versionA_stim.csv,RL_JOLVersionB.csv,"RELATIONAL Version B",OLD,FRUIT,STRAWBERRY,ON2,B,124,136,JOL,User,-,"How likely are you to correctly recall the second item in the pair?|Type your response on a scale from 0-100 and then press Enter.",Study/JOL,"Study Phase",2711,,,2235,2334,,,,90,1
5b92bd88f2ac7e0001d8a45f,unapte21vm,Emily_Honors_Thesis_Part_2,1,94,2020-08-31T08:21:09-07:00,3.4232530593872,10,versionA_stim.csv,RL_JOLVersionB.csv,"RELATIONAL Version B",OLD,MIRROR,CHILDREN,ON2,U,174,163,JOL,User,-,"How likely are you to correctly recall the second item in the pair?|Type your response on a scale from 0-100 and then press Enter.",Study/JOL,"Study Phase",2928,,,2193,2566,,,,10,1
5b92bd88f2ac7e0001d8a45f,unapte21vm,Emily_Honors_Thesis_Part_2,1,95,2020-08-31T08:21:17-07:00,7.8449339866638,10,versionA_stim.csv,RL_JOLVersionB.csv,"RELATIONAL Version B",OLD,DOCUMENT,PAPER,ON2,F,109,138,JOL,User,-,"How likely are you to correctly recall the second item in the pair?|Type your response on a scale from 0-100 and then press Enter.",Study/JOL,"Study Phase",7349,,,6790,6931,,,,80,1
5b92bd88f2ac7e0001d8a45f,unapte21vm,Emily_Honors_Thesis_Part_2,1,96,2020-08-31T08:21:19-07:00,2.1121671199799,10,versionA_stim.csv,RL_JOLVersionB.csv,"RELATIONAL Version B",OLD,AFFECTION,LOVE,ON2,F,115,139,JOL,User,-,"How likely are you to correctly recall the second item in the pair?|Type your response on a scale from 0-100 and then press Enter.",Study/JOL,"Study Phase",1742,,,1167,1252,,,,90,1
5b92bd88f2ac7e0001d8a45f,unapte21vm,Emily_Honors_Thesis_Part_2,1,97,2020-08-31T08:21:26-07:00,7.1828248500824,10,versionA_stim.csv,RL_JOLVersionB.csv,"RELATIONAL Version B",OLD,CAKE,CLOTHES,ON2,U,166,129,JOL,User,-,"How likely are you to correctly recall the second item in the pair?|Type your response on a scale from 0-100 and then press Enter.",Study/JOL,"Study Phase",6690,,,5799,6272,,,,10,1
5b92bd88f2ac7e0001d8a45f,unapte21vm,Emily_Honors_Thesis_Part_2,1,98,2020-08-31T08:21:30-07:00,4.4687371253967,10,versionA_stim.csv,RL_JOLVersionB.csv,"RELATIONAL Version B",OLD,PHONE,COMMUNICATION,ON2,S,149,173,JOL,User,-,"How likely are you to correctly recall the second item in the pair?|Type your response on a scale from 0-100 and then press Enter.",Study/JOL,"Study Phase",3975,,,3206,3239,,,,90,1
5b92bd88f2ac7e0001d8a45f,unapte21vm,Emily_Honors_Thesis_Part_2,1,99,2020-08-31T08:21:34-07:00,3.3714320659637,10,versionA_stim.csv,RL_JOLVersionB.csv,"RELATIONAL Version B",OLD,NAME,HATE,ON2,U,167,144,JOL,User,-,"How likely are you to correctly recall the second item in the pair?|Type your response on a scale from 0-100 and then press Enter.",Study/JOL,"Study Phase",2895,,,1820,2269,,,,10,1
5b92bd88f2ac7e0001d8a45f,unapte21vm,Emily_Honors_Thesis_Part_2,1,100,2020-08-31T08:21:37-07:00,3.334657907486,10,versionA_stim.csv,RL_JOLVersionB.csv,"RELATIONAL Version B",OLD,SAFETY,SEATBELT,ON2,S,147,158,JOL,User,-,"How likely are you to correctly recall the second item in the pair?|Type your response on a scale from 0-100 and then press Enter.",Study/JOL,"Study Phase",2824,,,2538,2603,,,,90,1
5b92bd88f2ac7e0001d8a45f,unapte21vm,Emily_Honors_Thesis_Part_2,1,101,2020-08-31T08:21:42-07:00,4.61243891716,10,versionA_stim.csv,RL_JOLVersionB.csv,"RELATIONAL Version B",OLD,CHOP,CUT,ON2,F,107,176,JOL,User,-,"How likely are you to correctly recall the second item in the pair?|Type your response on a scale from 0-100 and then press Enter.",Study/JOL,"Study Phase",4117,,,3859,3944,,,,80,1
5b92bd88f2ac7e0001d8a45f,unapte21vm,Emily_Honors_Thesis_Part_2,1,102,2020-08-31T08:21:53-07:00,11.70138502121,10,versionA_stim.csv,RL_JOLVersionB.csv,"RELATIONAL Version B",OLD,CRACKLE,ABLE,ON2,U,162,119,JOL,User,-,"How likely are you to correctly recall the second item in the pair?|Type your response on a scale from 0-100 and then press Enter.",Study/JOL,"Study Phase",11217,,,6045,7314,,,,10,1
5b92bd88f2ac7e0001d8a45f,unapte21vm,Emily_Honors_Thesis_Part_2,1,103,2020-08-31T08:21:56-07:00,2.4963049888611,10,versionA_stim.csv,RL_JOLVersionB.csv,"RELATIONAL Version B",OLD,POP,BALLOON,ON2,B,123,143,JOL,User,-,"How likely are you to correctly recall the second item in the pair?|Type your response on a scale from 0-100 and then press Enter.",Study/JOL,"Study Phase",1866,,,1547,1649,,,,80,1
5b92bd88f2ac7e0001d8a45f,unapte21vm,Emily_Honors_Thesis_Part_2,1,104,2020-08-31T08:21:58-07:00,1.9553890228271,10,versionA_stim.csv,RL_JOLVersionB.csv,"RELATIONAL Version B",OLD,BEST,FAVORITE,ON2,B,125,137,JOL,User,-,"How likely are you to correctly recall the second item in the pair?|Type your response on a scale from 0-100 and then press Enter.",Study/JOL,"Study Phase",1500,,,1300,1341,,,,90,1
5b92bd88f2ac7e0001d8a45f,unapte21vm,Emily_Honors_Thesis_Part_2,1,105,2020-08-31T08:22:01-07:00,2.7496449947357,10,versionA_stim.csv,RL_JOLVersionB.csv,"RELATIONAL Version B",OLD,NOODLE,STRING,Buffer3,Buffer,92,179,JOL,User,-,"How likely are you to correctly recall the second item in the pair?|Type your response on a scale from 0-100 and then press Enter.",Study/JOL,BUFFER2,2132,,,1724,1921,,,,60,1
5b92bd88f2ac7e0001d8a45f,unapte21vm,Emily_Honors_Thesis_Part_2,1,106,2020-08-31T08:22:03-07:00,2.2124609947205,10,versionA_stim.csv,RL_JOLVersionB.csv,"RELATIONAL Version B",OLD,OCTOBER,SPOOKY,Buffer3,Buffer,180,178,JOL,User,-,"How likely are you to correctly recall the second item in the pair?|Type your response on a scale from 0-100 and then press Enter.",Study/JOL,BUFFER2,1756,,,1450,1493,,,,70,1
5b92bd88f2ac7e0001d8a45f,unapte21vm,Emily_Honors_Thesis_Part_2,1,107,2020-08-31T08:22:06-07:00,3.3255140781403,10,versionA_stim.csv,RL_JOLVersionB.csv,"RELATIONAL Version B",OLD,DAYS,WEAKS,Buffer3,Buffer,176,181,JOL,User,-,"How likely are you to correctly recall the second item in the pair?|Type your response on a scale from 0-100 and then press Enter.",Study/JOL,BUFFER2,2835,,,2469,2622,,,,70,1
5b92bd88f2ac7e0001d8a45f,unapte21vm,Emily_Honors_Thesis_Part_2,1,108,2020-08-31T08:22:10-07:00,4.193922996521,10,versionA_stim.csv,RL_JOLVersionB.csv,"RELATIONAL Version B",OLD,CARROT,POTATO,Buffer3,Buffer,91,180,JOL,User,-,"How likely are you to correctly recall the second item in the pair?|Type your response on a scale from 0-100 and then press Enter.",Study/JOL,BUFFER2,3718,,,1285,3557,,,,80,1
5b92bd88f2ac7e0001d8a45f,unapte21vm,Emily_Honors_Thesis_Part_2,1,109,2020-08-31T08:22:12-07:00,1.7008810043335,10,versionA_stim.csv,RL_JOLVersionB.csv,"RELATIONAL Version B",OLD,MONTH,YEAR,Buffer3,Buffer,177,177,JOL,User,-,"How likely are you to correctly recall the second item in the pair?|Type your response on a scale from 0-100 and then press Enter.",Study/JOL,BUFFER2,1310,,,1119,1151,,,,90,1
5b92bd88f2ac7e0001d8a45f,unapte21vm,Emily_Honors_Thesis_Part_2,1,110,2020-08-31T08:22:13-07:00,1.1814939975739,10,versionA_stim.csv,RL_JOLVersionB.csv,"RELATIONAL Version B",OLD,,,,,,0,Instruct,User,-,"You have completed this section. Please press Enter.",Filler_Instruction,Instruct5,699,,,-1,-1,,,,,1
5b92bd88f2ac7e0001d8a45f,unapte21vm,Emily_Honors_Thesis_Part_2,1,111,2020-08-31T08:22:49-07:00,36.107677936554,10,versionA_stim.csv,RL_JOLVersionB.csv,"RELATIONAL Version B",OLD,,,,,,0,FreeRecall,-,10,"What were you supposed to focus on while you studied each pair? (Hint: Think back to the instructions). Type your answer in the space below.",,CHECK3,35536,"How those words related to each other, for instance for weaks and days, weaks isn't actually related to day but day is related to week which is very similar to weaks.",0,4763,33631,0,0,,,1
5b92bd88f2ac7e0001d8a45f,unapte21vm,Emily_Honors_Thesis_Part_2,1,112,2020-08-31T08:22:51-07:00,1.6130020618439,10,versionA_stim.csv,RL_JOLVersionB.csv,"RELATIONAL Version B",OLD,,,,,,0,Instruct,User,-,"You have completed this section. Please press Enter.",Filler_Instruction,Instruct2,1191,,,-1,-1,,,,,1
5b92bd88f2ac7e0001d8a45f,unapte21vm,Emily_Honors_Thesis_Part_2,1,113,2020-08-31T08:24:52-07:00,120.68848991394,10,versionA_stim.csv,RL_JOLVersionB.csv,"RELATIONAL Version B",OLD,,,,,,0,FreeRecall,120,120,"Please list the 50 US states in alphabetical order. The task will automatically advance to the next screen after two minutes.",,Filler1,120003,"Alaska Chicago Hawaii Michigan Missoura New Jersey New York Ohio South Virginia Utah",0,6923,102156,0,0,,,0.978
5b92bd88f2ac7e0001d8a45f,unapte21vm,Emily_Honors_Thesis_Part_2,1,114,2020-08-31T08:25:12-07:00,20.75359416008,10,versionA_stim.csv,RL_JOLVersionB.csv,"RELATIONAL Version B",OLD,,,,,,0,Instruct,-,10,"You will now be presented with the first word from each of the previously studied item pairs. Please type the missing word. If you do not know the word, you may guess or press Enter to skip forward to the next pair.",,Instruct3,20229,,,-1,-1,,,,,1
5b92bd88f2ac7e0001d8a45f,unapte21vm,Emily_Honors_Thesis_Part_2,1,115,2020-08-31T08:25:22-07:00,9.5953958034515,10,versionA_stim.csv,RL_JOLVersionB.csv,"RELATIONAL Version B",OLD,MIRROR,CHILDREN,ON2,U,174,163,Test,User,-,,Recall,Recall1,9053,Children,100,7317,7850,1,1,,,0.87
5b92bd88f2ac7e0001d8a45f,unapte21vm,Emily_Honors_Thesis_Part_2,1,116,2020-08-31T08:25:25-07:00,2.7235131263733,10,versionA_stim.csv,RL_JOLVersionB.csv,"RELATIONAL Version B",OLD,LOUD,NOISE,ON2,S,152,164,Test,User,-,,Recall,Recall1,2181,NOISE,100,1385,1845,1,1,,,1
5b92bd88f2ac7e0001d8a45f,unapte21vm,Emily_Honors_Thesis_Part_2,1,117,2020-08-31T08:25:29-07:00,4.0807139873505,10,versionA_stim.csv,RL_JOLVersionB.csv,"RELATIONAL Version B",OLD,CAR,WINDSHIELD,ON2,B,117,170,Test,User,-,,Recall,Recall1,3593,DRIVER,37.5,2406,3035,0,0,,,1
5b92bd88f2ac7e0001d8a45f,unapte21vm,Emily_Honors_Thesis_Part_2,1,118,2020-08-31T08:25:31-07:00,2.0317831039429,10,versionA_stim.csv,RL_JOLVersionB.csv,"RELATIONAL Version B",OLD,CACTUS,PLANT,ON2,F,98,134,Test,User,-,,Recall,Recall1,1490,PLANT,100,947,1339,1,1,,,1
5b92bd88f2ac7e0001d8a45f,unapte21vm,Emily_Honors_Thesis_Part_2,1,119,2020-08-31T08:25:40-07:00,9.0659189224243,10,versionA_stim.csv,RL_JOLVersionB.csv,"RELATIONAL Version B",OLD,RAZOR,SHAVE,ON2,S,136,125,Test,User,-,,Recall,Recall1,8425,SHAVE,100,6296,7805,1,1,,,0.907
5b92bd88f2ac7e0001d8a45f,unapte21vm,Emily_Honors_Thesis_Part_2,1,120,2020-08-31T08:25:44-07:00,4.1823298931122,10,versionA_stim.csv,RL_JOLVersionB.csv,"RELATIONAL Version B",OLD,SUN,TAN,ON2,S,155,147,Test,User,-,,Recall,Recall1,3684,TAN,100,2614,3198,1,1,,,1
5b92bd88f2ac7e0001d8a45f,unapte21vm,Emily_Honors_Thesis_Part_2,1,121,2020-08-31T08:25:51-07:00,6.8403279781342,10,versionA_stim.csv,RL_JOLVersionB.csv,"RELATIONAL Version B",OLD,SHOELACE,TIE,ON2,F,99,97,Test,User,-,,Recall,Recall1,6356,TIE,100,4066,5500,1,1,,,1
5b92bd88f2ac7e0001d8a45f,unapte21vm,Emily_Honors_Thesis_Part_2,1,122,2020-08-31T08:25:56-07:00,4.6029829978943,10,versionA_stim.csv,RL_JOLVersionB.csv,"RELATIONAL Version B",OLD,SHEARS,SCISSORS,ON2,F,112,157,Test,User,-,,Recall,Recall1,4120,SCISSORS,100,2428,3690,1,1,,,1
5b92bd88f2ac7e0001d8a45f,unapte21vm,Emily_Honors_Thesis_Part_2,1,123,2020-08-31T08:26:00-07:00,4.2209911346436,10,versionA_stim.csv,RL_JOLVersionB.csv,"RELATIONAL Version B",OLD,BEST,FAVORITE,ON2,B,125,137,Test,User,-,,Recall,Recall1,3730,FAVOURITE,94.117647058824,1661,3274,0,1,,,1
5b92bd88f2ac7e0001d8a45f,unapte21vm,Emily_Honors_Thesis_Part_2,1,124,2020-08-31T08:26:04-07:00,4.2243759632111,10,versionA_stim.csv,RL_JOLVersionB.csv,"RELATIONAL Version B",OLD,BAD,VILLAIN,ON2,B,118,103,Test,User,-,,Recall,Recall1,3742,GOOD,0,2891,3336,0,0,,,1
5b92bd88f2ac7e0001d8a45f,unapte21vm,Emily_Honors_Thesis_Part_2,1,125,2020-08-31T08:26:09-07:00,4.5993349552155,10,versionA_stim.csv,RL_JOLVersionB.csv,"RELATIONAL Version B",OLD,TURN,FLIP,ON2,B,116,142,Test,User,-,,Recall,Recall1,4078,FLIP,100,1765,3554,1,1,,,1
5b92bd88f2ac7e0001d8a45f,unapte21vm,Emily_Honors_Thesis_Part_2,1,126,2020-08-31T08:26:17-07:00,8.5953359603882,10,versionA_stim.csv,RL_JOLVersionB.csv,"RELATIONAL Version B",OLD,CAKE,CLOTHES,ON2,U,166,129,Test,User,-,,Recall,Recall1,8100,SUBMISSION,11.764705882353,3946,7659,0,0,,,1
5b92bd88f2ac7e0001d8a45f,unapte21vm,Emily_Honors_Thesis_Part_2,1,127,2020-08-31T08:26:31-07:00,13.297441005707,10,versionA_stim.csv,RL_JOLVersionB.csv,"RELATIONAL Version B",OLD,LEASE,TOIL,ON2,U,170,131,Test,User,-,,Recall,Recall1,12819,TAN,28.571428571429,5253,5636,0,0,,,1
5b92bd88f2ac7e0001d8a45f,unapte21vm,Emily_Honors_Thesis_Part_2,1,128,2020-08-31T08:26:35-07:00,4.8428461551666,10,versionA_stim.csv,RL_JOLVersionB.csv,"RELATIONAL Version B",OLD,DINE,EAT,ON2,F,111,99,Test,User,-,,Recall,Recall1,3328,EAT,100,1151,2968,1,1,,,1
5b92bd88f2ac7e0001d8a45f,unapte21vm,Emily_Honors_Thesis_Part_2,1,129,2020-08-31T08:26:42-07:00,6.2668850421906,10,versionA_stim.csv,RL_JOLVersionB.csv,"RELATIONAL Version B",OLD,NAME,HATE,ON2,U,167,144,Test,User,-,,Recall,Recall1,5782,LEASE,22.222222222222,4539,5354,0,0,,,1
5b92bd88f2ac7e0001d8a45f,unapte21vm,Emily_Honors_Thesis_Part_2,1,130,2020-08-31T08:26:44-07:00,2.8229157924652,10,versionA_stim.csv,RL_JOLVersionB.csv,"RELATIONAL Version B",OLD,BASEBALL,LEAGUE,ON2,B,131,174,Test,User,-,,Recall,Recall1,2325,LEAGUE,100,1408,2057,1,1,,,1
5b92bd88f2ac7e0001d8a45f,unapte21vm,Emily_Honors_Thesis_Part_2,1,131,2020-08-31T08:26:51-07:00,6.093551158905,10,versionA_stim.csv,RL_JOLVersionB.csv,"RELATIONAL Version B",OLD,CHOP,CUT,ON2,F,107,176,Test,User,-,,Recall,Recall1,5613,CUT,100,4954,5252,1,1,,,1
5b92bd88f2ac7e0001d8a45f,unapte21vm,Emily_Honors_Thesis_Part_2,1,132,2020-08-31T08:26:54-07:00,3.4977819919586,10,versionA_stim.csv,RL_JOLVersionB.csv,"RELATIONAL Version B",OLD,INCENSE,SMELL,ON2,F,110,160,Test,User,-,,Recall,Recall1,2995,SMELL,100,1109,2575,1,1,,,1
5b92bd88f2ac7e0001d8a45f,unapte21vm,Emily_Honors_Thesis_Part_2,1,133,2020-08-31T08:27:00-07:00,6.2544000148773,10,versionA_stim.csv,RL_JOLVersionB.csv,"RELATIONAL Version B",OLD,SLEEP,NAP,ON2,B,134,127,Test,User,-,,Recall,Recall1,5748,NAP,100,5024,5284,1,1,,,1
5b92bd88f2ac7e0001d8a45f,unapte21vm,Emily_Honors_Thesis_Part_2,1,134,2020-08-31T08:27:04-07:00,3.4041879177094,10,versionA_stim.csv,RL_JOLVersionB.csv,"RELATIONAL Version B",OLD,CLUE,GAME,ON2,F,97,122,Test,User,-,,Recall,Recall1,2911,GAME,100,1232,2499,1,1,,,1
5b92bd88f2ac7e0001d8a45f,unapte21vm,Emily_Honors_Thesis_Part_2,1,135,2020-08-31T08:27:16-07:00,12.324733972549,10,versionA_stim.csv,RL_JOLVersionB.csv,"RELATIONAL Version B",OLD,TRUTH,LIE,ON2,S,148,100,Test,User,-,,Recall,Recall1,11842,EQUAL,25,10187,11325,0,0,,,1
5b92bd88f2ac7e0001d8a45f,unapte21vm,Emily_Honors_Thesis_Part_2,1,136,2020-08-31T08:27:19-07:00,3.0998039245605,10,versionA_stim.csv,RL_JOLVersionB.csv,"RELATIONAL Version B",OLD,WRIST,BRACELET,ON2,S,140,115,Test,User,-,,Recall,Recall1,2561,BRACELET,100,1478,2184,1,1,,,1
5b92bd88f2ac7e0001d8a45f,unapte21vm,Emily_Honors_Thesis_Part_2,1,137,2020-08-31T08:27:22-07:00,3.1259920597076,10,versionA_stim.csv,RL_JOLVersionB.csv,"RELATIONAL Version B",OLD,PLANE,AIRCRAFT,ON2,B,129,172,Test,User,-,,Recall,Recall1,2641,FLY,18.181818181818,1780,2318,0,0,,,1
5b92bd88f2ac7e0001d8a45f,unapte21vm,Emily_Honors_Thesis_Part_2,1,138,2020-08-31T08:27:26-07:00,3.7909879684448,10,versionA_stim.csv,RL_JOLVersionB.csv,"RELATIONAL Version B",OLD,THREAD,THIMBLE,ON2,B,121,121,Test,User,-,,Recall,Recall1,3285,THIMBLE,100,1670,2757,1,1,,,1
5b92bd88f2ac7e0001d8a45f,unapte21vm,Emily_Honors_Thesis_Part_2,1,139,2020-08-31T08:27:29-07:00,3.1217081546783,10,versionA_stim.csv,RL_JOLVersionB.csv,"RELATIONAL Version B",OLD,STRETCH,CLOTH,ON2,U,157,102,Test,User,-,,Recall,Recall1,2608,CLOTH,100,1190,2303,1,1,,,1
5b92bd88f2ac7e0001d8a45f,unapte21vm,Emily_Honors_Thesis_Part_2,1,140,2020-08-31T08:27:31-07:00,1.9260649681091,10,versionA_stim.csv,RL_JOLVersionB.csv,"RELATIONAL Version B",OLD,ADJOURN,END,ON2,F,101,120,Test,User,-,,Recall,Recall1,1546,END,100,890,1128,1,1,,,1
5b92bd88f2ac7e0001d8a45f,unapte21vm,Emily_Honors_Thesis_Part_2,1,141,2020-08-31T08:27:36-07:00,4.472697019577,10,versionA_stim.csv,RL_JOLVersionB.csv,"RELATIONAL Version B",OLD,ELEMENT,CARBON,ON2,S,141,123,Test,User,-,,Recall,Recall1,3982,CARBON,100,2557,3581,1,1,,,1
5b92bd88f2ac7e0001d8a45f,unapte21vm,Emily_Honors_Thesis_Part_2,1,142,2020-08-31T08:27:39-07:00,3.2641098499298,10,versionA_stim.csv,RL_JOLVersionB.csv,"RELATIONAL Version B",OLD,HONEST,TRUTHFUL,ON2,B,133,126,Test,User,-,,Recall,Recall1,2782,TRUTHFUL,100,1348,2465,1,1,,,1
5b92bd88f2ac7e0001d8a45f,unapte21vm,Emily_Honors_Thesis_Part_2,1,143,2020-08-31T08:27:43-07:00,4.1498601436615,10,versionA_stim.csv,RL_JOLVersionB.csv,"RELATIONAL Version B",OLD,FRUIT,STRAWBERRY,ON2,B,124,136,Test,User,-,,Recall,Recall1,3550,VEGETABLE,10.526315789474,2075,3131,0,0,,,1
5b92bd88f2ac7e0001d8a45f,unapte21vm,Emily_Honors_Thesis_Part_2,1,144,2020-08-31T08:33:02-07:00,318.76662898064,10,versionA_stim.csv,RL_JOLVersionB.csv,"RELATIONAL Version B",OLD,MAZE,ELECTION,ON2,U,159,112,Test,User,-,,Recall,Recall1,318263,ELECTION,100,316968,317876,1,1,,,0.023
5b92bd88f2ac7e0001d8a45f,unapte21vm,Emily_Honors_Thesis_Part_2,1,145,2020-08-31T08:33:04-07:00,2.5463199615479,10,versionA_stim.csv,RL_JOLVersionB.csv,"RELATIONAL Version B",OLD,EARTH,GROUND,ON2,S,144,135,Test,User,-,,Recall,Recall1,1992,GROUND,100,1353,1762,1,1,,,1
5b92bd88f2ac7e0001d8a45f,unapte21vm,Emily_Honors_Thesis_Part_2,1,146,2020-08-31T08:33:07-07:00,2.3504219055176,10,versionA_stim.csv,RL_JOLVersionB.csv,"RELATIONAL Version B",OLD,FEUD,FIGHT,ON2,F,113,150,Test,User,-,,Recall,Recall1,1807,FIGHT,100,1167,1533,1,1,,,1
5b92bd88f2ac7e0001d8a45f,unapte21vm,Emily_Honors_Thesis_Part_2,1,147,2020-08-31T08:33:10-07:00,3.4019460678101,10,versionA_stim.csv,RL_JOLVersionB.csv,"RELATIONAL Version B",OLD,ROD,REEL,ON2,S,150,105,Test,User,-,,Recall,Recall1,2864,REEL,100,2266,2567,1,1,,,1
5b92bd88f2ac7e0001d8a45f,unapte21vm,Emily_Honors_Thesis_Part_2,1,148,2020-08-31T08:33:12-07:00,1.7794239521027,10,versionA_stim.csv,RL_JOLVersionB.csv,"RELATIONAL Version B",OLD,DRY,WET,ON2,S,146,116,Test,User,-,,Recall,Recall1,1366,WET,100,819,1092,1,1,,,1
5b92bd88f2ac7e0001d8a45f,unapte21vm,Emily_Honors_Thesis_Part_2,1,149,2020-08-31T08:33:23-07:00,11.38542509079,10,versionA_stim.csv,RL_JOLVersionB.csv,"RELATIONAL Version B",OLD,TEMPERATURE,MORNING,ON2,U,173,140,Test,User,-,,Recall,Recall1,10898,HEAT,0,10125,10538,0,0,,,1
5b92bd88f2ac7e0001d8a45f,unapte21vm,Emily_Honors_Thesis_Part_2,1,150,2020-08-31T08:33:27-07:00,3.5086650848389,10,versionA_stim.csv,RL_JOLVersionB.csv,"RELATIONAL Version B",OLD,FLEA,TICK,ON2,S,151,133,Test,User,-,,Recall,Recall1,2971,TICK,100,928,2497,1,1,,,1
5b92bd88f2ac7e0001d8a45f,unapte21vm,Emily_Honors_Thesis_Part_2,1,151,2020-08-31T08:33:33-07:00,6.4253919124603,10,versionA_stim.csv,RL_JOLVersionB.csv,"RELATIONAL Version B",OLD,EXTENSION,LONG,ON2,F,96,149,Test,User,-,,Recall,Recall1,5933,CLOTH,44.444444444444,3424,4014,0,0,,,1
5b92bd88f2ac7e0001d8a45f,unapte21vm,Emily_Honors_Thesis_Part_2,1,152,2020-08-31T08:33:48-07:00,14.911348104477,10,versionA_stim.csv,RL_JOLVersionB.csv,"RELATIONAL Version B",OLD,CRACKLE,ABLE,ON2,U,162,119,Test,User,-,,Recall,Recall1,14427,WET,28.571428571429,12731,13265,0,0,,,1
5b92bd88f2ac7e0001d8a45f,unapte21vm,Emily_Honors_Thesis_Part_2,1,153,2020-08-31T08:33:51-07:00,2.7270917892456,10,versionA_stim.csv,RL_JOLVersionB.csv,"RELATIONAL Version B",OLD,DETECTIVE,MYSTERY,ON2,F,100,148,Test,User,-,,Recall,Recall1,2197,CLUE,18.181818181818,1633,1879,0,0,,,1
5b92bd88f2ac7e0001d8a45f,unapte21vm,Emily_Honors_Thesis_Part_2,1,154,2020-08-31T08:33:59-07:00,8.079222202301,10,versionA_stim.csv,RL_JOLVersionB.csv,"RELATIONAL Version B",OLD,DEAD,COFFIN,ON2,B,128,117,Test,User,-,,Recall,Recall1,7610,COFFIN,100,4889,7143,1,1,,,1
5b92bd88f2ac7e0001d8a45f,unapte21vm,Emily_Honors_Thesis_Part_2,1,155,2020-08-31T08:34:01-07:00,2.4630727767944,10,versionA_stim.csv,RL_JOLVersionB.csv,"RELATIONAL Version B",OLD,DRIVER,CAR,ON2,F,106,145,Test,User,-,,Recall,Recall1,1966,CAR,100,1457,1701,1,1,,,1
5b92bd88f2ac7e0001d8a45f,unapte21vm,Emily_Honors_Thesis_Part_2,1,156,2020-08-31T08:34:04-07:00,2.4337401390076,10,versionA_stim.csv,RL_JOLVersionB.csv,"RELATIONAL Version B",OLD,FIGHT,BRAWL,ON2,B,135,153,Test,User,-,,Recall,Recall1,1946,FEUD,0,803,1613,0,0,,,1
5b92bd88f2ac7e0001d8a45f,unapte21vm,Emily_Honors_Thesis_Part_2,1,157,2020-08-31T08:34:16-07:00,12.21882891655,10,versionA_stim.csv,RL_JOLVersionB.csv,"RELATIONAL Version B",OLD,FURRY,DOG,ON2,F,102,114,Test,User,-,,Recall,Recall1,11687,DOG,100,10894,11146,1,1,,,1
5b92bd88f2ac7e0001d8a45f,unapte21vm,Emily_Honors_Thesis_Part_2,1,158,2020-08-31T08:34:18-07:00,2.487154006958,10,versionA_stim.csv,RL_JOLVersionB.csv,"RELATIONAL Version B",OLD,FUZZY,BANG,ON2,U,168,128,Test,User,-,,Recall,Recall1,1948,DOG,28.571428571429,1052,1335,0,0,,,1
5b92bd88f2ac7e0001d8a45f,unapte21vm,Emily_Honors_Thesis_Part_2,1,159,2020-08-31T08:34:26-07:00,7.3113579750061,10,versionA_stim.csv,RL_JOLVersionB.csv,"RELATIONAL Version B",OLD,GONE,AWAY,ON2,S,142,167,Test,User,-,,Recall,Recall1,6826,HIDE,0,4416,6091,0,0,,,1
5b92bd88f2ac7e0001d8a45f,unapte21vm,Emily_Honors_Thesis_Part_2,1,160,2020-08-31T08:34:30-07:00,3.9361951351166,10,versionA_stim.csv,RL_JOLVersionB.csv,"RELATIONAL Version B",OLD,LITTER,TRASH,ON2,F,103,171,Test,User,-,,Recall,Recall1,3372,RUBBISH,50,1807,2783,0,0,,,1
5b92bd88f2ac7e0001d8a45f,unapte21vm,Emily_Honors_Thesis_Part_2,1,161,2020-08-31T08:34:33-07:00,2.7958869934082,10,versionA_stim.csv,RL_JOLVersionB.csv,"RELATIONAL Version B",OLD,SCALP,HEAD,ON2,F,105,118,Test,User,-,,Recall,Recall1,2295,HEAD,100,1052,1870,1,1,,,1
5b92bd88f2ac7e0001d8a45f,unapte21vm,Emily_Honors_Thesis_Part_2,1,162,2020-08-31T08:34:35-07:00,2.8562350273132,10,versionA_stim.csv,RL_JOLVersionB.csv,"RELATIONAL Version B",OLD,GIVE,STEAK,ON2,U,158,168,Test,User,-,,Recall,Recall1,2249,HAVE,22.222222222222,1181,1829,0,0,,,1
5b92bd88f2ac7e0001d8a45f,unapte21vm,Emily_Honors_Thesis_Part_2,1,163,2020-08-31T08:34:38-07:00,3.1057260036469,10,versionA_stim.csv,RL_JOLVersionB.csv,"RELATIONAL Version B",OLD,MULE,DONKEY,ON2,F,108,175,Test,User,-,,Recall,Recall1,2614,DONKEY,100,1199,2247,1,1,,,1
5b92bd88f2ac7e0001d8a45f,unapte21vm,Emily_Honors_Thesis_Part_2,1,164,2020-08-31T08:34:42-07:00,3.7823560237885,10,versionA_stim.csv,RL_JOLVersionB.csv,"RELATIONAL Version B",OLD,SHELL,SHAKE,ON2,U,163,109,Test,User,-,,Recall,Recall1,3044,CRACKLE,50,1428,2683,0,0,,,1
5b92bd88f2ac7e0001d8a45f,unapte21vm,Emily_Honors_Thesis_Part_2,1,165,2020-08-31T08:34:45-07:00,3.0906419754028,10,versionA_stim.csv,RL_JOLVersionB.csv,"RELATIONAL Version B",OLD,AFFECTION,LOVE,ON2,F,115,139,Test,User,-,,Recall,Recall1,2530,LOVE,100,966,1972,1,1,,,1
5b92bd88f2ac7e0001d8a45f,unapte21vm,Emily_Honors_Thesis_Part_2,1,166,2020-08-31T08:34:49-07:00,3.5359218120575,10,versionA_stim.csv,RL_JOLVersionB.csv,"RELATIONAL Version B",OLD,JUSTICE,MAROON,ON2,U,156,146,Test,User,-,,Recall,Recall1,2996,POLICE,16.666666666667,2011,2640,0,0,,,1
5b92bd88f2ac7e0001d8a45f,unapte21vm,Emily_Honors_Thesis_Part_2,1,167,2020-08-31T08:34:51-07:00,2.1093330383301,10,versionA_stim.csv,RL_JOLVersionB.csv,"RELATIONAL Version B",OLD,MASON,JAR,ON2,S,138,162,Test,User,-,,Recall,Recall1,1713,JAR,100,1110,1379,1,1,,,1
5b92bd88f2ac7e0001d8a45f,unapte21vm,Emily_Honors_Thesis_Part_2,1,168,2020-08-31T08:35:02-07:00,11.155197143555,10,versionA_stim.csv,RL_JOLVersionB.csv,"RELATIONAL Version B",OLD,MONEY,BANKER,ON2,B,132,165,Test,User,-,,Recall,Recall1,10668,CASH,20,9733,10249,0,0,,,1
5b92bd88f2ac7e0001d8a45f,unapte21vm,Emily_Honors_Thesis_Part_2,1,169,2020-08-31T08:35:04-07:00,1.8189368247986,10,versionA_stim.csv,RL_JOLVersionB.csv,"RELATIONAL Version B",OLD,CHERRY,RED,ON2,F,104,169,Test,User,-,,Recall,Recall1,1381,RED,100,860,1122,1,1,,,1
5b92bd88f2ac7e0001d8a45f,unapte21vm,Emily_Honors_Thesis_Part_2,1,170,2020-08-31T08:35:07-07:00,2.8903779983521,10,versionA_stim.csv,RL_JOLVersionB.csv,"RELATIONAL Version B",OLD,CANDLE,WAX,ON2,S,139,151,Test,User,-,,Recall,Recall1,2381,WAX,100,1342,1890,1,1,,,1
5b92bd88f2ac7e0001d8a45f,unapte21vm,Emily_Honors_Thesis_Part_2,1,171,2020-08-31T08:35:10-07:00,2.8189752101898,10,versionA_stim.csv,RL_JOLVersionB.csv,"RELATIONAL Version B",OLD,DOCUMENT,PAPER,ON2,F,109,138,Test,User,-,,Recall,Recall1,2298,PAPER,100,1514,1915,1,1,,,1
5b92bd88f2ac7e0001d8a45f,unapte21vm,Emily_Honors_Thesis_Part_2,1,172,2020-08-31T08:35:14-07:00,4.5541617870331,10,versionA_stim.csv,RL_JOLVersionB.csv,"RELATIONAL Version B",OLD,VEHICLE,CHARM,ON2,U,160,154,Test,User,-,,Recall,Recall1,4056,CAR,75,3470,3716,0,1,,,1
5b92bd88f2ac7e0001d8a45f,unapte21vm,Emily_Honors_Thesis_Part_2,1,173,2020-08-31T08:35:18-07:00,3.8452560901642,10,versionA_stim.csv,RL_JOLVersionB.csv,"RELATIONAL Version B",OLD,BOTH,OUNCE,ON2,U,172,159,Test,User,-,,Recall,Recall1,3352,EQUAL,20,2072,2777,0,0,,,1
5b92bd88f2ac7e0001d8a45f,unapte21vm,Emily_Honors_Thesis_Part_2,1,174,2020-08-31T08:35:23-07:00,4.4998459815979,10,versionA_stim.csv,RL_JOLVersionB.csv,"RELATIONAL Version B",OLD,ALONE,LONELY,ON2,S,145,141,Test,User,-,,Recall,Recall1,3989,LONELY,100,1677,3454,1,1,,,1
5b92bd88f2ac7e0001d8a45f,unapte21vm,Emily_Honors_Thesis_Part_2,1,175,2020-08-31T08:35:28-07:00,5.7917261123657,10,versionA_stim.csv,RL_JOLVersionB.csv,"RELATIONAL Version B",OLD,CHILL,COLD,ON2,F,114,132,Test,User,-,,Recall,Recall1,5302,FROZEN,20,3893,4787,0,0,,,1
5b92bd88f2ac7e0001d8a45f,unapte21vm,Emily_Honors_Thesis_Part_2,1,176,2020-08-31T08:35:32-07:00,3.575336933136,10,versionA_stim.csv,RL_JOLVersionB.csv,"RELATIONAL Version B",OLD,MOAT,CLEAR,ON2,U,169,104,Test,User,-,,Recall,Recall1,3067,CLEAR,100,2113,2710,1,1,,,1
5b92bd88f2ac7e0001d8a45f,unapte21vm,Emily_Honors_Thesis_Part_2,1,177,2020-08-31T08:35:40-07:00,8.2837491035461,10,versionA_stim.csv,RL_JOLVersionB.csv,"RELATIONAL Version B",OLD,FISH,SARDINE,ON2,B,130,124,Test,User,-,,Recall,Recall1,7803,SALMON,46.153846153846,1352,7442,0,0,,,1
5b92bd88f2ac7e0001d8a45f,unapte21vm,Emily_Honors_Thesis_Part_2,1,178,2020-08-31T08:35:50-07:00,10.127947807312,10,versionA_stim.csv,RL_JOLVersionB.csv,"RELATIONAL Version B",OLD,SAFETY,SEATBELT,ON2,S,147,158,Test,User,-,,Recall,Recall1,9633,SEATBELT,100,7986,9137,1,1,,,1
5b92bd88f2ac7e0001d8a45f,unapte21vm,Emily_Honors_Thesis_Part_2,1,179,2020-08-31T08:35:54-07:00,3.188462972641,10,versionA_stim.csv,RL_JOLVersionB.csv,"RELATIONAL Version B",OLD,MAIN,SCAR,ON2,U,175,107,Test,User,-,,Recall,Recall1,2658,CLEAR,66.666666666667,1666,2193,0,0,,,1
5b92bd88f2ac7e0001d8a45f,unapte21vm,Emily_Honors_Thesis_Part_2,1,180,2020-08-31T08:35:56-07:00,2.4667761325836,10,versionA_stim.csv,RL_JOLVersionB.csv,"RELATIONAL Version B",OLD,CAT,PANTHER,ON2,B,126,98,Test,User,-,,Recall,Recall1,1973,FURRY,16.666666666667,1103,1645,0,0,,,1
5b92bd88f2ac7e0001d8a45f,unapte21vm,Emily_Honors_Thesis_Part_2,1,181,2020-08-31T08:36:00-07:00,3.6778979301453,10,versionA_stim.csv,RL_JOLVersionB.csv,"RELATIONAL Version B",OLD,GLASS,BREAKABLE,ON2,B,127,111,Test,User,-,,Recall,Recall1,3201,BREAKABLE,100,2110,2931,1,1,,,1
5b92bd88f2ac7e0001d8a45f,unapte21vm,Emily_Honors_Thesis_Part_2,1,182,2020-08-31T08:36:02-07:00,2.3732590675354,10,versionA_stim.csv,RL_JOLVersionB.csv,"RELATIONAL Version B",OLD,OWN,HAVE,ON2,S,153,152,Test,User,-,,Recall,Recall1,1829,HAVE,100,897,1385,1,1,,,1
5b92bd88f2ac7e0001d8a45f,unapte21vm,Emily_Honors_Thesis_Part_2,1,183,2020-08-31T08:36:11-07:00,8.8017060756683,10,versionA_stim.csv,RL_JOLVersionB.csv,"RELATIONAL Version B",OLD,EVEN,REVENGE,ON2,B,122,161,Test,User,-,,Recall,Recall1,8101,REVENGE,100,1768,7896,1,1,,,1
5b92bd88f2ac7e0001d8a45f,unapte21vm,Emily_Honors_Thesis_Part_2,1,184,2020-08-31T08:36:18-07:00,6.8886859416962,10,versionA_stim.csv,RL_JOLVersionB.csv,"RELATIONAL Version B",OLD,LOAN,SIGN,ON2,U,171,166,Test,User,-,,Recall,Recall1,5923,BANK,25,4991,5485,0,0,,,0.897
5b92bd88f2ac7e0001d8a45f,unapte21vm,Emily_Honors_Thesis_Part_2,1,185,2020-08-31T08:36:23-07:00,5.4348609447479,10,versionA_stim.csv,RL_JOLVersionB.csv,"RELATIONAL Version B",OLD,MEAT,OBTAIN,ON2,U,161,156,Test,User,-,,Recall,Recall1,4932,BEEF,20,4075,4528,0,0,,,1
5b92bd88f2ac7e0001d8a45f,unapte21vm,Emily_Honors_Thesis_Part_2,1,186,2020-08-31T08:36:42-07:00,18.685189008713,10,versionA_stim.csv,RL_JOLVersionB.csv,"RELATIONAL Version B",OLD,PHONE,COMMUNICATION,ON2,S,149,173,Test,User,-,,Recall,Recall1,18199,DIAL,23.529411764706,17580,17847,0,0,,,1
5b92bd88f2ac7e0001d8a45f,unapte21vm,Emily_Honors_Thesis_Part_2,1,187,2020-08-31T08:36:45-07:00,3.2076499462128,10,versionA_stim.csv,RL_JOLVersionB.csv,"RELATIONAL Version B",OLD,BIRD,PENGUIN,ON2,B,119,113,Test,User,-,,Recall,Recall1,2660,PENGUIN,100,899,2299,1,1,,,1
5b92bd88f2ac7e0001d8a45f,unapte21vm,Emily_Honors_Thesis_Part_2,1,188,2020-08-31T08:36:48-07:00,3.199597120285,10,versionA_stim.csv,RL_JOLVersionB.csv,"RELATIONAL Version B",OLD,STAR,ACTRESS,ON2,B,120,110,Test,User,-,,Recall,Recall1,2699,ACTRESS,100,1405,2402,1,1,,,1
5b92bd88f2ac7e0001d8a45f,unapte21vm,Emily_Honors_Thesis_Part_2,1,189,2020-08-31T08:36:51-07:00,2.6599090099335,10,versionA_stim.csv,RL_JOLVersionB.csv,"RELATIONAL Version B",OLD,TANTRUM,TEMPER,ON2,S,154,101,Test,User,-,,Recall,Recall1,2178,TEMPER,100,1197,1767,1,1,,,1
5b92bd88f2ac7e0001d8a45f,unapte21vm,Emily_Honors_Thesis_Part_2,1,190,2020-08-31T08:36:54-07:00,2.8988938331604,10,versionA_stim.csv,RL_JOLVersionB.csv,"RELATIONAL Version B",OLD,POP,BALLOON,ON2,B,123,143,Test,User,-,,Recall,Recall1,2417,CRACKLE,28.571428571429,1356,2039,0,0,,,1
5b92bd88f2ac7e0001d8a45f,unapte21vm,Emily_Honors_Thesis_Part_2,1,191,2020-08-31T08:36:56-07:00,2.4188840389252,10,versionA_stim.csv,RL_JOLVersionB.csv,"RELATIONAL Version B",OLD,LISTEN,FICTION,ON2,U,164,155,Test,User,-,,Recall,Recall1,1935,HEAR,0,1116,1475,0,0,,,1
5b92bd88f2ac7e0001d8a45f,unapte21vm,Emily_Honors_Thesis_Part_2,1,192,2020-08-31T08:37:04-07:00,7.8697550296783,10,versionA_stim.csv,RL_JOLVersionB.csv,"RELATIONAL Version B",OLD,KEYS,JOKE,ON2,U,165,106,Test,User,-,,Recall,Recall1,7388,CAR,0,6631,6949,0,0,,,1
5b92bd88f2ac7e0001d8a45f,unapte21vm,Emily_Honors_Thesis_Part_2,1,193,2020-08-31T08:37:09-07:00,4.9508929252625,10,versionA_stim.csv,RL_JOLVersionB.csv,"RELATIONAL Version B",OLD,RIGHTS,EQUAL,ON2,S,137,108,Test,User,-,,Recall,Recall1,4475,EQUAL,100,2649,3240,1,1,,,1
5b92bd88f2ac7e0001d8a45f,unapte21vm,Emily_Honors_Thesis_Part_2,1,194,2020-08-31T08:37:14-07:00,5.1442091464996,10,versionA_stim.csv,RL_JOLVersionB.csv,"RELATIONAL Version B",OLD,WATER,DRINK,ON2,S,143,130,Test,User,-,,Recall,Recall1,4652,CLEAR,20,3767,4124,0,0,,,1
5b92bd88f2ac7e0001d8a45f,unapte21vm,Emily_Honors_Thesis_Part_2,1,195,2020-08-31T08:37:36-07:00,21.409581899643,10,versionA_stim.csv,RL_JOLVersionB.csv,"RELATIONAL Version B",OLD,,,,,,0,Instruct,-,10,"You will now be presented with a new set of word pairs. Please study each pair. Remember that your memory will be tested! When finished, press Enter to move to the next pair.",Initial_Instruct,Instruct4,20925,,,-1,-1,,,,,0.969
5b92bd88f2ac7e0001d8a45f,unapte21vm,Emily_Honors_Thesis_Part_2,1,196,2020-08-31T08:37:54-07:00,18.740237951279,10,versionA_stim.csv,RL_JOLVersionB.csv,"RELATIONAL Version B",OLD,,,,,,0,Instruct,,10,"You will again be asked to rate your ability to remember these items using a 0 to 100 scale. Remember to use the full range of the scale!",,Instruct10,18201,,,-1,-1,,,,,0.769
5b92bd88f2ac7e0001d8a45f,unapte21vm,Emily_Honors_Thesis_Part_2,1,197,2020-08-31T08:38:15-07:00,20.638146162033,10,versionA_stim.csv,RL_JOLVersionB.csv,"RELATIONAL Version B",OLD,,,,,,0,Instruct,-,15,"As you study and make your ratings, please think about how the two concepts are RELATED to each other. For example, if you see the pair TURTLE-CAT, think about how both are alive, they are both animals, and both can be kept as pets.",,Instruct20,19696,,,-1,-1,,,,,1
5b92bd88f2ac7e0001d8a45f,unapte21vm,Emily_Honors_Thesis_Part_2,1,198,2020-08-31T08:38:47-07:00,31.934996843338,10,versionA_stim.csv,RL_JOLVersionB.csv,"RELATIONAL Version B",OLD,,,,,,0,FreeRecall,-,10,"What you should think about as you study each item pair? Type your response in the box below.",,CHECK4,30891,"How the two concepts are related, Turtle and Cat are related as they're both alive, can be kept as pets and animals",0,9483,29392,0,0,,,1
5b92bd88f2ac7e0001d8a45f,unapte21vm,Emily_Honors_Thesis_Part_2,1,199,2020-08-31T08:38:53-07:00,5.5643939971924,10,versionA_stim.csv,RL_JOLVersionB.csv,"RELATIONAL Version B",OLD,,,,,,0,Instruct,User,-,"Press Enter when you are readty to begin",,Instruct11,5036,,,-1,-1,,,,,1
5b92bd88f2ac7e0001d8a45f,unapte21vm,Emily_Honors_Thesis_Part_2,1,200,2020-08-31T08:39:01-07:00,8.594918012619,10,versionA_stim.csv,RL_JOLVersionB.csv,"RELATIONAL Version B",OLD,SCARE,HIDE,Buffer,Buffer,4,5,JOL,User,-,"How likely are you to correctly recall the second item in the pair?|Type your response on a scale from 0-100 and then press Enter.",Study/JOL,BUFFER3,8102,,,4471,4581,,,,40,1
5b92bd88f2ac7e0001d8a45f,unapte21vm,Emily_Honors_Thesis_Part_2,1,201,2020-08-31T08:39:06-07:00,4.7208781242371,10,versionA_stim.csv,RL_JOLVersionB.csv,"RELATIONAL Version B",OLD,SPACE,JAM,Buffer,Buffer,5,2,JOL,User,-,"How likely are you to correctly recall the second item in the pair?|Type your response on a scale from 0-100 and then press Enter.",Study/JOL,BUFFER3,4244,,,2703,2773,,,,90,1
5b92bd88f2ac7e0001d8a45f,unapte21vm,Emily_Honors_Thesis_Part_2,1,202,2020-08-31T08:39:08-07:00,2.5937860012054,10,versionA_stim.csv,RL_JOLVersionB.csv,"RELATIONAL Version B",OLD,TREES,GREEN,Buffer,Buffer,1,6,JOL,User,-,"How likely are you to correctly recall the second item in the pair?|Type your response on a scale from 0-100 and then press Enter.",Study/JOL,BUFFER3,2049,,,1780,1847,,,,90,1
5b92bd88f2ac7e0001d8a45f,unapte21vm,Emily_Honors_Thesis_Part_2,1,203,2020-08-31T08:39:11-07:00,2.3453459739685,10,versionA_stim.csv,RL_JOLVersionB.csv,"RELATIONAL Version B",OLD,PEANUT,BUTTER,Buffer,Buffer,3,3,JOL,User,-,"How likely are you to correctly recall the second item in the pair?|Type your response on a scale from 0-100 and then press Enter.",Study/JOL,BUFFER3,1790,,,885,1113,,,,100,1
5b92bd88f2ac7e0001d8a45f,unapte21vm,Emily_Honors_Thesis_Part_2,1,204,2020-08-31T08:39:14-07:00,2.9464550018311,10,versionA_stim.csv,RL_JOLVersionB.csv,"RELATIONAL Version B",OLD,BASEBALL,CATCHER,Buffer,Buffer,2,4,JOL,User,-,"How likely are you to correctly recall the second item in the pair?|Type your response on a scale from 0-100 and then press Enter.",Study/JOL,BUFFER3,2446,,,1638,1717,,,,80,1
5b92bd88f2ac7e0001d8a45f,unapte21vm,Emily_Honors_Thesis_Part_2,1,205,2020-08-31T08:39:17-07:00,3.6061449050903,10,versionA_stim.csv,RL_JOLVersionB.csv,"RELATIONAL Version B",OLD,SLEEP,DROWSY,ON,B,41,66,JOL,User,-,"How likely are you to correctly recall the second item in the pair?|Type your response on a scale from 0-100 and then press Enter.",Study/JOL,"Study Phase2",2808,,,1221,2649,,,,90,1
5b92bd88f2ac7e0001d8a45f,unapte21vm,Emily_Honors_Thesis_Part_2,1,206,2020-08-31T08:39:21-07:00,3.1940810680389,10,versionA_stim.csv,RL_JOLVersionB.csv,"RELATIONAL Version B",OLD,BEGIN,END,ON,S,54,69,JOL,User,-,"How likely are you to correctly recall the second item in the pair?|Type your response on a scale from 0-100 and then press Enter.",Study/JOL,"Study Phase2",2704,,,2396,2463,,,,90,1
5b92bd88f2ac7e0001d8a45f,unapte21vm,Emily_Honors_Thesis_Part_2,1,207,2020-08-31T08:39:23-07:00,2.3462920188904,10,versionA_stim.csv,RL_JOLVersionB.csv,"RELATIONAL Version B",OLD,SWAN,BIRD,ON,F,14,63,JOL,User,-,"How likely are you to correctly recall the second item in the pair?|Type your response on a scale from 0-100 and then press Enter.",Study/JOL,"Study Phase2",1820,,,1475,1576,,,,90,1
5b92bd88f2ac7e0001d8a45f,unapte21vm,Emily_Honors_Thesis_Part_2,1,208,2020-08-31T08:39:31-07:00,7.6544148921967,10,versionA_stim.csv,RL_JOLVersionB.csv,"RELATIONAL Version B",OLD,DIETARY,SACKING,ON,U,67,37,JOL,User,-,"How likely are you to correctly recall the second item in the pair?|Type your response on a scale from 0-100 and then press Enter.",Study/JOL,"Study Phase2",6950,,,6394,6498,,,,10,1
5b92bd88f2ac7e0001d8a45f,unapte21vm,Emily_Honors_Thesis_Part_2,1,209,2020-08-31T08:39:41-07:00,10.830517053604,10,versionA_stim.csv,RL_JOLVersionB.csv,"RELATIONAL Version B",OLD,WAY,OUT,ON,F,16,81,JOL,User,-,"How likely are you to correctly recall the second item in the pair?|Type your response on a scale from 0-100 and then press Enter.",Study/JOL,"Study Phase2",10350,,,8856,9857,,,,90,1
5b92bd88f2ac7e0001d8a45f,unapte21vm,Emily_Honors_Thesis_Part_2,1,210,2020-08-31T08:39:56-07:00,15.091069936752,10,versionA_stim.csv,RL_JOLVersionB.csv,"RELATIONAL Version B",OLD,CREDIT,CARD,ON,F,23,47,JOL,User,-,"How likely are you to correctly recall the second item in the pair?|Type your response on a scale from 0-100 and then press Enter.",Study/JOL,"Study Phase2",14440,,,14172,14211,,,,90,1
5b92bd88f2ac7e0001d8a45f,unapte21vm,Emily_Honors_Thesis_Part_2,1,211,2020-08-31T08:39:59-07:00,2.8065700531006,10,versionA_stim.csv,RL_JOLVersionB.csv,"RELATIONAL Version B",OLD,CHISEL,HAMMER,ON,F,9,72,JOL,User,-,"How likely are you to correctly recall the second item in the pair?|Type your response on a scale from 0-100 and then press Enter.",Study/JOL,"Study Phase2",2277,,,1089,2047,,,,90,1
5b92bd88f2ac7e0001d8a45f,unapte21vm,Emily_Honors_Thesis_Part_2,1,212,2020-08-31T08:40:01-07:00,1.7012679576874,10,versionA_stim.csv,RL_JOLVersionB.csv,"RELATIONAL Version B",OLD,PLANE,PILOT,ON,B,44,43,JOL,User,-,"How likely are you to correctly recall the second item in the pair?|Type your response on a scale from 0-100 and then press Enter.",Study/JOL,"Study Phase2",1326,,,908,987,,,,90,1
5b92bd88f2ac7e0001d8a45f,unapte21vm,Emily_Honors_Thesis_Part_2,1,213,2020-08-31T08:40:05-07:00,4.2426891326904,10,versionA_stim.csv,RL_JOLVersionB.csv,"RELATIONAL Version B",OLD,LIFT,WOMAN,ON,U,69,18,JOL,User,-,"How likely are you to correctly recall the second item in the pair?|Type your response on a scale from 0-100 and then press Enter.",Study/JOL,"Study Phase2",3757,,,1962,2018,,,,10,1
5b92bd88f2ac7e0001d8a45f,unapte21vm,Emily_Honors_Thesis_Part_2,1,214,2020-08-31T08:40:08-07:00,2.836562871933,10,versionA_stim.csv,RL_JOLVersionB.csv,"RELATIONAL Version B",OLD,EDITOR,NEWS,ON,F,10,31,JOL,User,-,"How likely are you to correctly recall the second item in the pair?|Type your response on a scale from 0-100 and then press Enter.",Study/JOL,"Study Phase2",2346,,,1942,2020,,,,80,1
5b92bd88f2ac7e0001d8a45f,unapte21vm,Emily_Honors_Thesis_Part_2,1,215,2020-08-31T08:40:10-07:00,2.1353390216827,10,versionA_stim.csv,RL_JOLVersionB.csv,"RELATIONAL Version B",OLD,BALL,RACKET,ON,B,38,28,JOL,User,-,"How likely are you to correctly recall the second item in the pair?|Type your response on a scale from 0-100 and then press Enter.",Study/JOL,"Study Phase2",1751,,,915,975,,,,90,1
5b92bd88f2ac7e0001d8a45f,unapte21vm,Emily_Honors_Thesis_Part_2,1,216,2020-08-31T08:40:18-07:00,8.1102421283722,10,versionA_stim.csv,RL_JOLVersionB.csv,"RELATIONAL Version B",OLD,ARCHITECTURE,DESIGN,ON,S,51,79,JOL,User,-,"How likely are you to correctly recall the second item in the pair?|Type your response on a scale from 0-100 and then press Enter.",Study/JOL,"Study Phase2",7629,,,7364,7445,,,,90,1
5b92bd88f2ac7e0001d8a45f,unapte21vm,Emily_Honors_Thesis_Part_2,1,217,2020-08-31T08:40:21-07:00,2.3788030147552,10,versionA_stim.csv,RL_JOLVersionB.csv,"RELATIONAL Version B",OLD,LAW,ATTORNEY,ON,B,34,22,JOL,User,-,"How likely are you to correctly recall the second item in the pair?|Type your response on a scale from 0-100 and then press Enter.",Study/JOL,"Study Phase2",1887,,,1522,1581,,,,90,1
5b92bd88f2ac7e0001d8a45f,unapte21vm,Emily_Honors_Thesis_Part_2,1,218,2020-08-31T08:40:23-07:00,2.3936629295349,10,versionA_stim.csv,RL_JOLVersionB.csv,"RELATIONAL Version B",OLD,DELINQUENT,BAD,ON,F,6,49,JOL,User,-,"How likely are you to correctly recall the second item in the pair?|Type your response on a scale from 0-100 and then press Enter.",Study/JOL,"Study Phase2",1868,,,1603,1660,,,,80,1
5b92bd88f2ac7e0001d8a45f,unapte21vm,Emily_Honors_Thesis_Part_2,1,219,2020-08-31T08:40:27-07:00,3.6299319267273,10,versionA_stim.csv,RL_JOLVersionB.csv,"RELATIONAL Version B",OLD,ARTERY,BRONZE,ON,U,74,74,JOL,User,-,"How likely are you to correctly recall the second item in the pair?|Type your response on a scale from 0-100 and then press Enter.",Study/JOL,"Study Phase2",3148,,,2165,2165,,,,0,1
5b92bd88f2ac7e0001d8a45f,unapte21vm,Emily_Honors_Thesis_Part_2,1,220,2020-08-31T08:40:29-07:00,2.589054107666,10,versionA_stim.csv,RL_JOLVersionB.csv,"RELATIONAL Version B",OLD,FIX,HAND,ON,U,75,51,JOL,User,-,"How likely are you to correctly recall the second item in the pair?|Type your response on a scale from 0-100 and then press Enter.",Study/JOL,"Study Phase2",2098,,,1701,1785,,,,70,1
5b92bd88f2ac7e0001d8a45f,unapte21vm,Emily_Honors_Thesis_Part_2,1,221,2020-08-31T08:40:42-07:00,13.203441858292,10,versionA_stim.csv,RL_JOLVersionB.csv,"RELATIONAL Version B",OLD,LETTUCE,SALAD,ON,S,59,58,JOL,User,-,"How likely are you to correctly recall the second item in the pair?|Type your response on a scale from 0-100 and then press Enter.",Study/JOL,"Study Phase2",12710,,,8152,8234,,,,90,1
5b92bd88f2ac7e0001d8a45f,unapte21vm,Emily_Honors_Thesis_Part_2,1,222,2020-08-31T08:41:00-07:00,17.1586830616,10,versionA_stim.csv,RL_JOLVersionB.csv,"RELATIONAL Version B",OLD,MEANING,DEFINITION,ON,S,62,15,JOL,User,-,"How likely are you to correctly recall the second item in the pair?|Type your response on a scale from 0-100 and then press Enter.",Study/JOL,"Study Phase2",16617,,,16311,16357,,,,90,1
5b92bd88f2ac7e0001d8a45f,unapte21vm,Emily_Honors_Thesis_Part_2,1,223,2020-08-31T08:41:04-07:00,4.8470680713654,10,versionA_stim.csv,RL_JOLVersionB.csv,"RELATIONAL Version B",OLD,GEOLOGY,ROCK,ON,F,19,64,JOL,User,-,"How likely are you to correctly recall the second item in the pair?|Type your response on a scale from 0-100 and then press Enter.",Study/JOL,"Study Phase2",4218,,,3505,3670,,,,90,1
5b92bd88f2ac7e0001d8a45f,unapte21vm,Emily_Honors_Thesis_Part_2,1,224,2020-08-31T08:41:14-07:00,9.256490945816,10,versionA_stim.csv,RL_JOLVersionB.csv,"RELATIONAL Version B",OLD,HERD,COW,ON,F,22,85,JOL,User,-,"How likely are you to correctly recall the second item in the pair?|Type your response on a scale from 0-100 and then press Enter.",Study/JOL,"Study Phase2",8766,,,8492,8536,,,,90,1
5b92bd88f2ac7e0001d8a45f,unapte21vm,Emily_Honors_Thesis_Part_2,1,225,2020-08-31T08:41:27-07:00,13.170810937881,10,versionA_stim.csv,RL_JOLVersionB.csv,"RELATIONAL Version B",OLD,KING,VASE,ON,U,85,45,JOL,User,-,"How likely are you to correctly recall the second item in the pair?|Type your response on a scale from 0-100 and then press Enter.",Study/JOL,"Study Phase2",12681,,,11974,12354,,,,10,1
5b92bd88f2ac7e0001d8a45f,unapte21vm,Emily_Honors_Thesis_Part_2,1,226,2020-08-31T08:41:32-07:00,4.8063521385193,10,versionA_stim.csv,RL_JOLVersionB.csv,"RELATIONAL Version B",OLD,WAGE,MONEY,ON,F,8,73,JOL,User,-,"How likely are you to correctly recall the second item in the pair?|Type your response on a scale from 0-100 and then press Enter.",Study/JOL,"Study Phase2",4282,,,3901,4009,,,,90,1
5b92bd88f2ac7e0001d8a45f,unapte21vm,Emily_Honors_Thesis_Part_2,1,227,2020-08-31T08:41:38-07:00,6.0842208862305,10,versionA_stim.csv,RL_JOLVersionB.csv,"RELATIONAL Version B",OLD,DIGESTION,STOMACH,ON,F,7,12,JOL,User,-,"How likely are you to correctly recall the second item in the pair?|Type your response on a scale from 0-100 and then press Enter.",Study/JOL,"Study Phase2",5601,,,4756,4799,,,,90,1
5b92bd88f2ac7e0001d8a45f,unapte21vm,Emily_Honors_Thesis_Part_2,1,228,2020-08-31T08:41:48-07:00,10.376129150391,10,versionA_stim.csv,RL_JOLVersionB.csv,"RELATIONAL Version B",OLD,HYGIENE,CLEAN,ON,F,17,8,JOL,User,-,"How likely are you to correctly recall the second item in the pair?|Type your response on a scale from 0-100 and then press Enter.",Study/JOL,"Study Phase2",9886,,,9237,9266,,,,90,1
5b92bd88f2ac7e0001d8a45f,unapte21vm,Emily_Honors_Thesis_Part_2,1,229,2020-08-31T08:41:52-07:00,3.3976550102234,10,versionA_stim.csv,RL_JOLVersionB.csv,"RELATIONAL Version B",OLD,ORCHID,FLOWER,ON,F,24,9,JOL,User,-,"How likely are you to correctly recall the second item in the pair?|Type your response on a scale from 0-100 and then press Enter.",Study/JOL,"Study Phase2",2869,,,1552,2611,,,,90,1
5b92bd88f2ac7e0001d8a45f,unapte21vm,Emily_Honors_Thesis_Part_2,1,230,2020-08-31T08:41:59-07:00,7.491555929184,10,versionA_stim.csv,RL_JOLVersionB.csv,"RELATIONAL Version B",OLD,DEBATE,SIGHT,ON,U,73,24,JOL,User,-,"How likely are you to correctly recall the second item in the pair?|Type your response on a scale from 0-100 and then press Enter.",Study/JOL,"Study Phase2",6997,,,5363,6727,,,,20,1
5b92bd88f2ac7e0001d8a45f,unapte21vm,Emily_Honors_Thesis_Part_2,1,231,2020-08-31T08:42:03-07:00,3.4834220409393,10,versionA_stim.csv,RL_JOLVersionB.csv,"RELATIONAL Version B",OLD,MATH,DIVISION,ON,B,33,39,JOL,User,-,"How likely are you to correctly recall the second item in the pair?|Type your response on a scale from 0-100 and then press Enter.",Study/JOL,"Study Phase2",3009,,,2780,2825,,,,90,1
5b92bd88f2ac7e0001d8a45f,unapte21vm,Emily_Honors_Thesis_Part_2,1,232,2020-08-31T08:42:06-07:00,3.0884890556335,10,versionA_stim.csv,RL_JOLVersionB.csv,"RELATIONAL Version B",OLD,SOON,BELT,ON,U,70,27,JOL,User,-,"How likely are you to correctly recall the second item in the pair?|Type your response on a scale from 0-100 and then press Enter.",Study/JOL,"Study Phase2",2594,,,1917,2274,,,,10,1
5b92bd88f2ac7e0001d8a45f,unapte21vm,Emily_Honors_Thesis_Part_2,1,233,2020-08-31T08:42:09-07:00,3.0676069259644,10,versionA_stim.csv,RL_JOLVersionB.csv,"RELATIONAL Version B",OLD,BRIDGE,WATER,ON,F,18,61,JOL,User,-,"How likely are you to correctly recall the second item in the pair?|Type your response on a scale from 0-100 and then press Enter.",Study/JOL,"Study Phase2",2580,,,1949,2039,,,,90,1
5b92bd88f2ac7e0001d8a45f,unapte21vm,Emily_Honors_Thesis_Part_2,1,234,2020-08-31T08:42:16-07:00,6.9947729110718,10,versionA_stim.csv,RL_JOLVersionB.csv,"RELATIONAL Version B",OLD,SUGAR,RIDDLE,ON,U,81,36,JOL,User,-,"How likely are you to correctly recall the second item in the pair?|Type your response on a scale from 0-100 and then press Enter.",Study/JOL,"Study Phase2",6512,,,6227,6227,,,,0,1
5b92bd88f2ac7e0001d8a45f,unapte21vm,Emily_Honors_Thesis_Part_2,1,235,2020-08-31T08:42:21-07:00,4.8338949680328,10,versionA_stim.csv,RL_JOLVersionB.csv,"RELATIONAL Version B",OLD,TAKE,SEIZE,ON,B,29,71,JOL,User,-,"How likely are you to correctly recall the second item in the pair?|Type your response on a scale from 0-100 and then press Enter.",Study/JOL,"Study Phase2",4342,,,1997,3419,,,,80,1
5b92bd88f2ac7e0001d8a45f,unapte21vm,Emily_Honors_Thesis_Part_2,1,236,2020-08-31T08:42:38-07:00,17.392058134079,10,versionA_stim.csv,RL_JOLVersionB.csv,"RELATIONAL Version B",OLD,PUSHER,CLUTTER,ON,U,66,30,JOL,User,-,"How likely are you to correctly recall the second item in the pair?|Type your response on a scale from 0-100 and then press Enter.",Study/JOL,"Study Phase2",16909,,,16213,16605,,,,10,1
5b92bd88f2ac7e0001d8a45f,unapte21vm,Emily_Honors_Thesis_Part_2,1,237,2020-08-31T08:42:42-07:00,4.1241278648376,10,versionA_stim.csv,RL_JOLVersionB.csv,"RELATIONAL Version B",OLD,BABY,CHILD,ON,S,64,67,JOL,User,-,"How likely are you to correctly recall the second item in the pair?|Type your response on a scale from 0-100 and then press Enter.",Study/JOL,"Study Phase2",3586,,,3033,3063,,,,90,1
5b92bd88f2ac7e0001d8a45f,unapte21vm,Emily_Honors_Thesis_Part_2,1,238,2020-08-31T08:42:45-07:00,2.8427140712738,10,versionA_stim.csv,RL_JOLVersionB.csv,"RELATIONAL Version B",OLD,TRIAL,JURY,ON,S,50,83,JOL,User,-,"How likely are you to correctly recall the second item in the pair?|Type your response on a scale from 0-100 and then press Enter.",Study/JOL,"Study Phase2",2343,,,1218,1305,,,,90,1
5b92bd88f2ac7e0001d8a45f,unapte21vm,Emily_Honors_Thesis_Part_2,1,239,2020-08-31T08:42:47-07:00,1.9856560230255,10,versionA_stim.csv,RL_JOLVersionB.csv,"RELATIONAL Version B",OLD,LOCATION,SITE,ON,S,48,76,JOL,User,-,"How likely are you to correctly recall the second item in the pair?|Type your response on a scale from 0-100 and then press Enter.",Study/JOL,"Study Phase2",1616,,,1287,1344,,,,90,1
5b92bd88f2ac7e0001d8a45f,unapte21vm,Emily_Honors_Thesis_Part_2,1,240,2020-08-31T08:42:52-07:00,5.023854970932,10,versionA_stim.csv,RL_JOLVersionB.csv,"RELATIONAL Version B",OLD,,,,,,0,Instruct,-,3,"Remember to focus on how the two items are similiar while you study and make your ratings!",,CHECK5,4539,,,-1,-1,,,,,1
5b92bd88f2ac7e0001d8a45f,unapte21vm,Emily_Honors_Thesis_Part_2,1,241,2020-08-31T08:42:54-07:00,2.532506942749,10,versionA_stim.csv,RL_JOLVersionB.csv,"RELATIONAL Version B",OLD,VALLEY,ADD,ON,U,82,17,JOL,User,-,"How likely are you to correctly recall the second item in the pair?|Type your response on a scale from 0-100 and then press Enter.",Study/JOL,"Study Phase2",2032,,,1908,1908,,,,0,1
5b92bd88f2ac7e0001d8a45f,unapte21vm,Emily_Honors_Thesis_Part_2,1,242,2020-08-31T08:42:56-07:00,2.0824401378632,10,versionA_stim.csv,RL_JOLVersionB.csv,"RELATIONAL Version B",OLD,REVOLUTION,WAR,ON,F,20,42,JOL,User,-,"How likely are you to correctly recall the second item in the pair?|Type your response on a scale from 0-100 and then press Enter.",Study/JOL,"Study Phase2",1665,,,1402,1432,,,,90,1
5b92bd88f2ac7e0001d8a45f,unapte21vm,Emily_Honors_Thesis_Part_2,1,243,2020-08-31T08:43:02-07:00,5.9131858348846,10,versionA_stim.csv,RL_JOLVersionB.csv,"RELATIONAL Version B",OLD,HONEY,BEE,ON,S,63,20,JOL,User,-,"How likely are you to correctly recall the second item in the pair?|Type your response on a scale from 0-100 and then press Enter.",Study/JOL,"Study Phase2",4046,,,2398,3277,,,,100,1
5b92bd88f2ac7e0001d8a45f,unapte21vm,Emily_Honors_Thesis_Part_2,1,244,2020-08-31T08:43:05-07:00,2.9026200771332,10,versionA_stim.csv,RL_JOLVersionB.csv,"RELATIONAL Version B",OLD,DRINK,SIP,ON,B,27,48,JOL,User,-,"How likely are you to correctly recall the second item in the pair?|Type your response on a scale from 0-100 and then press Enter.",Study/JOL,"Study Phase2",2409,,,1823,2138,,,,90,1
5b92bd88f2ac7e0001d8a45f,unapte21vm,Emily_Honors_Thesis_Part_2,1,245,2020-08-31T08:43:23-07:00,17.683098077774,10,versionA_stim.csv,RL_JOLVersionB.csv,"RELATIONAL Version B",OLD,ROOT,PLANT,ON,F,13,77,JOL,User,-,"How likely are you to correctly recall the second item in the pair?|Type your response on a scale from 0-100 and then press Enter.",Study/JOL,"Study Phase2",17206,,,8921,9044,,,,90,1
5b92bd88f2ac7e0001d8a45f,unapte21vm,Emily_Honors_Thesis_Part_2,1,246,2020-08-31T08:43:32-07:00,9.3566148281097,10,versionA_stim.csv,RL_JOLVersionB.csv,"RELATIONAL Version B",OLD,CIRCLE,ROUND,ON,S,65,65,JOL,User,-,"How likely are you to correctly recall the second item in the pair?|Type your response on a scale from 0-100 and then press Enter.",Study/JOL,"Study Phase2",8816,,,7246,8118,,,,100,1
5b92bd88f2ac7e0001d8a45f,unapte21vm,Emily_Honors_Thesis_Part_2,1,247,2020-08-31T08:43:36-07:00,3.4119760990143,10,versionA_stim.csv,RL_JOLVersionB.csv,"RELATIONAL Version B",OLD,HAPPY,CAR,ON,U,77,40,JOL,User,-,"How likely are you to correctly recall the second item in the pair?|Type your response on a scale from 0-100 and then press Enter.",Study/JOL,"Study Phase2",2920,,,2221,2625,,,,10,1
5b92bd88f2ac7e0001d8a45f,unapte21vm,Emily_Honors_Thesis_Part_2,1,248,2020-08-31T08:43:38-07:00,2.0062210559845,10,versionA_stim.csv,RL_JOLVersionB.csv,"RELATIONAL Version B",OLD,SHOE,FOOT,ON,S,60,50,JOL,User,-,"How likely are you to correctly recall the second item in the pair?|Type your response on a scale from 0-100 and then press Enter.",Study/JOL,"Study Phase2",1611,,,1400,1432,,,,90,1
5b92bd88f2ac7e0001d8a45f,unapte21vm,Emily_Honors_Thesis_Part_2,1,249,2020-08-31T08:43:41-07:00,3.444452047348,10,versionA_stim.csv,RL_JOLVersionB.csv,"RELATIONAL Version B",OLD,KIDNEY,LIVER,ON,S,53,13,JOL,User,-,"How likely are you to correctly recall the second item in the pair?|Type your response on a scale from 0-100 and then press Enter.",Study/JOL,"Study Phase2",2927,,,1822,1886,,,,90,1
5b92bd88f2ac7e0001d8a45f,unapte21vm,Emily_Honors_Thesis_Part_2,1,250,2020-08-31T08:43:50-07:00,9.1845510005951,10,versionA_stim.csv,RL_JOLVersionB.csv,"RELATIONAL Version B",OLD,DUMP,WASTE,ON,S,49,41,JOL,User,-,"How likely are you to correctly recall the second item in the pair?|Type your response on a scale from 0-100 and then press Enter.",Study/JOL,"Study Phase2",8668,,,4142,4197,,,,90,1
5b92bd88f2ac7e0001d8a45f,unapte21vm,Emily_Honors_Thesis_Part_2,1,251,2020-08-31T08:45:00-07:00,69.678937911987,10,versionA_stim.csv,RL_JOLVersionB.csv,"RELATIONAL Version B",OLD,GRILL,BAR,ON,S,52,35,JOL,User,-,"How likely are you to correctly recall the second item in the pair?|Type your response on a scale from 0-100 and then press Enter.",Study/JOL,"Study Phase2",69059,,,68259,68598,,,,50,1
5b92bd88f2ac7e0001d8a45f,unapte21vm,Emily_Honors_Thesis_Part_2,1,252,2020-08-31T08:45:05-07:00,4.6935179233551,10,versionA_stim.csv,RL_JOLVersionB.csv,"RELATIONAL Version B",OLD,HOT,CHILI,ON,B,37,55,JOL,User,-,"How likely are you to correctly recall the second item in the pair?|Type your response on a scale from 0-100 and then press Enter.",Study/JOL,"Study Phase2",4191,,,3450,3507,,,,90,1
5b92bd88f2ac7e0001d8a45f,unapte21vm,Emily_Honors_Thesis_Part_2,1,253,2020-08-31T08:45:20-07:00,15.31192612648,10,versionA_stim.csv,RL_JOLVersionB.csv,"RELATIONAL Version B",OLD,CASH,WOULD,ON,U,83,7,JOL,User,-,"How likely are you to correctly recall the second item in the pair?|Type your response on a scale from 0-100 and then press Enter.",Study/JOL,"Study Phase2",14729,,,13460,14053,,,,10,1
5b92bd88f2ac7e0001d8a45f,unapte21vm,Emily_Honors_Thesis_Part_2,1,254,2020-08-31T08:45:25-07:00,5.4143340587616,10,versionA_stim.csv,RL_JOLVersionB.csv,"RELATIONAL Version B",OLD,WINE,CHEESE,ON,S,57,14,JOL,User,-,"How likely are you to correctly recall the second item in the pair?|Type your response on a scale from 0-100 and then press Enter.",Study/JOL,"Study Phase2",4861,,,4635,4696,,,,90,1
5b92bd88f2ac7e0001d8a45f,unapte21vm,Emily_Honors_Thesis_Part_2,1,255,2020-08-31T08:45:39-07:00,13.709136962891,10,versionA_stim.csv,RL_JOLVersionB.csv,"RELATIONAL Version B",OLD,DUE,ASSIGNMENT,ON,S,46,21,JOL,User,-,"How likely are you to correctly recall the second item in the pair?|Type your response on a scale from 0-100 and then press Enter.",Study/JOL,"Study Phase2",13221,,,12856,12916,,,,90,1
5b92bd88f2ac7e0001d8a45f,unapte21vm,Emily_Honors_Thesis_Part_2,1,256,2020-08-31T08:45:41-07:00,2.1196458339691,10,versionA_stim.csv,RL_JOLVersionB.csv,"RELATIONAL Version B",OLD,PAW,DOG,ON,F,15,60,JOL,User,-,"How likely are you to correctly recall the second item in the pair?|Type your response on a scale from 0-100 and then press Enter.",Study/JOL,"Study Phase2",1675,,,1271,1378,,,,90,1
5b92bd88f2ac7e0001d8a45f,unapte21vm,Emily_Honors_Thesis_Part_2,1,257,2020-08-31T08:45:44-07:00,2.6819870471954,10,versionA_stim.csv,RL_JOLVersionB.csv,"RELATIONAL Version B",OLD,TUNA,FISH,ON,F,25,29,JOL,User,-,"How likely are you to correctly recall the second item in the pair?|Type your response on a scale from 0-100 and then press Enter.",Study/JOL,"Study Phase2",2185,,,913,976,,,,90,1
5b92bd88f2ac7e0001d8a45f,unapte21vm,Emily_Honors_Thesis_Part_2,1,258,2020-08-31T08:45:47-07:00,2.9995000362396,10,versionA_stim.csv,RL_JOLVersionB.csv,"RELATIONAL Version B",OLD,DISCOVER,FLOOR,ON,U,71,33,JOL,User,-,"How likely are you to correctly recall the second item in the pair?|Type your response on a scale from 0-100 and then press Enter.",Study/JOL,"Study Phase2",2495,,,2075,2075,,,,0,1
5b92bd88f2ac7e0001d8a45f,unapte21vm,Emily_Honors_Thesis_Part_2,1,259,2020-08-31T08:45:53-07:00,6.4208779335022,10,versionA_stim.csv,RL_JOLVersionB.csv,"RELATIONAL Version B",OLD,PARK,HUNGRY,ON,U,68,54,JOL,User,-,"How likely are you to correctly recall the second item in the pair?|Type your response on a scale from 0-100 and then press Enter.",Study/JOL,"Study Phase2",5916,,,5189,5578,,,,10,1
5b92bd88f2ac7e0001d8a45f,unapte21vm,Emily_Honors_Thesis_Part_2,1,260,2020-08-31T08:46:00-07:00,6.1130471229553,10,versionA_stim.csv,RL_JOLVersionB.csv,"RELATIONAL Version B",OLD,BATHROOM,TOILET,ON,S,58,53,JOL,User,-,"How likely are you to correctly recall the second item in the pair?|Type your response on a scale from 0-100 and then press Enter.",Study/JOL,"Study Phase2",5626,,,1659,5337,,,,100,1
5b92bd88f2ac7e0001d8a45f,unapte21vm,Emily_Honors_Thesis_Part_2,1,261,2020-08-31T08:46:12-07:00,12.470252037048,10,versionA_stim.csv,RL_JOLVersionB.csv,"RELATIONAL Version B",OLD,MACHINE,POSITION,ON,U,76,46,JOL,User,-,"How likely are you to correctly recall the second item in the pair?|Type your response on a scale from 0-100 and then press Enter.",Study/JOL,"Study Phase2",11982,,,11267,11615,,,,10,1
5b92bd88f2ac7e0001d8a45f,unapte21vm,Emily_Honors_Thesis_Part_2,1,262,2020-08-31T08:46:25-07:00,13.16392993927,10,versionA_stim.csv,RL_JOLVersionB.csv,"RELATIONAL Version B",OLD,KEY,LATCH,ON,B,36,26,JOL,User,-,"How likely are you to correctly recall the second item in the pair?|Type your response on a scale from 0-100 and then press Enter.",Study/JOL,"Study Phase2",12613,,,12168,12301,,,,80,1
5b92bd88f2ac7e0001d8a45f,unapte21vm,Emily_Honors_Thesis_Part_2,1,263,2020-08-31T08:46:31-07:00,5.6679348945618,10,versionA_stim.csv,RL_JOLVersionB.csv,"RELATIONAL Version B",OLD,DEATH,BUSINESS,ON,U,72,25,JOL,User,-,"How likely are you to correctly recall the second item in the pair?|Type your response on a scale from 0-100 and then press Enter.",Study/JOL,"Study Phase2",5131,,,3947,4429,,,,10,1
5b92bd88f2ac7e0001d8a45f,unapte21vm,Emily_Honors_Thesis_Part_2,1,264,2020-08-31T08:46:33-07:00,1.988667011261,10,versionA_stim.csv,RL_JOLVersionB.csv,"RELATIONAL Version B",OLD,DARK,CAVE,ON,B,28,56,JOL,User,-,"How likely are you to correctly recall the second item in the pair?|Type your response on a scale from 0-100 and then press Enter.",Study/JOL,"Study Phase2",1613,,,1334,1394,,,,90,1
5b92bd88f2ac7e0001d8a45f,unapte21vm,Emily_Honors_Thesis_Part_2,1,265,2020-08-31T08:46:35-07:00,2.6579320430756,10,versionA_stim.csv,RL_JOLVersionB.csv,"RELATIONAL Version B",OLD,POP,SODA,ON,S,56,86,JOL,User,-,"How likely are you to correctly recall the second item in the pair?|Type your response on a scale from 0-100 and then press Enter.",Study/JOL,"Study Phase2",2171,,,1253,1745,,,,100,1
5b92bd88f2ac7e0001d8a45f,unapte21vm,Emily_Honors_Thesis_Part_2,1,266,2020-08-31T08:46:46-07:00,10.316259145737,10,versionA_stim.csv,RL_JOLVersionB.csv,"RELATIONAL Version B",OLD,STRONG,ACCIDENT,ON,U,80,52,JOL,User,-,"How likely are you to correctly recall the second item in the pair?|Type your response on a scale from 0-100 and then press Enter.",Study/JOL,"Study Phase2",9774,,,8915,9179,,,,30,1
5b92bd88f2ac7e0001d8a45f,unapte21vm,Emily_Honors_Thesis_Part_2,1,267,2020-08-31T08:46:48-07:00,2.0991230010986,10,versionA_stim.csv,RL_JOLVersionB.csv,"RELATIONAL Version B",OLD,CLOTHES,ATTIRE,ON,B,43,75,JOL,User,-,"How likely are you to correctly recall the second item in the pair?|Type your response on a scale from 0-100 and then press Enter.",Study/JOL,"Study Phase2",1666,,,1350,1409,,,,80,1
5b92bd88f2ac7e0001d8a45f,unapte21vm,Emily_Honors_Thesis_Part_2,1,268,2020-08-31T08:46:50-07:00,2.3490719795227,10,versionA_stim.csv,RL_JOLVersionB.csv,"RELATIONAL Version B",OLD,DISCUSSION,TALK,ON,F,21,70,JOL,User,-,"How likely are you to correctly recall the second item in the pair?|Type your response on a scale from 0-100 and then press Enter.",Study/JOL,"Study Phase2",1833,,,1426,1512,,,,90,1
5b92bd88f2ac7e0001d8a45f,unapte21vm,Emily_Honors_Thesis_Part_2,1,269,2020-08-31T08:46:53-07:00,3.1996169090271,10,versionA_stim.csv,RL_JOLVersionB.csv,"RELATIONAL Version B",OLD,WORK,CHORE,ON,B,39,84,JOL,User,-,"How likely are you to correctly recall the second item in the pair?|Type your response on a scale from 0-100 and then press Enter.",Study/JOL,"Study Phase2",2724,,,2258,2329,,,,90,1
5b92bd88f2ac7e0001d8a45f,unapte21vm,Emily_Honors_Thesis_Part_2,1,270,2020-08-31T08:46:58-07:00,4.8675849437714,10,versionA_stim.csv,RL_JOLVersionB.csv,"RELATIONAL Version B",OLD,HUNGER,FAMINE,ON,B,40,32,JOL,User,-,"How likely are you to correctly recall the second item in the pair?|Type your response on a scale from 0-100 and then press Enter.",Study/JOL,"Study Phase2",4391,,,4048,4082,,,,90,1
5b92bd88f2ac7e0001d8a45f,unapte21vm,Emily_Honors_Thesis_Part_2,1,271,2020-08-31T08:47:04-07:00,5.337877035141,10,versionA_stim.csv,RL_JOLVersionB.csv,"RELATIONAL Version B",OLD,ART,LION,ON,U,79,57,JOL,User,-,"How likely are you to correctly recall the second item in the pair?|Type your response on a scale from 0-100 and then press Enter.",Study/JOL,"Study Phase2",4827,,,3985,4403,,,,10,1
5b92bd88f2ac7e0001d8a45f,unapte21vm,Emily_Honors_Thesis_Part_2,1,272,2020-08-31T08:47:06-07:00,2.6019480228424,10,versionA_stim.csv,RL_JOLVersionB.csv,"RELATIONAL Version B",OLD,HEIGHT,GROWTH,ON,B,30,59,JOL,User,-,"How likely are you to correctly recall the second item in the pair?|Type your response on a scale from 0-100 and then press Enter.",Study/JOL,"Study Phase2",2102,,,1816,1889,,,,80,1
5b92bd88f2ac7e0001d8a45f,unapte21vm,Emily_Honors_Thesis_Part_2,1,273,2020-08-31T08:47:10-07:00,3.6917939186096,10,versionA_stim.csv,RL_JOLVersionB.csv,"RELATIONAL Version B",OLD,BITTER,COLD,ON,F,12,78,JOL,User,-,"How likely are you to correctly recall the second item in the pair?|Type your response on a scale from 0-100 and then press Enter.",Study/JOL,"Study Phase2",3198,,,1514,2873,,,,80,1
5b92bd88f2ac7e0001d8a45f,unapte21vm,Emily_Honors_Thesis_Part_2,1,274,2020-08-31T08:47:15-07:00,4.7233731746674,10,versionA_stim.csv,RL_JOLVersionB.csv,"RELATIONAL Version B",OLD,ALLOW,TUCK,ON,U,78,82,JOL,User,-,"How likely are you to correctly recall the second item in the pair?|Type your response on a scale from 0-100 and then press Enter.",Study/JOL,"Study Phase2",4225,,,2807,3288,,,,10,1
5b92bd88f2ac7e0001d8a45f,unapte21vm,Emily_Honors_Thesis_Part_2,1,275,2020-08-31T08:47:19-07:00,4.125795841217,10,versionA_stim.csv,RL_JOLVersionB.csv,"RELATIONAL Version B",OLD,HORNET,STING,ON,F,11,34,JOL,User,-,"How likely are you to correctly recall the second item in the pair?|Type your response on a scale from 0-100 and then press Enter.",Study/JOL,"Study Phase2",3638,,,2575,3377,,,,100,1
5b92bd88f2ac7e0001d8a45f,unapte21vm,Emily_Honors_Thesis_Part_2,1,276,2020-08-31T08:47:23-07:00,3.7511160373688,10,versionA_stim.csv,RL_JOLVersionB.csv,"RELATIONAL Version B",OLD,NUMBER,AMOUNT,ON,S,47,11,JOL,User,-,"How likely are you to correctly recall the second item in the pair?|Type your response on a scale from 0-100 and then press Enter.",Study/JOL,"Study Phase2",3266,,,2089,2157,,,,90,1
