Username,ID,ExperimentName,Session,Trial,Date,TimeDif,"Condition Number","Stimuli File","Order File","Condition Description","Condition Notes",Stimuli*Cue,Stimuli*Answer,Stimuli*Shuffle,"Stimuli*Stimuli Notes",Stimuli*Value,Procedure*Item,"Procedure*Trial Type","Procedure*Max Time","Procedure*Min Time",Procedure*Text,"Procedure*Procedure Notes",Procedure*Shuffle,Response*RT,Response*Response,Response*Accuracy,Response*RTfirst,Response*RTlast,Response*strictAcc,Response*lenientAcc,Response*focus,Response*JOL,Response*Focus
5d89a4e3241e9c0019e2592c,tp7vmz2wu8,Emily_Honors_Thesis_Part_2,1,1,2020-08-31T07:11:15-07:00,17.247772932053,11,versionC_stim.csv,RL_JOLVersionC.csv,"RELATIONAL Version C",OLD,,,,,,0,Instruct,-,10,"In this section, you will be presented with a series of word pairs. As you study, you will be asked to rate your ability to remember the second item in the pair if you were only shown the first at test. You will make these ratings using a 0 to 100 Scale.",,Instruct13,17126,,,-1,-1,,,,,1
5d89a4e3241e9c0019e2592c,tp7vmz2wu8,Emily_Honors_Thesis_Part_2,1,2,2020-08-31T07:11:28-07:00,13.233779907227,11,versionC_stim.csv,RL_JOLVersionC.csv,"RELATIONAL Version C",OLD,,,,,,0,Instruct,-,10,"For example, if you are given the pair CAT - DOG, a rating of 0 indicates that you would not remember DOG at test, while a rating of 100 indicates full certainty that you would remember the word DOG at test.",,Instruct14,13073,,,-1,-1,,,,,1
5d89a4e3241e9c0019e2592c,tp7vmz2wu8,Emily_Honors_Thesis_Part_2,1,3,2020-08-31T07:11:42-07:00,13.41037106514,11,versionC_stim.csv,RL_JOLVersionC.csv,"RELATIONAL Version C",OLD,,,,,,0,Instruct,-,10,"When making these ratings, it is criticial that you use the full range of the scale. You will be disqualified for only giving ratings of 0 or 100! After making your rating, press Enter to advance to the next pair.",,Instruct15,13229,,,-1,-1,,,,,1
5d89a4e3241e9c0019e2592c,tp7vmz2wu8,Emily_Honors_Thesis_Part_2,1,4,2020-08-31T07:12:01-07:00,18.639459133148,11,versionC_stim.csv,RL_JOLVersionC.csv,"RELATIONAL Version C",OLD,,,,,,0,Instruct,-,15,"As you study and make your ratings, please think about how the two concepts are RELATED to each other. For example, if you see the pair TURTLE-CAT, think about how both are alive, they are both animals, and both can be kept as pets.",,Instruct19,18465,,,-1,-1,,,,,1
5d89a4e3241e9c0019e2592c,tp7vmz2wu8,Emily_Honors_Thesis_Part_2,1,5,2020-08-31T07:12:49-07:00,48.954092979431,11,versionC_stim.csv,RL_JOLVersionC.csv,"RELATIONAL Version C",OLD,,,,,,0,FreeRecall,-,10,"What you should think about as you study each item pair? Type your response in the box below.",,CHECK1,48750,"How the two items are related to one another. ",0,10782,45526,0,0,,,1
5d89a4e3241e9c0019e2592c,tp7vmz2wu8,Emily_Honors_Thesis_Part_2,1,6,2020-08-31T07:12:57-07:00,7.5710959434509,11,versionC_stim.csv,RL_JOLVersionC.csv,"RELATIONAL Version C",OLD,,,,,,0,Instruct,-,5,"You will now complete a practice session. Please study the following items and rate your ability to remember them. Remember to think about how the two items are similiar!",,Instruct17,7410,,,-1,-1,,,,,1
5d89a4e3241e9c0019e2592c,tp7vmz2wu8,Emily_Honors_Thesis_Part_2,1,7,2020-08-31T07:13:07-07:00,9.5567328929901,11,versionC_stim.csv,RL_JOLVersionC.csv,"RELATIONAL Version C",OLD,DEAF,MUTE,PRACTICE,PRACTICE,182,185,JOL,User,-,"How likely are you to correctly recall the second item in the pair?|Type your response on a scale from 0-100 and then press Enter.",Study/JOL,PRACTICE,9404,,,8793,9009,,,,75,1
5d89a4e3241e9c0019e2592c,tp7vmz2wu8,Emily_Honors_Thesis_Part_2,1,8,2020-08-31T07:13:12-07:00,5.1703541278839,11,versionC_stim.csv,RL_JOLVersionC.csv,"RELATIONAL Version C",OLD,HINGE,SWING,PRACTICE,PRACTICE,185,189,JOL,User,-,"How likely are you to correctly recall the second item in the pair?|Type your response on a scale from 0-100 and then press Enter.",Study/JOL,PRACTICE,4996,,,3188,3420,,,,25,1
5d89a4e3241e9c0019e2592c,tp7vmz2wu8,Emily_Honors_Thesis_Part_2,1,9,2020-08-31T07:13:18-07:00,6.4016609191895,11,versionC_stim.csv,RL_JOLVersionC.csv,"RELATIONAL Version C",OLD,CHOCOLATE,BAR,PRACTICE,PRACTICE,187,183,JOL,User,-,"How likely are you to correctly recall the second item in the pair?|Type your response on a scale from 0-100 and then press Enter.",Study/JOL,PRACTICE,6252,,,5795,5995,,,,85,1
5d89a4e3241e9c0019e2592c,tp7vmz2wu8,Emily_Honors_Thesis_Part_2,1,10,2020-08-31T07:13:23-07:00,5.0384719371796,11,versionC_stim.csv,RL_JOLVersionC.csv,"RELATIONAL Version C",OLD,BEHAVIOR,SOCIAL,PRACTICE,PRACTICE,189,191,JOL,User,-,"How likely are you to correctly recall the second item in the pair?|Type your response on a scale from 0-100 and then press Enter.",Study/JOL,PRACTICE,4877,,,3789,4044,,,,20,1
5d89a4e3241e9c0019e2592c,tp7vmz2wu8,Emily_Honors_Thesis_Part_2,1,11,2020-08-31T07:13:28-07:00,5.2417690753937,11,versionC_stim.csv,RL_JOLVersionC.csv,"RELATIONAL Version C",OLD,PADDLE,ROW,PRACTICE,PRACTICE,184,186,JOL,User,-,"How likely are you to correctly recall the second item in the pair?|Type your response on a scale from 0-100 and then press Enter.",Study/JOL,PRACTICE,5091,,,4419,4683,,,,75,1
5d89a4e3241e9c0019e2592c,tp7vmz2wu8,Emily_Honors_Thesis_Part_2,1,12,2020-08-31T07:13:36-07:00,7.6731469631195,11,versionC_stim.csv,RL_JOLVersionC.csv,"RELATIONAL Version C",OLD,DISBELIEVE,SKEPTIC,PRACTICE,PRACTICE,186,182,JOL,User,-,"How likely are you to correctly recall the second item in the pair?|Type your response on a scale from 0-100 and then press Enter.",Study/JOL,PRACTICE,7514,,,6954,7177,,,,25,1
5d89a4e3241e9c0019e2592c,tp7vmz2wu8,Emily_Honors_Thesis_Part_2,1,13,2020-08-31T07:13:39-07:00,2.766340970993,11,versionC_stim.csv,RL_JOLVersionC.csv,"RELATIONAL Version C",OLD,CHIME,MUSIC,PRACTICE,PRACTICE,188,187,JOL,User,-,"How likely are you to correctly recall the second item in the pair?|Type your response on a scale from 0-100 and then press Enter.",Study/JOL,PRACTICE,2610,,,2025,2353,,,,25,1
5d89a4e3241e9c0019e2592c,tp7vmz2wu8,Emily_Honors_Thesis_Part_2,1,14,2020-08-31T07:13:42-07:00,3.3820440769196,11,versionC_stim.csv,RL_JOLVersionC.csv,"RELATIONAL Version C",OLD,FASHION,MODEL,PRACTICE,PRACTICE,190,190,JOL,User,-,"How likely are you to correctly recall the second item in the pair?|Type your response on a scale from 0-100 and then press Enter.",Study/JOL,PRACTICE,3230,,,2774,3001,,,,50,1
5d89a4e3241e9c0019e2592c,tp7vmz2wu8,Emily_Honors_Thesis_Part_2,1,15,2020-08-31T07:13:45-07:00,3.0880229473114,11,versionC_stim.csv,RL_JOLVersionC.csv,"RELATIONAL Version C",OLD,HAM,BONE,PRACTICE,PRACTICE,183,188,JOL,User,-,"How likely are you to correctly recall the second item in the pair?|Type your response on a scale from 0-100 and then press Enter.",Study/JOL,PRACTICE,2940,,,2460,2693,,,,75,1
5d89a4e3241e9c0019e2592c,tp7vmz2wu8,Emily_Honors_Thesis_Part_2,1,16,2020-08-31T07:13:49-07:00,3.1530029773712,11,versionC_stim.csv,RL_JOLVersionC.csv,"RELATIONAL Version C",OLD,AARDVARK,ZOO,PRACTICE,PRACTICE,181,184,JOL,User,-,"How likely are you to correctly recall the second item in the pair?|Type your response on a scale from 0-100 and then press Enter.",Study/JOL,PRACTICE,3009,,,2040,2240,,,,25,1
5d89a4e3241e9c0019e2592c,tp7vmz2wu8,Emily_Honors_Thesis_Part_2,1,17,2020-08-31T07:13:51-07:00,2.0651500225067,11,versionC_stim.csv,RL_JOLVersionC.csv,"RELATIONAL Version C",OLD,,,,,,0,Instruct,User,-,"You have completed this section. Please press Enter to continue.",,Instruct18,1915,,,-1,-1,,,,,1
5d89a4e3241e9c0019e2592c,tp7vmz2wu8,Emily_Honors_Thesis_Part_2,1,18,2020-08-31T07:13:53-07:00,2.3992781639099,11,versionC_stim.csv,RL_JOLVersionC.csv,"RELATIONAL Version C",OLD,,,,,,0,Instruct,User,-,"You will now begin the study. Press Enter when you are ready to begin.",,Instruct16,2248,,,-1,-1,,,,,1
5d89a4e3241e9c0019e2592c,tp7vmz2wu8,Emily_Honors_Thesis_Part_2,1,19,2020-08-31T07:14:22-07:00,28.79497385025,11,versionC_stim.csv,RL_JOLVersionC.csv,"RELATIONAL Version C",OLD,HIDE,SCARE,Buffer,Buffer,4,4,JOL,User,-,"How likely are you to correctly recall the second item in the pair?|Type your response on a scale from 0-100 and then press Enter.",Study/JOL,BUFFER,4037,,,3421,3685,,,,25,1
5d89a4e3241e9c0019e2592c,tp7vmz2wu8,Emily_Honors_Thesis_Part_2,1,20,2020-08-31T07:14:25-07:00,3.5007350444794,11,versionC_stim.csv,RL_JOLVersionC.csv,"RELATIONAL Version C",OLD,GREEN,TREES,Buffer,Buffer,1,3,JOL,User,-,"How likely are you to correctly recall the second item in the pair?|Type your response on a scale from 0-100 and then press Enter.",Study/JOL,BUFFER,3349,,,2908,3116,,,,50,1
5d89a4e3241e9c0019e2592c,tp7vmz2wu8,Emily_Honors_Thesis_Part_2,1,21,2020-08-31T07:14:28-07:00,3.2157120704651,11,versionC_stim.csv,RL_JOLVersionC.csv,"RELATIONAL Version C",OLD,JAM,SPACE,Buffer,Buffer,5,5,JOL,User,-,"How likely are you to correctly recall the second item in the pair?|Type your response on a scale from 0-100 and then press Enter.",Study/JOL,BUFFER,3066,,,2642,2850,,,,75,1
5d89a4e3241e9c0019e2592c,tp7vmz2wu8,Emily_Honors_Thesis_Part_2,1,22,2020-08-31T07:14:31-07:00,2.4476599693298,11,versionC_stim.csv,RL_JOLVersionC.csv,"RELATIONAL Version C",OLD,CATCHER,BASEBALL,Buffer,Buffer,2,6,JOL,User,-,"How likely are you to correctly recall the second item in the pair?|Type your response on a scale from 0-100 and then press Enter.",Study/JOL,BUFFER,2294,,,1839,2086,,,,25,1
5d89a4e3241e9c0019e2592c,tp7vmz2wu8,Emily_Honors_Thesis_Part_2,1,23,2020-08-31T07:14:34-07:00,3.5485060214996,11,versionC_stim.csv,RL_JOLVersionC.csv,"RELATIONAL Version C",OLD,BUTTER,PEANUT,Buffer,Buffer,3,2,JOL,User,-,"How likely are you to correctly recall the second item in the pair?|Type your response on a scale from 0-100 and then press Enter.",Study/JOL,BUFFER,3379,,,2995,3195,,,,85,1
5d89a4e3241e9c0019e2592c,tp7vmz2wu8,Emily_Honors_Thesis_Part_2,1,24,2020-08-31T07:14:40-07:00,5.8940720558167,11,versionC_stim.csv,RL_JOLVersionC.csv,"RELATIONAL Version C",OLD,BRONZE,ARTERY,ON,U,74,31,JOL,User,-,"How likely are you to correctly recall the second item in the pair?|Type your response on a scale from 0-100 and then press Enter.",Study/JOL,"Study Phase",5737,,,4920,5128,,,,20,1
5d89a4e3241e9c0019e2592c,tp7vmz2wu8,Emily_Honors_Thesis_Part_2,1,25,2020-08-31T07:14:43-07:00,2.9820539951324,11,versionC_stim.csv,RL_JOLVersionC.csv,"RELATIONAL Version C",OLD,WASTE,DUMP,ON,S,49,33,JOL,User,-,"How likely are you to correctly recall the second item in the pair?|Type your response on a scale from 0-100 and then press Enter.",Study/JOL,"Study Phase",2818,,,2306,2546,,,,75,1
5d89a4e3241e9c0019e2592c,tp7vmz2wu8,Emily_Honors_Thesis_Part_2,1,26,2020-08-31T07:14:48-07:00,4.6960489749908,11,versionC_stim.csv,RL_JOLVersionC.csv,"RELATIONAL Version C",OLD,AMOUNT,NUMBER,ON,S,47,9,JOL,User,-,"How likely are you to correctly recall the second item in the pair?|Type your response on a scale from 0-100 and then press Enter.",Study/JOL,"Study Phase",4530,,,3681,4002,,,,25,1
5d89a4e3241e9c0019e2592c,tp7vmz2wu8,Emily_Honors_Thesis_Part_2,1,27,2020-08-31T07:14:52-07:00,4.0909698009491,11,versionC_stim.csv,RL_JOLVersionC.csv,"RELATIONAL Version C",OLD,SIGHT,DEBATE,ON,U,73,62,JOL,User,-,"How likely are you to correctly recall the second item in the pair?|Type your response on a scale from 0-100 and then press Enter.",Study/JOL,"Study Phase",3929,,,2921,3432,,,,15,1
5d89a4e3241e9c0019e2592c,tp7vmz2wu8,Emily_Honors_Thesis_Part_2,1,28,2020-08-31T07:14:55-07:00,2.5100600719452,11,versionC_stim.csv,RL_JOLVersionC.csv,"RELATIONAL Version C",OLD,DOG,PAW,ON,B,15,26,JOL,User,-,"How likely are you to correctly recall the second item in the pair?|Type your response on a scale from 0-100 and then press Enter.",Study/JOL,"Study Phase",2332,,,1868,2091,,,,75,1
5d89a4e3241e9c0019e2592c,tp7vmz2wu8,Emily_Honors_Thesis_Part_2,1,29,2020-08-31T07:14:59-07:00,4.2792761325836,11,versionC_stim.csv,RL_JOLVersionC.csv,"RELATIONAL Version C",OLD,COLD,BITTER,ON,B,12,65,JOL,User,-,"How likely are you to correctly recall the second item in the pair?|Type your response on a scale from 0-100 and then press Enter.",Study/JOL,"Study Phase",4116,,,3628,3867,,,,258,1
5d89a4e3241e9c0019e2592c,tp7vmz2wu8,Emily_Honors_Thesis_Part_2,1,30,2020-08-31T07:15:09-07:00,10.5633289814,11,versionC_stim.csv,RL_JOLVersionC.csv,"RELATIONAL Version C",OLD,CARD,CREDIT,ON,B,23,22,JOL,User,-,"How likely are you to correctly recall the second item in the pair?|Type your response on a scale from 0-100 and then press Enter.",Study/JOL,"Study Phase",10402,,,6241,10081,,,,50,1
5d89a4e3241e9c0019e2592c,tp7vmz2wu8,Emily_Honors_Thesis_Part_2,1,31,2020-08-31T07:15:12-07:00,2.6921789646149,11,versionC_stim.csv,RL_JOLVersionC.csv,"RELATIONAL Version C",OLD,CHORE,WORK,ON,F,39,13,JOL,User,-,"How likely are you to correctly recall the second item in the pair?|Type your response on a scale from 0-100 and then press Enter.",Study/JOL,"Study Phase",2533,,,1741,1956,,,,25,1
5d89a4e3241e9c0019e2592c,tp7vmz2wu8,Emily_Honors_Thesis_Part_2,1,32,2020-08-31T07:15:19-07:00,6.4805340766907,11,versionC_stim.csv,RL_JOLVersionC.csv,"RELATIONAL Version C",OLD,POSITION,MACHINE,ON,U,76,46,JOL,User,-,"How likely are you to correctly recall the second item in the pair?|Type your response on a scale from 0-100 and then press Enter.",Study/JOL,"Study Phase",6331,,,5890,6059,,,,15,1
5d89a4e3241e9c0019e2592c,tp7vmz2wu8,Emily_Honors_Thesis_Part_2,1,33,2020-08-31T07:15:23-07:00,4.119756937027,11,versionC_stim.csv,RL_JOLVersionC.csv,"RELATIONAL Version C",OLD,FUTURE,PAST,ON,S,61,85,JOL,User,-,"How likely are you to correctly recall the second item in the pair?|Type your response on a scale from 0-100 and then press Enter.",Study/JOL,"Study Phase",3959,,,3463,3710,,,,85,1
5d89a4e3241e9c0019e2592c,tp7vmz2wu8,Emily_Honors_Thesis_Part_2,1,34,2020-08-31T07:15:25-07:00,2.3428130149841,11,versionC_stim.csv,RL_JOLVersionC.csv,"RELATIONAL Version C",OLD,FOOT,SHOE,ON,S,60,60,JOL,User,-,"How likely are you to correctly recall the second item in the pair?|Type your response on a scale from 0-100 and then press Enter.",Study/JOL,"Study Phase",2191,,,1735,1975,,,,85,1
5d89a4e3241e9c0019e2592c,tp7vmz2wu8,Emily_Honors_Thesis_Part_2,1,35,2020-08-31T07:15:29-07:00,3.6994588375092,11,versionC_stim.csv,RL_JOLVersionC.csv,"RELATIONAL Version C",OLD,WORD,SENTENCE,ON,F,31,14,JOL,User,-,"How likely are you to correctly recall the second item in the pair?|Type your response on a scale from 0-100 and then press Enter.",Study/JOL,"Study Phase",3543,,,2959,3150,,,,50,1
5d89a4e3241e9c0019e2592c,tp7vmz2wu8,Emily_Honors_Thesis_Part_2,1,36,2020-08-31T07:15:33-07:00,4.4131290912628,11,versionC_stim.csv,RL_JOLVersionC.csv,"RELATIONAL Version C",OLD,LIVER,KIDNEY,ON,S,53,25,JOL,User,-,"How likely are you to correctly recall the second item in the pair?|Type your response on a scale from 0-100 and then press Enter.",Study/JOL,"Study Phase",4251,,,3842,4050,,,,25,1
5d89a4e3241e9c0019e2592c,tp7vmz2wu8,Emily_Honors_Thesis_Part_2,1,37,2020-08-31T07:15:41-07:00,7.4160420894623,11,versionC_stim.csv,RL_JOLVersionC.csv,"RELATIONAL Version C",OLD,STENCH,SMELL,ON,F,42,37,JOL,User,-,"How likely are you to correctly recall the second item in the pair?|Type your response on a scale from 0-100 and then press Enter.",Study/JOL,"Study Phase",7251,,,5587,6898,,,,25,1
5d89a4e3241e9c0019e2592c,tp7vmz2wu8,Emily_Honors_Thesis_Part_2,1,38,2020-08-31T07:15:51-07:00,9.9144759178162,11,versionC_stim.csv,RL_JOLVersionC.csv,"RELATIONAL Version C",OLD,BLAZE,FIRE,ON,F,45,32,JOL,User,-,"How likely are you to correctly recall the second item in the pair?|Type your response on a scale from 0-100 and then press Enter.",Study/JOL,"Study Phase",9754,,,9313,9529,,,,50,1
5d89a4e3241e9c0019e2592c,tp7vmz2wu8,Emily_Honors_Thesis_Part_2,1,39,2020-08-31T07:15:54-07:00,3.8391599655151,11,versionC_stim.csv,RL_JOLVersionC.csv,"RELATIONAL Version C",OLD,WATER,BRIDGE,ON,B,18,20,JOL,User,-,"How likely are you to correctly recall the second item in the pair?|Type your response on a scale from 0-100 and then press Enter.",Study/JOL,"Study Phase",3683,,,3131,3387,,,,75,1
5d89a4e3241e9c0019e2592c,tp7vmz2wu8,Emily_Honors_Thesis_Part_2,1,40,2020-08-31T07:15:59-07:00,5.0558390617371,11,versionC_stim.csv,RL_JOLVersionC.csv,"RELATIONAL Version C",OLD,CHILD,BABY,ON,S,64,17,JOL,User,-,"How likely are you to correctly recall the second item in the pair?|Type your response on a scale from 0-100 and then press Enter.",Study/JOL,"Study Phase",4896,,,4424,4632,,,,25,1
5d89a4e3241e9c0019e2592c,tp7vmz2wu8,Emily_Honors_Thesis_Part_2,1,41,2020-08-31T07:16:04-07:00,4.366189956665,11,versionC_stim.csv,RL_JOLVersionC.csv,"RELATIONAL Version C",OLD,SICK,HIDE,ON,U,84,48,JOL,User,-,"How likely are you to correctly recall the second item in the pair?|Type your response on a scale from 0-100 and then press Enter.",Study/JOL,"Study Phase",4202,,,3746,3978,,,,15,1
5d89a4e3241e9c0019e2592c,tp7vmz2wu8,Emily_Honors_Thesis_Part_2,1,42,2020-08-31T07:16:08-07:00,4.6117079257965,11,versionC_stim.csv,RL_JOLVersionC.csv,"RELATIONAL Version C",OLD,FLOWER,ORCHID,ON,B,24,79,JOL,User,-,"How likely are you to correctly recall the second item in the pair?|Type your response on a scale from 0-100 and then press Enter.",Study/JOL,"Study Phase",4454,,,3950,4198,,,,75,1
5d89a4e3241e9c0019e2592c,tp7vmz2wu8,Emily_Honors_Thesis_Part_2,1,43,2020-08-31T07:16:11-07:00,2.829962015152,11,versionC_stim.csv,RL_JOLVersionC.csv,"RELATIONAL Version C",OLD,PILOT,PLANE,ON,F,44,12,JOL,User,-,"How likely are you to correctly recall the second item in the pair?|Type your response on a scale from 0-100 and then press Enter.",Study/JOL,"Study Phase",2673,,,2289,2465,,,,50,1
5d89a4e3241e9c0019e2592c,tp7vmz2wu8,Emily_Honors_Thesis_Part_2,1,44,2020-08-31T07:16:14-07:00,2.8061380386353,11,versionC_stim.csv,RL_JOLVersionC.csv,"RELATIONAL Version C",OLD,ACCIDENT,STRONG,ON,U,80,28,JOL,User,-,"How likely are you to correctly recall the second item in the pair?|Type your response on a scale from 0-100 and then press Enter.",Study/JOL,"Study Phase",2654,,,2230,2430,,,,15,1
5d89a4e3241e9c0019e2592c,tp7vmz2wu8,Emily_Honors_Thesis_Part_2,1,45,2020-08-31T07:16:18-07:00,3.8091609477997,11,versionC_stim.csv,RL_JOLVersionC.csv,"RELATIONAL Version C",OLD,STOMACH,DIGESTION,ON,B,7,57,JOL,User,-,"How likely are you to correctly recall the second item in the pair?|Type your response on a scale from 0-100 and then press Enter.",Study/JOL,"Study Phase",3657,,,3249,3473,,,,25,1
5d89a4e3241e9c0019e2592c,tp7vmz2wu8,Emily_Honors_Thesis_Part_2,1,46,2020-08-31T07:16:21-07:00,3.2791349887848,11,versionC_stim.csv,RL_JOLVersionC.csv,"RELATIONAL Version C",OLD,ASSIGNMENT,DUE,ON,S,46,82,JOL,User,-,"How likely are you to correctly recall the second item in the pair?|Type your response on a scale from 0-100 and then press Enter.",Study/JOL,"Study Phase",3120,,,2736,2928,,,,25,1
5d89a4e3241e9c0019e2592c,tp7vmz2wu8,Emily_Honors_Thesis_Part_2,1,47,2020-08-31T07:16:25-07:00,4.2430729866028,11,versionC_stim.csv,RL_JOLVersionC.csv,"RELATIONAL Version C",OLD,WOULD,CASH,ON,U,83,54,JOL,User,-,"How likely are you to correctly recall the second item in the pair?|Type your response on a scale from 0-100 and then press Enter.",Study/JOL,"Study Phase",4086,,,3726,3894,,,,15,1
5d89a4e3241e9c0019e2592c,tp7vmz2wu8,Emily_Honors_Thesis_Part_2,1,48,2020-08-31T07:16:30-07:00,4.5990400314331,11,versionC_stim.csv,RL_JOLVersionC.csv,"RELATIONAL Version C",OLD,ENOUGH,FULL,ON,F,26,44,JOL,User,-,"How likely are you to correctly recall the second item in the pair?|Type your response on a scale from 0-100 and then press Enter.",Study/JOL,"Study Phase",3434,,,2962,3187,,,,20,1
5d89a4e3241e9c0019e2592c,tp7vmz2wu8,Emily_Honors_Thesis_Part_2,1,49,2020-08-31T07:16:34-07:00,4.1832749843597,11,versionC_stim.csv,RL_JOLVersionC.csv,"RELATIONAL Version C",OLD,ADD,VALLEY,ON,U,82,69,JOL,User,-,"How likely are you to correctly recall the second item in the pair?|Type your response on a scale from 0-100 and then press Enter.",Study/JOL,"Study Phase",4025,,,3089,3217,,,,10,1
5d89a4e3241e9c0019e2592c,tp7vmz2wu8,Emily_Honors_Thesis_Part_2,1,50,2020-08-31T07:16:38-07:00,3.7506580352783,11,versionC_stim.csv,RL_JOLVersionC.csv,"RELATIONAL Version C",OLD,FANTASTIC,GREAT,ON,F,35,55,JOL,User,-,"How likely are you to correctly recall the second item in the pair?|Type your response on a scale from 0-100 and then press Enter.",Study/JOL,"Study Phase",3594,,,3258,3427,,,,15,1
5d89a4e3241e9c0019e2592c,tp7vmz2wu8,Emily_Honors_Thesis_Part_2,1,51,2020-08-31T07:16:45-07:00,6.7856709957123,11,versionC_stim.csv,RL_JOLVersionC.csv,"RELATIONAL Version C",OLD,CHILI,HOT,ON,F,37,34,JOL,User,-,"How likely are you to correctly recall the second item in the pair?|Type your response on a scale from 0-100 and then press Enter.",Study/JOL,"Study Phase",5535,,,5119,5287,,,,20,1
5d89a4e3241e9c0019e2592c,tp7vmz2wu8,Emily_Honors_Thesis_Part_2,1,52,2020-08-31T07:16:47-07:00,2.503427028656,11,versionC_stim.csv,RL_JOLVersionC.csv,"RELATIONAL Version C",OLD,END,BEGIN,ON,S,54,83,JOL,User,-,"How likely are you to correctly recall the second item in the pair?|Type your response on a scale from 0-100 and then press Enter.",Study/JOL,"Study Phase",2331,,,1867,2083,,,,75,1
5d89a4e3241e9c0019e2592c,tp7vmz2wu8,Emily_Honors_Thesis_Part_2,1,53,2020-08-31T07:16:50-07:00,3.0455701351166,11,versionC_stim.csv,RL_JOLVersionC.csv,"RELATIONAL Version C",OLD,PLANT,ROOT,ON,B,13,52,JOL,User,-,"How likely are you to correctly recall the second item in the pair?|Type your response on a scale from 0-100 and then press Enter.",Study/JOL,"Study Phase",2756,,,2420,2571,,,,50,1
5d89a4e3241e9c0019e2592c,tp7vmz2wu8,Emily_Honors_Thesis_Part_2,1,54,2020-08-31T07:16:54-07:00,3.3305909633636,11,versionC_stim.csv,RL_JOLVersionC.csv,"RELATIONAL Version C",OLD,WAR,REVOLUTION,ON,B,20,67,JOL,User,-,"How likely are you to correctly recall the second item in the pair?|Type your response on a scale from 0-100 and then press Enter.",Study/JOL,"Study Phase",3173,,,2366,2508,,,,20,1
5d89a4e3241e9c0019e2592c,tp7vmz2wu8,Emily_Honors_Thesis_Part_2,1,55,2020-08-31T07:16:58-07:00,4.8880698680878,11,versionC_stim.csv,RL_JOLVersionC.csv,"RELATIONAL Version C",OLD,SALAD,LETTUCE,ON,S,59,18,JOL,User,-,"How likely are you to correctly recall the second item in the pair?|Type your response on a scale from 0-100 and then press Enter.",Study/JOL,"Study Phase",4733,,,4293,4485,,,,75,1
5d89a4e3241e9c0019e2592c,tp7vmz2wu8,Emily_Honors_Thesis_Part_2,1,56,2020-08-31T07:17:03-07:00,4.0709340572357,11,versionC_stim.csv,RL_JOLVersionC.csv,"RELATIONAL Version C",OLD,FAMINE,HUNGER,ON,F,40,10,JOL,User,-,"How likely are you to correctly recall the second item in the pair?|Type your response on a scale from 0-100 and then press Enter.",Study/JOL,"Study Phase",3917,,,3413,3589,,,,30,1
5d89a4e3241e9c0019e2592c,tp7vmz2wu8,Emily_Honors_Thesis_Part_2,1,57,2020-08-31T07:17:06-07:00,3.3389780521393,11,versionC_stim.csv,RL_JOLVersionC.csv,"RELATIONAL Version C",OLD,WIND,BLOW,ON,S,55,42,JOL,User,-,"How likely are you to correctly recall the second item in the pair?|Type your response on a scale from 0-100 and then press Enter.",Study/JOL,"Study Phase",3184,,,2783,2983,,,,30,1
5d89a4e3241e9c0019e2592c,tp7vmz2wu8,Emily_Honors_Thesis_Part_2,1,58,2020-08-31T07:17:13-07:00,6.6726870536804,11,versionC_stim.csv,RL_JOLVersionC.csv,"RELATIONAL Version C",OLD,,,,,,0,Instruct,-,3,"Remember to focus on how the two items are similiar while you study and make your ratings!",,CHECK2,6513,,,-1,-1,,,,,1
5d89a4e3241e9c0019e2592c,tp7vmz2wu8,Emily_Honors_Thesis_Part_2,1,59,2020-08-31T07:17:16-07:00,3.8848779201508,11,versionC_stim.csv,RL_JOLVersionC.csv,"RELATIONAL Version C",OLD,MONEY,WAGE,ON,B,8,74,JOL,User,-,"How likely are you to correctly recall the second item in the pair?|Type your response on a scale from 0-100 and then press Enter.",Study/JOL,"Study Phase",3715,,,3149,3323,,,,75,1
5d89a4e3241e9c0019e2592c,tp7vmz2wu8,Emily_Honors_Thesis_Part_2,1,60,2020-08-31T07:17:47-07:00,30.967679023743,11,versionC_stim.csv,RL_JOLVersionC.csv,"RELATIONAL Version C",OLD,DEFINITION,MEANING,ON,S,62,23,JOL,User,-,"How likely are you to correctly recall the second item in the pair?|Type your response on a scale from 0-100 and then press Enter.",Study/JOL,"Study Phase",10306,,,9898,10065,,,,50,1
5d89a4e3241e9c0019e2592c,tp7vmz2wu8,Emily_Honors_Thesis_Part_2,1,61,2020-08-31T07:17:52-07:00,4.5216190814972,11,versionC_stim.csv,RL_JOLVersionC.csv,"RELATIONAL Version C",OLD,VASE,KING,ON,U,85,50,JOL,User,-,"How likely are you to correctly recall the second item in the pair?|Type your response on a scale from 0-100 and then press Enter.",Study/JOL,"Study Phase",4350,,,4006,4157,,,,15,1
5d89a4e3241e9c0019e2592c,tp7vmz2wu8,Emily_Honors_Thesis_Part_2,1,62,2020-08-31T07:17:57-07:00,5.191957950592,11,versionC_stim.csv,RL_JOLVersionC.csv,"RELATIONAL Version C",OLD,SACKING,DIETARY,ON,U,67,73,JOL,User,-,"How likely are you to correctly recall the second item in the pair?|Type your response on a scale from 0-100 and then press Enter.",Study/JOL,"Study Phase",5028,,,2860,3187,,,,15,1
5d89a4e3241e9c0019e2592c,tp7vmz2wu8,Emily_Honors_Thesis_Part_2,1,63,2020-08-31T07:18:00-07:00,3.2953460216522,11,versionC_stim.csv,RL_JOLVersionC.csv,"RELATIONAL Version C",OLD,BEE,HONEY,ON,S,63,19,JOL,User,-,"How likely are you to correctly recall the second item in the pair?|Type your response on a scale from 0-100 and then press Enter.",Study/JOL,"Study Phase",3138,,,2682,2874,,,,75,1
5d89a4e3241e9c0019e2592c,tp7vmz2wu8,Emily_Honors_Thesis_Part_2,1,64,2020-08-31T07:18:05-07:00,4.3534569740295,11,versionC_stim.csv,RL_JOLVersionC.csv,"RELATIONAL Version C",OLD,LATCH,KEY,ON,F,36,53,JOL,User,-,"How likely are you to correctly recall the second item in the pair?|Type your response on a scale from 0-100 and then press Enter.",Study/JOL,"Study Phase",4197,,,2918,3140,,,,75,1
5d89a4e3241e9c0019e2592c,tp7vmz2wu8,Emily_Honors_Thesis_Part_2,1,65,2020-08-31T07:18:08-07:00,3.6217999458313,11,versionC_stim.csv,RL_JOLVersionC.csv,"RELATIONAL Version C",OLD,LION,ART,ON,U,79,7,JOL,User,-,"How likely are you to correctly recall the second item in the pair?|Type your response on a scale from 0-100 and then press Enter.",Study/JOL,"Study Phase",3467,,,3059,3218,,,,20,1
5d89a4e3241e9c0019e2592c,tp7vmz2wu8,Emily_Honors_Thesis_Part_2,1,66,2020-08-31T07:18:12-07:00,3.82728099823,11,versionC_stim.csv,RL_JOLVersionC.csv,"RELATIONAL Version C",OLD,DESIGN,ARCHITECTURE,ON,S,51,21,JOL,User,-,"How likely are you to correctly recall the second item in the pair?|Type your response on a scale from 0-100 and then press Enter.",Study/JOL,"Study Phase",3660,,,3084,3204,,,,30,1
5d89a4e3241e9c0019e2592c,tp7vmz2wu8,Emily_Honors_Thesis_Part_2,1,67,2020-08-31T07:18:17-07:00,4.9662230014801,11,versionC_stim.csv,RL_JOLVersionC.csv,"RELATIONAL Version C",OLD,NEWS,EDITOR,ON,B,10,78,JOL,User,-,"How likely are you to correctly recall the second item in the pair?|Type your response on a scale from 0-100 and then press Enter.",Study/JOL,"Study Phase",4788,,,4396,4596,,,,25,1
5d89a4e3241e9c0019e2592c,tp7vmz2wu8,Emily_Honors_Thesis_Part_2,1,68,2020-08-31T07:18:24-07:00,6.5992259979248,11,versionC_stim.csv,RL_JOLVersionC.csv,"RELATIONAL Version C",OLD,ROCK,GEOLOGY,ON,B,19,30,JOL,User,-,"How likely are you to correctly recall the second item in the pair?|Type your response on a scale from 0-100 and then press Enter.",Study/JOL,"Study Phase",6443,,,5899,6083,,,,50,1
5d89a4e3241e9c0019e2592c,tp7vmz2wu8,Emily_Honors_Thesis_Part_2,1,69,2020-08-31T07:18:28-07:00,3.9898118972778,11,versionC_stim.csv,RL_JOLVersionC.csv,"RELATIONAL Version C",OLD,STING,HORNET,ON,B,11,40,JOL,User,-,"How likely are you to correctly recall the second item in the pair?|Type your response on a scale from 0-100 and then press Enter.",Study/JOL,"Study Phase",3837,,,3437,3629,,,,25,1
5d89a4e3241e9c0019e2592c,tp7vmz2wu8,Emily_Honors_Thesis_Part_2,1,70,2020-08-31T07:18:32-07:00,3.7066130638123,11,versionC_stim.csv,RL_JOLVersionC.csv,"RELATIONAL Version C",OLD,DROWSY,SLEEP,ON,F,41,63,JOL,User,-,"How likely are you to correctly recall the second item in the pair?|Type your response on a scale from 0-100 and then press Enter.",Study/JOL,"Study Phase",3547,,,3083,3283,,,,50,1
5d89a4e3241e9c0019e2592c,tp7vmz2wu8,Emily_Honors_Thesis_Part_2,1,71,2020-08-31T07:18:36-07:00,4.1593999862671,11,versionC_stim.csv,RL_JOLVersionC.csv,"RELATIONAL Version C",OLD,BAD,DELINQUENT,ON,B,6,58,JOL,User,-,"How likely are you to correctly recall the second item in the pair?|Type your response on a scale from 0-100 and then press Enter.",Study/JOL,"Study Phase",4003,,,3643,3786,,,,20,1
5d89a4e3241e9c0019e2592c,tp7vmz2wu8,Emily_Honors_Thesis_Part_2,1,72,2020-08-31T07:18:44-07:00,8.4726469516754,11,versionC_stim.csv,RL_JOLVersionC.csv,"RELATIONAL Version C",OLD,WASP,BUG,ON,F,32,11,JOL,User,-,"How likely are you to correctly recall the second item in the pair?|Type your response on a scale from 0-100 and then press Enter.",Study/JOL,"Study Phase",8312,,,8025,8143,,,,20,1
5d89a4e3241e9c0019e2592c,tp7vmz2wu8,Emily_Honors_Thesis_Part_2,1,73,2020-08-31T07:18:56-07:00,11.80715918541,11,versionC_stim.csv,RL_JOLVersionC.csv,"RELATIONAL Version C",OLD,ROUND,CIRCLE,ON,S,65,47,JOL,User,-,"How likely are you to correctly recall the second item in the pair?|Type your response on a scale from 0-100 and then press Enter.",Study/JOL,"Study Phase",11646,,,11350,11478,,,,50,1
5d89a4e3241e9c0019e2592c,tp7vmz2wu8,Emily_Honors_Thesis_Part_2,1,74,2020-08-31T07:19:00-07:00,3.7293009757996,11,versionC_stim.csv,RL_JOLVersionC.csv,"RELATIONAL Version C",OLD,SIP,DRINK,ON,F,27,64,JOL,User,-,"How likely are you to correctly recall the second item in the pair?|Type your response on a scale from 0-100 and then press Enter.",Study/JOL,"Study Phase",3568,,,3080,3352,,,,25,1
5d89a4e3241e9c0019e2592c,tp7vmz2wu8,Emily_Honors_Thesis_Part_2,1,75,2020-08-31T07:19:04-07:00,4.4745168685913,11,versionC_stim.csv,RL_JOLVersionC.csv,"RELATIONAL Version C",OLD,CAVE,DARK,ON,F,28,86,JOL,User,-,"How likely are you to correctly recall the second item in the pair?|Type your response on a scale from 0-100 and then press Enter.",Study/JOL,"Study Phase",4312,,,3976,4088,,,,50,1
5d89a4e3241e9c0019e2592c,tp7vmz2wu8,Emily_Honors_Thesis_Part_2,1,76,2020-08-31T07:19:13-07:00,8.6782841682434,11,versionC_stim.csv,RL_JOLVersionC.csv,"RELATIONAL Version C",OLD,TUCK,ALLOW,ON,U,78,36,JOL,User,-,"How likely are you to correctly recall the second item in the pair?|Type your response on a scale from 0-100 and then press Enter.",Study/JOL,"Study Phase",8500,,,6244,8012,,,,20,1
5d89a4e3241e9c0019e2592c,tp7vmz2wu8,Emily_Honors_Thesis_Part_2,1,77,2020-08-31T07:19:16-07:00,3.0311908721924,11,versionC_stim.csv,RL_JOLVersionC.csv,"RELATIONAL Version C",OLD,FISH,TUNA,ON,B,25,56,JOL,User,-,"How likely are you to correctly recall the second item in the pair?|Type your response on a scale from 0-100 and then press Enter.",Study/JOL,"Study Phase",2873,,,2449,2601,,,,50,1
5d89a4e3241e9c0019e2592c,tp7vmz2wu8,Emily_Honors_Thesis_Part_2,1,78,2020-08-31T07:19:20-07:00,3.8310959339142,11,versionC_stim.csv,RL_JOLVersionC.csv,"RELATIONAL Version C",OLD,BELT,SOON,ON,U,70,38,JOL,User,-,"How likely are you to correctly recall the second item in the pair?|Type your response on a scale from 0-100 and then press Enter.",Study/JOL,"Study Phase",3668,,,3284,3419,,,,15,1
5d89a4e3241e9c0019e2592c,tp7vmz2wu8,Emily_Honors_Thesis_Part_2,1,79,2020-08-31T07:19:25-07:00,5.3765201568604,11,versionC_stim.csv,RL_JOLVersionC.csv,"RELATIONAL Version C",OLD,HAMMER,CHISEL,ON,B,9,35,JOL,User,-,"How likely are you to correctly recall the second item in the pair?|Type your response on a scale from 0-100 and then press Enter.",Study/JOL,"Study Phase",5218,,,4714,4874,,,,30,1
5d89a4e3241e9c0019e2592c,tp7vmz2wu8,Emily_Honors_Thesis_Part_2,1,80,2020-08-31T07:19:29-07:00,3.8347709178925,11,versionC_stim.csv,RL_JOLVersionC.csv,"RELATIONAL Version C",OLD,SEIZE,TAKE,ON,F,29,39,JOL,User,-,"How likely are you to correctly recall the second item in the pair?|Type your response on a scale from 0-100 and then press Enter.",Study/JOL,"Study Phase",3671,,,2807,3311,,,,45,1
5d89a4e3241e9c0019e2592c,tp7vmz2wu8,Emily_Honors_Thesis_Part_2,1,81,2020-08-31T07:19:32-07:00,2.9020669460297,11,versionC_stim.csv,RL_JOLVersionC.csv,"RELATIONAL Version C",OLD,CHEESE,WINE,ON,S,57,27,JOL,User,-,"How likely are you to correctly recall the second item in the pair?|Type your response on a scale from 0-100 and then press Enter.",Study/JOL,"Study Phase",2746,,,2042,2306,,,,50,1
5d89a4e3241e9c0019e2592c,tp7vmz2wu8,Emily_Honors_Thesis_Part_2,1,82,2020-08-31T07:19:35-07:00,3.2957880496979,11,versionC_stim.csv,RL_JOLVersionC.csv,"RELATIONAL Version C",OLD,JURY,TRIAL,ON,S,50,29,JOL,User,-,"How likely are you to correctly recall the second item in the pair?|Type your response on a scale from 0-100 and then press Enter.",Study/JOL,"Study Phase",3112,,,1488,1712,,,,50,1
5d89a4e3241e9c0019e2592c,tp7vmz2wu8,Emily_Honors_Thesis_Part_2,1,83,2020-08-31T07:20:02-07:00,27.325299024582,11,versionC_stim.csv,RL_JOLVersionC.csv,"RELATIONAL Version C",OLD,CLEAN,HYGIENE,ON,B,17,49,JOL,User,-,"How likely are you to correctly recall the second item in the pair?|Type your response on a scale from 0-100 and then press Enter.",Study/JOL,"Study Phase",7513,,,6568,6704,,,,50,1
5d89a4e3241e9c0019e2592c,tp7vmz2wu8,Emily_Honors_Thesis_Part_2,1,84,2020-08-31T07:20:07-07:00,4.6837890148163,11,versionC_stim.csv,RL_JOLVersionC.csv,"RELATIONAL Version C",OLD,WOMAN,LIFT,ON,U,69,15,JOL,User,-,"How likely are you to correctly recall the second item in the pair?|Type your response on a scale from 0-100 and then press Enter.",Study/JOL,"Study Phase",3520,,,2560,2672,,,,10,1
5d89a4e3241e9c0019e2592c,tp7vmz2wu8,Emily_Honors_Thesis_Part_2,1,85,2020-08-31T07:20:11-07:00,3.6001219749451,11,versionC_stim.csv,RL_JOLVersionC.csv,"RELATIONAL Version C",OLD,DIVISION,MATH,ON,F,33,80,JOL,User,-,"How likely are you to correctly recall the second item in the pair?|Type your response on a scale from 0-100 and then press Enter.",Study/JOL,"Study Phase",3408,,,3024,3233,,,,25,1
5d89a4e3241e9c0019e2592c,tp7vmz2wu8,Emily_Honors_Thesis_Part_2,1,86,2020-08-31T07:20:18-07:00,6.9253480434418,11,versionC_stim.csv,RL_JOLVersionC.csv,"RELATIONAL Version C",OLD,TOILET,BATHROOM,ON,S,58,24,JOL,User,-,"How likely are you to correctly recall the second item in the pair?|Type your response on a scale from 0-100 and then press Enter.",Study/JOL,"Study Phase",6754,,,6354,6506,,,,50,1
5d89a4e3241e9c0019e2592c,tp7vmz2wu8,Emily_Honors_Thesis_Part_2,1,87,2020-08-31T07:20:20-07:00,2.5116078853607,11,versionC_stim.csv,RL_JOLVersionC.csv,"RELATIONAL Version C",OLD,BAR,GRILL,ON,S,52,51,JOL,User,-,"How likely are you to correctly recall the second item in the pair?|Type your response on a scale from 0-100 and then press Enter.",Study/JOL,"Study Phase",2341,,,1885,2053,,,,75,1
5d89a4e3241e9c0019e2592c,tp7vmz2wu8,Emily_Honors_Thesis_Part_2,1,88,2020-08-31T07:20:24-07:00,4.1463911533356,11,versionC_stim.csv,RL_JOLVersionC.csv,"RELATIONAL Version C",OLD,ATTIRE,CLOTHES,ON,F,43,71,JOL,User,-,"How likely are you to correctly recall the second item in the pair?|Type your response on a scale from 0-100 and then press Enter.",Study/JOL,"Study Phase",2986,,,2369,2593,,,,25,1
5d89a4e3241e9c0019e2592c,tp7vmz2wu8,Emily_Honors_Thesis_Part_2,1,89,2020-08-31T07:20:28-07:00,3.9654948711395,11,versionC_stim.csv,RL_JOLVersionC.csv,"RELATIONAL Version C",OLD,TALK,DISCUSSION,ON,B,21,8,JOL,User,-,"How likely are you to correctly recall the second item in the pair?|Type your response on a scale from 0-100 and then press Enter.",Study/JOL,"Study Phase",3808,,,3384,3648,,,,25,1
5d89a4e3241e9c0019e2592c,tp7vmz2wu8,Emily_Honors_Thesis_Part_2,1,90,2020-08-31T07:20:33-07:00,4.4027011394501,11,versionC_stim.csv,RL_JOLVersionC.csv,"RELATIONAL Version C",OLD,HUNGRY,PARK,ON,U,68,61,JOL,User,-,"How likely are you to correctly recall the second item in the pair?|Type your response on a scale from 0-100 and then press Enter.",Study/JOL,"Study Phase",4246,,,3765,3885,,,,15,1
5d89a4e3241e9c0019e2592c,tp7vmz2wu8,Emily_Honors_Thesis_Part_2,1,91,2020-08-31T07:20:38-07:00,5.2332358360291,11,versionC_stim.csv,RL_JOLVersionC.csv,"RELATIONAL Version C",OLD,SITE,LOCATION,ON,S,48,16,JOL,User,-,"How likely are you to correctly recall the second item in the pair?|Type your response on a scale from 0-100 and then press Enter.",Study/JOL,"Study Phase",5076,,,4436,4660,,,,25,1
5d89a4e3241e9c0019e2592c,tp7vmz2wu8,Emily_Honors_Thesis_Part_2,1,92,2020-08-31T07:20:41-07:00,3.0365149974823,11,versionC_stim.csv,RL_JOLVersionC.csv,"RELATIONAL Version C",OLD,SODA,POP,ON,S,56,59,JOL,User,-,"How likely are you to correctly recall the second item in the pair?|Type your response on a scale from 0-100 and then press Enter.",Study/JOL,"Study Phase",2869,,,2381,2565,,,,75,1
5d89a4e3241e9c0019e2592c,tp7vmz2wu8,Emily_Honors_Thesis_Part_2,1,93,2020-08-31T07:20:44-07:00,2.7509820461273,11,versionC_stim.csv,RL_JOLVersionC.csv,"RELATIONAL Version C",OLD,RACKET,BALL,ON,F,38,81,JOL,User,-,"How likely are you to correctly recall the second item in the pair?|Type your response on a scale from 0-100 and then press Enter.",Study/JOL,"Study Phase",2597,,,2237,2397,,,,50,1
5d89a4e3241e9c0019e2592c,tp7vmz2wu8,Emily_Honors_Thesis_Part_2,1,94,2020-08-31T07:20:48-07:00,4.0422830581665,11,versionC_stim.csv,RL_JOLVersionC.csv,"RELATIONAL Version C",OLD,CLUTTER,PUSHER,ON,U,66,43,JOL,User,-,"How likely are you to correctly recall the second item in the pair?|Type your response on a scale from 0-100 and then press Enter.",Study/JOL,"Study Phase",3884,,,3173,3220,,,,15,1
5d89a4e3241e9c0019e2592c,tp7vmz2wu8,Emily_Honors_Thesis_Part_2,1,95,2020-08-31T07:20:52-07:00,4.4633538722992,11,versionC_stim.csv,RL_JOLVersionC.csv,"RELATIONAL Version C",OLD,HAND,FIX,ON,U,75,77,JOL,User,-,"How likely are you to correctly recall the second item in the pair?|Type your response on a scale from 0-100 and then press Enter.",Study/JOL,"Study Phase",4305,,,3864,4016,,,,20,1
5d89a4e3241e9c0019e2592c,tp7vmz2wu8,Emily_Honors_Thesis_Part_2,1,96,2020-08-31T07:20:56-07:00,3.3669881820679,11,versionC_stim.csv,RL_JOLVersionC.csv,"RELATIONAL Version C",OLD,GROWTH,HEIGHT,ON,F,30,45,JOL,User,-,"How likely are you to correctly recall the second item in the pair?|Type your response on a scale from 0-100 and then press Enter.",Study/JOL,"Study Phase",3208,,,2824,3056,,,,25,1
5d89a4e3241e9c0019e2592c,tp7vmz2wu8,Emily_Honors_Thesis_Part_2,1,97,2020-08-31T07:21:00-07:00,4.8013598918915,11,versionC_stim.csv,RL_JOLVersionC.csv,"RELATIONAL Version C",OLD,FLOOR,DISCOVER,ON,U,71,75,JOL,User,-,"How likely are you to correctly recall the second item in the pair?|Type your response on a scale from 0-100 and then press Enter.",Study/JOL,"Study Phase",3639,,,2569,2688,,,,20,1
5d89a4e3241e9c0019e2592c,tp7vmz2wu8,Emily_Honors_Thesis_Part_2,1,98,2020-08-31T07:21:04-07:00,4.1284139156342,11,versionC_stim.csv,RL_JOLVersionC.csv,"RELATIONAL Version C",OLD,BUSINESS,DEATH,ON,U,72,68,JOL,User,-,"How likely are you to correctly recall the second item in the pair?|Type your response on a scale from 0-100 and then press Enter.",Study/JOL,"Study Phase",3969,,,3593,3720,,,,20,1
5d89a4e3241e9c0019e2592c,tp7vmz2wu8,Emily_Honors_Thesis_Part_2,1,99,2020-08-31T07:21:07-07:00,2.6965341567993,11,versionC_stim.csv,RL_JOLVersionC.csv,"RELATIONAL Version C",OLD,ATTORNEY,LAW,ON,F,34,84,JOL,User,-,"How likely are you to correctly recall the second item in the pair?|Type your response on a scale from 0-100 and then press Enter.",Study/JOL,"Study Phase",2525,,,2142,2316,,,,50,1
5d89a4e3241e9c0019e2592c,tp7vmz2wu8,Emily_Honors_Thesis_Part_2,1,100,2020-08-31T07:21:11-07:00,3.3373558521271,11,versionC_stim.csv,RL_JOLVersionC.csv,"RELATIONAL Version C",OLD,RIDDLE,SUGAR,ON,U,81,72,JOL,User,-,"How likely are you to correctly recall the second item in the pair?|Type your response on a scale from 0-100 and then press Enter.",Study/JOL,"Study Phase",3175,,,2831,2894,,,,15,1
5d89a4e3241e9c0019e2592c,tp7vmz2wu8,Emily_Honors_Thesis_Part_2,1,101,2020-08-31T07:21:14-07:00,3.8689250946045,11,versionC_stim.csv,RL_JOLVersionC.csv,"RELATIONAL Version C",OLD,OUT,WAY,ON,B,16,66,JOL,User,-,"How likely are you to correctly recall the second item in the pair?|Type your response on a scale from 0-100 and then press Enter.",Study/JOL,"Study Phase",3709,,,3365,3516,,,,20,1
5d89a4e3241e9c0019e2592c,tp7vmz2wu8,Emily_Honors_Thesis_Part_2,1,102,2020-08-31T07:21:17-07:00,2.3913040161133,11,versionC_stim.csv,RL_JOLVersionC.csv,"RELATIONAL Version C",OLD,COW,HERD,ON,B,22,41,JOL,User,-,"How likely are you to correctly recall the second item in the pair?|Type your response on a scale from 0-100 and then press Enter.",Study/JOL,"Study Phase",2241,,,1706,1832,,,,20,1
5d89a4e3241e9c0019e2592c,tp7vmz2wu8,Emily_Honors_Thesis_Part_2,1,103,2020-08-31T07:21:19-07:00,2.3049509525299,11,versionC_stim.csv,RL_JOLVersionC.csv,"RELATIONAL Version C",OLD,BIRD,SWAN,ON,B,14,76,JOL,User,-,"How likely are you to correctly recall the second item in the pair?|Type your response on a scale from 0-100 and then press Enter.",Study/JOL,"Study Phase",2150,,,1685,1853,,,,50,1
5d89a4e3241e9c0019e2592c,tp7vmz2wu8,Emily_Honors_Thesis_Part_2,1,104,2020-08-31T07:21:22-07:00,3.2739810943604,11,versionC_stim.csv,RL_JOLVersionC.csv,"RELATIONAL Version C",OLD,CAR,HAPPY,ON,U,77,70,JOL,User,-,"How likely are you to correctly recall the second item in the pair?|Type your response on a scale from 0-100 and then press Enter.",Study/JOL,"Study Phase",3119,,,2831,2894,,,,15,1
5d89a4e3241e9c0019e2592c,tp7vmz2wu8,Emily_Honors_Thesis_Part_2,1,105,2020-08-31T07:21:28-07:00,6.0547540187836,11,versionC_stim.csv,RL_JOLVersionC.csv,"RELATIONAL Version C",OLD,CHOCOLATE,MALT,Buffer2,Buffer,88,90,JOL,User,-,"How likely are you to correctly recall the second item in the pair?|Type your response on a scale from 0-100 and then press Enter.",Study/JOL,BUFFER2,5892,,,4043,4164,,,,50,1
5d89a4e3241e9c0019e2592c,tp7vmz2wu8,Emily_Honors_Thesis_Part_2,1,106,2020-08-31T07:21:31-07:00,2.8232359886169,11,versionC_stim.csv,RL_JOLVersionC.csv,"RELATIONAL Version C",OLD,STUFF,THING,Buffer2,Buffer,90,91,JOL,User,-,"How likely are you to correctly recall the second item in the pair?|Type your response on a scale from 0-100 and then press Enter.",Study/JOL,BUFFER2,2658,,,2402,2449,,,,15,1
5d89a4e3241e9c0019e2592c,tp7vmz2wu8,Emily_Honors_Thesis_Part_2,1,107,2020-08-31T07:21:37-07:00,5.4665310382843,11,versionC_stim.csv,RL_JOLVersionC.csv,"RELATIONAL Version C",OLD,SPACE,MOON,Buffer2,Buffer,89,89,JOL,User,-,"How likely are you to correctly recall the second item in the pair?|Type your response on a scale from 0-100 and then press Enter.",Study/JOL,BUFFER2,5305,,,2746,5096,,,,50,1
5d89a4e3241e9c0019e2592c,tp7vmz2wu8,Emily_Honors_Thesis_Part_2,1,108,2020-08-31T07:21:40-07:00,3.0286138057709,11,versionC_stim.csv,RL_JOLVersionC.csv,"RELATIONAL Version C",OLD,GOOSE,GEESE,Buffer2,Buffer,86,87,JOL,User,-,"How likely are you to correctly recall the second item in the pair?|Type your response on a scale from 0-100 and then press Enter.",Study/JOL,BUFFER2,2875,,,2354,2586,,,,25,1
5d89a4e3241e9c0019e2592c,tp7vmz2wu8,Emily_Honors_Thesis_Part_2,1,109,2020-08-31T07:21:43-07:00,3.649845123291,11,versionC_stim.csv,RL_JOLVersionC.csv,"RELATIONAL Version C",OLD,POLICE,SHERIFF,Buffer2,Buffer,87,88,JOL,User,-,"How likely are you to correctly recall the second item in the pair?|Type your response on a scale from 0-100 and then press Enter.",Study/JOL,BUFFER2,3494,,,3118,3325,,,,25,1
5d89a4e3241e9c0019e2592c,tp7vmz2wu8,Emily_Honors_Thesis_Part_2,1,110,2020-08-31T07:21:45-07:00,1.9178738594055,11,versionC_stim.csv,RL_JOLVersionC.csv,"RELATIONAL Version C",OLD,,,,,,0,Instruct,User,-,"You have completed this section. Please press Enter.",Filler_Instruction,Instruct5,1763,,,-1,-1,,,,,1
5d89a4e3241e9c0019e2592c,tp7vmz2wu8,Emily_Honors_Thesis_Part_2,1,111,2020-08-31T07:22:07-07:00,21.643475055695,11,versionC_stim.csv,RL_JOLVersionC.csv,"RELATIONAL Version C",OLD,,,,,,0,FreeRecall,-,10,"What were you supposed to focus on while you studied each pair? (Hint: Think back to the instructions). Type your answer in the space below.",,CHECK3,21484,"The relationship between the two words presented. ",0,6091,19435,0,0,,,1
5d89a4e3241e9c0019e2592c,tp7vmz2wu8,Emily_Honors_Thesis_Part_2,1,112,2020-08-31T07:22:10-07:00,2.6376211643219,11,versionC_stim.csv,RL_JOLVersionC.csv,"RELATIONAL Version C",OLD,,,,,,0,Instruct,User,-,"You have completed this section. Please press Enter.",Filler_Instruction,Instruct2,2446,,,-1,-1,,,,,1
5d89a4e3241e9c0019e2592c,tp7vmz2wu8,Emily_Honors_Thesis_Part_2,1,113,2020-08-31T07:24:10-07:00,120.30404877663,11,versionC_stim.csv,RL_JOLVersionC.csv,"RELATIONAL Version C",OLD,,,,,,0,FreeRecall,120,120,"Please list the 50 US states in alphabetical order. The task will automatically advance to the next screen after two minutes.",,Filler1,120003,"Alabama, Alaska, Arizona, Arkansas, California, Colorado, Connecticut, Delaware, Florida, Georgia, Hawaii, Idaho, Illinois, Indiana, Iowa",0,36298,119866,0,0,,,1
5d89a4e3241e9c0019e2592c,tp7vmz2wu8,Emily_Honors_Thesis_Part_2,1,114,2020-08-31T07:24:21-07:00,11.289305210114,11,versionC_stim.csv,RL_JOLVersionC.csv,"RELATIONAL Version C",OLD,,,,,,0,Instruct,-,10,"You will now be presented with the first word from each of the previously studied item pairs. Please type the missing word. If you do not know the word, you may guess or press Enter to skip forward to the next pair.",,Instruct3,11114,,,-1,-1,,,,,1
5d89a4e3241e9c0019e2592c,tp7vmz2wu8,Emily_Honors_Thesis_Part_2,1,115,2020-08-31T07:24:26-07:00,4.6153638362885,11,versionC_stim.csv,RL_JOLVersionC.csv,"RELATIONAL Version C",OLD,WIND,BLOW,ON,S,55,42,Test,User,-,,Recall,Recall1,4445,Gust,0,3589,4094,0,0,,,1
5d89a4e3241e9c0019e2592c,tp7vmz2wu8,Emily_Honors_Thesis_Part_2,1,116,2020-08-31T07:24:29-07:00,3.3446500301361,11,versionC_stim.csv,RL_JOLVersionC.csv,"RELATIONAL Version C",OLD,PILOT,PLANE,ON,F,44,12,Test,User,-,,Recall,Recall1,3182,Plane,100,1974,2877,1,1,,,1
5d89a4e3241e9c0019e2592c,tp7vmz2wu8,Emily_Honors_Thesis_Part_2,1,117,2020-08-31T07:24:31-07:00,2.1640191078186,11,versionC_stim.csv,RL_JOLVersionC.csv,"RELATIONAL Version C",OLD,CAVE,DARK,ON,F,28,86,Test,User,-,,Recall,Recall1,2002,Dark,100,1176,1769,1,1,,,1
5d89a4e3241e9c0019e2592c,tp7vmz2wu8,Emily_Honors_Thesis_Part_2,1,118,2020-08-31T07:24:36-07:00,4.6121699810028,11,versionC_stim.csv,RL_JOLVersionC.csv,"RELATIONAL Version C",OLD,SIP,DRINK,ON,F,27,64,Test,User,-,,Recall,Recall1,4446,Drink,100,1469,4221,1,1,,,1
5d89a4e3241e9c0019e2592c,tp7vmz2wu8,Emily_Honors_Thesis_Part_2,1,119,2020-08-31T07:24:40-07:00,4.3362288475037,11,versionC_stim.csv,RL_JOLVersionC.csv,"RELATIONAL Version C",OLD,WAR,REVOLUTION,ON,B,20,67,Test,User,-,,Recall,Recall1,4160,Revolution,100,1287,3735,1,1,,,1
5d89a4e3241e9c0019e2592c,tp7vmz2wu8,Emily_Honors_Thesis_Part_2,1,120,2020-08-31T07:24:43-07:00,2.8273680210114,11,versionC_stim.csv,RL_JOLVersionC.csv,"RELATIONAL Version C",OLD,ATTIRE,CLOTHES,ON,F,43,71,Test,User,-,,Recall,Recall1,2666,Clothes,100,1034,2298,1,1,,,1
5d89a4e3241e9c0019e2592c,tp7vmz2wu8,Emily_Honors_Thesis_Part_2,1,121,2020-08-31T07:24:50-07:00,7.1077351570129,11,versionC_stim.csv,RL_JOLVersionC.csv,"RELATIONAL Version C",OLD,FLOOR,DISCOVER,ON,U,71,75,Test,User,-,,Recall,Recall1,6948,Discover,100,4956,6787,1,1,,,1
5d89a4e3241e9c0019e2592c,tp7vmz2wu8,Emily_Honors_Thesis_Part_2,1,122,2020-08-31T07:24:54-07:00,4.2526149749756,11,versionC_stim.csv,RL_JOLVersionC.csv,"RELATIONAL Version C",OLD,SACKING,DIETARY,ON,U,67,73,Test,User,-,,Recall,Recall1,4091,Trash,33.333333333333,3066,3842,0,0,,,1
5d89a4e3241e9c0019e2592c,tp7vmz2wu8,Emily_Honors_Thesis_Part_2,1,123,2020-08-31T07:25:13-07:00,18.164072990417,11,versionC_stim.csv,RL_JOLVersionC.csv,"RELATIONAL Version C",OLD,FANTASTIC,GREAT,ON,F,35,55,Test,User,-,,Recall,Recall1,18006,Good,22.222222222222,16198,17741,0,0,,,1
5d89a4e3241e9c0019e2592c,tp7vmz2wu8,Emily_Honors_Thesis_Part_2,1,124,2020-08-31T07:25:16-07:00,2.9043109416962,11,versionC_stim.csv,RL_JOLVersionC.csv,"RELATIONAL Version C",OLD,CHILD,BABY,ON,S,64,17,Test,User,-,,Recall,Recall1,2734,Baby,100,1902,2453,1,1,,,1
5d89a4e3241e9c0019e2592c,tp7vmz2wu8,Emily_Honors_Thesis_Part_2,1,125,2020-08-31T07:25:23-07:00,7.6657290458679,11,versionC_stim.csv,RL_JOLVersionC.csv,"RELATIONAL Version C",OLD,SICK,HIDE,ON,U,84,48,Test,User,-,,Recall,Recall1,7497,Ill,28.571428571429,6840,7264,0,0,,,1
5d89a4e3241e9c0019e2592c,tp7vmz2wu8,Emily_Honors_Thesis_Part_2,1,126,2020-08-31T07:25:29-07:00,6.0536620616913,11,versionC_stim.csv,RL_JOLVersionC.csv,"RELATIONAL Version C",OLD,BAD,DELINQUENT,ON,B,6,58,Test,User,-,,Recall,Recall1,5881,Guy,15.384615384615,5297,5681,0,0,,,1
5d89a4e3241e9c0019e2592c,tp7vmz2wu8,Emily_Honors_Thesis_Part_2,1,127,2020-08-31T07:25:36-07:00,6.6398878097534,11,versionC_stim.csv,RL_JOLVersionC.csv,"RELATIONAL Version C",OLD,DROWSY,SLEEP,ON,F,41,63,Test,User,-,,Recall,Recall1,6475,Tired,20,1060,6011,0,0,,,1
5d89a4e3241e9c0019e2592c,tp7vmz2wu8,Emily_Honors_Thesis_Part_2,1,128,2020-08-31T07:25:55-07:00,19.085386037827,11,versionC_stim.csv,RL_JOLVersionC.csv,"RELATIONAL Version C",OLD,DESIGN,ARCHITECTURE,ON,S,51,21,Test,User,-,,Recall,Recall1,18891,"Architecture ",100,2164,13803,1,1,,,1
5d89a4e3241e9c0019e2592c,tp7vmz2wu8,Emily_Honors_Thesis_Part_2,1,129,2020-08-31T07:25:59-07:00,3.972207069397,11,versionC_stim.csv,RL_JOLVersionC.csv,"RELATIONAL Version C",OLD,HAND,FIX,ON,U,75,77,Test,User,-,,Recall,Recall1,3758,Foot,28.571428571429,3094,3566,0,0,,,1
5d89a4e3241e9c0019e2592c,tp7vmz2wu8,Emily_Honors_Thesis_Part_2,1,130,2020-08-31T07:26:01-07:00,2.3683331012726,11,versionC_stim.csv,RL_JOLVersionC.csv,"RELATIONAL Version C",OLD,STING,HORNET,ON,B,11,40,Test,User,-,,Recall,Recall1,2208,Wasp,0,1336,1912,0,0,,,1
5d89a4e3241e9c0019e2592c,tp7vmz2wu8,Emily_Honors_Thesis_Part_2,1,131,2020-08-31T07:26:04-07:00,2.4140188694,11,versionC_stim.csv,RL_JOLVersionC.csv,"RELATIONAL Version C",OLD,ROUND,CIRCLE,ON,S,65,47,Test,User,-,,Recall,Recall1,2259,"Circle ",100,1099,2124,1,1,,,1
5d89a4e3241e9c0019e2592c,tp7vmz2wu8,Emily_Honors_Thesis_Part_2,1,132,2020-08-31T07:26:07-07:00,3.1206259727478,11,versionC_stim.csv,RL_JOLVersionC.csv,"RELATIONAL Version C",OLD,STENCH,SMELL,ON,F,42,37,Test,User,-,,Recall,Recall1,2957,Stink,20,1565,2773,0,0,,,1
5d89a4e3241e9c0019e2592c,tp7vmz2wu8,Emily_Honors_Thesis_Part_2,1,133,2020-08-31T07:26:16-07:00,9.033126115799,11,versionC_stim.csv,RL_JOLVersionC.csv,"RELATIONAL Version C",OLD,TUCK,ALLOW,ON,U,78,36,Test,User,-,,Recall,Recall1,7874,Sheet,0,5002,7674,0,0,,,1
5d89a4e3241e9c0019e2592c,tp7vmz2wu8,Emily_Honors_Thesis_Part_2,1,134,2020-08-31T07:26:22-07:00,5.7983009815216,11,versionC_stim.csv,RL_JOLVersionC.csv,"RELATIONAL Version C",OLD,STOMACH,DIGESTION,ON,B,7,57,Test,User,-,,Recall,Recall1,5635,Digestion,100,3499,5347,1,1,,,1
5d89a4e3241e9c0019e2592c,tp7vmz2wu8,Emily_Honors_Thesis_Part_2,1,135,2020-08-31T07:26:24-07:00,2.1272840499878,11,versionC_stim.csv,RL_JOLVersionC.csv,"RELATIONAL Version C",OLD,LATCH,KEY,ON,F,36,53,Test,User,-,,Recall,Recall1,1932,Key,100,1372,1700,1,1,,,1
5d89a4e3241e9c0019e2592c,tp7vmz2wu8,Emily_Honors_Thesis_Part_2,1,136,2020-08-31T07:26:27-07:00,3.3955318927765,11,versionC_stim.csv,RL_JOLVersionC.csv,"RELATIONAL Version C",OLD,SITE,LOCATION,ON,S,48,16,Test,User,-,,Recall,Recall1,3185,Location,100,2033,2945,1,1,,,1
5d89a4e3241e9c0019e2592c,tp7vmz2wu8,Emily_Honors_Thesis_Part_2,1,137,2020-08-31T07:26:29-07:00,2.1280500888824,11,versionC_stim.csv,RL_JOLVersionC.csv,"RELATIONAL Version C",OLD,COW,HERD,ON,B,22,41,Test,User,-,,Recall,Recall1,1941,Herd,100,1269,1741,1,1,,,1
5d89a4e3241e9c0019e2592c,tp7vmz2wu8,Emily_Honors_Thesis_Part_2,1,138,2020-08-31T07:26:35-07:00,5.7063589096069,11,versionC_stim.csv,RL_JOLVersionC.csv,"RELATIONAL Version C",OLD,TOILET,BATHROOM,ON,S,58,24,Test,User,-,,Recall,Recall1,5506,Bathroom,100,2410,5346,1,1,,,1
5d89a4e3241e9c0019e2592c,tp7vmz2wu8,Emily_Honors_Thesis_Part_2,1,139,2020-08-31T07:26:37-07:00,2.1268820762634,11,versionC_stim.csv,RL_JOLVersionC.csv,"RELATIONAL Version C",OLD,FUTURE,PAST,ON,S,61,85,Test,User,-,,Recall,Recall1,1955,Past,100,1268,1763,1,1,,,1
5d89a4e3241e9c0019e2592c,tp7vmz2wu8,Emily_Honors_Thesis_Part_2,1,140,2020-08-31T07:26:46-07:00,8.3677859306335,11,versionC_stim.csv,RL_JOLVersionC.csv,"RELATIONAL Version C",OLD,PLANT,ROOT,ON,B,13,52,Test,User,-,,Recall,Recall1,8166,Grow,50,5574,7758,0,0,,,1
5d89a4e3241e9c0019e2592c,tp7vmz2wu8,Emily_Honors_Thesis_Part_2,1,141,2020-08-31T07:26:49-07:00,3.1959919929504,11,versionC_stim.csv,RL_JOLVersionC.csv,"RELATIONAL Version C",OLD,ATTORNEY,LAW,ON,F,34,84,Test,User,-,,Recall,Recall1,3029,Law,100,2205,2629,1,1,,,1
5d89a4e3241e9c0019e2592c,tp7vmz2wu8,Emily_Honors_Thesis_Part_2,1,142,2020-08-31T07:26:54-07:00,5.4164569377899,11,versionC_stim.csv,RL_JOLVersionC.csv,"RELATIONAL Version C",OLD,CLUTTER,PUSHER,ON,U,66,43,Test,User,-,,Recall,Recall1,5249,Trash,36.363636363636,4185,4833,0,0,,,1
5d89a4e3241e9c0019e2592c,tp7vmz2wu8,Emily_Honors_Thesis_Part_2,1,143,2020-08-31T07:27:03-07:00,9.2497630119324,11,versionC_stim.csv,RL_JOLVersionC.csv,"RELATIONAL Version C",OLD,END,BEGIN,ON,S,54,83,Test,User,-,,Recall,Recall1,9082,Finish,36.363636363636,6130,8794,0,0,,,1
5d89a4e3241e9c0019e2592c,tp7vmz2wu8,Emily_Honors_Thesis_Part_2,1,144,2020-08-31T07:27:10-07:00,6.855299949646,11,versionC_stim.csv,RL_JOLVersionC.csv,"RELATIONAL Version C",OLD,WASTE,DUMP,ON,S,49,33,Test,User,-,,Recall,Recall1,6680,Away,0,5272,5984,0,0,,,1
5d89a4e3241e9c0019e2592c,tp7vmz2wu8,Emily_Honors_Thesis_Part_2,1,145,2020-08-31T07:27:14-07:00,3.5276911258698,11,versionC_stim.csv,RL_JOLVersionC.csv,"RELATIONAL Version C",OLD,JURY,TRIAL,ON,S,50,29,Test,User,-,,Recall,Recall1,3360,Trial,100,1688,2696,1,1,,,1
5d89a4e3241e9c0019e2592c,tp7vmz2wu8,Emily_Honors_Thesis_Part_2,1,146,2020-08-31T07:27:16-07:00,2.4641160964966,11,versionC_stim.csv,RL_JOLVersionC.csv,"RELATIONAL Version C",OLD,ENOUGH,FULL,ON,F,26,44,Test,User,-,,Recall,Recall1,2302,Full,100,1414,2126,1,1,,,1
5d89a4e3241e9c0019e2592c,tp7vmz2wu8,Emily_Honors_Thesis_Part_2,1,147,2020-08-31T07:27:19-07:00,2.9462490081787,11,versionC_stim.csv,RL_JOLVersionC.csv,"RELATIONAL Version C",OLD,DOG,PAW,ON,B,15,26,Test,User,-,,Recall,Recall1,2713,Paw,100,2073,2497,1,1,,,1
5d89a4e3241e9c0019e2592c,tp7vmz2wu8,Emily_Honors_Thesis_Part_2,1,148,2020-08-31T07:27:23-07:00,3.694403886795,11,versionC_stim.csv,RL_JOLVersionC.csv,"RELATIONAL Version C",OLD,WOULD,CASH,ON,U,83,54,Test,User,-,,Recall,Recall1,3536,Could,22.222222222222,2695,3175,0,0,,,1
5d89a4e3241e9c0019e2592c,tp7vmz2wu8,Emily_Honors_Thesis_Part_2,1,149,2020-08-31T07:27:26-07:00,3.5851130485535,11,versionC_stim.csv,RL_JOLVersionC.csv,"RELATIONAL Version C",OLD,WATER,BRIDGE,ON,B,18,20,Test,User,-,,Recall,Recall1,3421,Life,40,2622,3132,0,0,,,1
5d89a4e3241e9c0019e2592c,tp7vmz2wu8,Emily_Honors_Thesis_Part_2,1,150,2020-08-31T07:27:29-07:00,2.7255580425262,11,versionC_stim.csv,RL_JOLVersionC.csv,"RELATIONAL Version C",OLD,LIVER,KIDNEY,ON,S,53,25,Test,User,-,,Recall,Recall1,2555,Kidney,100,1003,2243,1,1,,,1
5d89a4e3241e9c0019e2592c,tp7vmz2wu8,Emily_Honors_Thesis_Part_2,1,151,2020-08-31T07:27:36-07:00,7.033243894577,11,versionC_stim.csv,RL_JOLVersionC.csv,"RELATIONAL Version C",OLD,BIRD,SWAN,ON,B,14,76,Test,User,-,,Recall,Recall1,6875,Fly,0,4268,6538,0,0,,,1
5d89a4e3241e9c0019e2592c,tp7vmz2wu8,Emily_Honors_Thesis_Part_2,1,152,2020-08-31T07:27:42-07:00,6.1850790977478,11,versionC_stim.csv,RL_JOLVersionC.csv,"RELATIONAL Version C",OLD,DIVISION,MATH,ON,F,33,80,Test,User,-,,Recall,Recall1,6016,Multiplication,33.333333333333,1384,4231,0,0,,,1
5d89a4e3241e9c0019e2592c,tp7vmz2wu8,Emily_Honors_Thesis_Part_2,1,153,2020-08-31T07:27:47-07:00,4.6699848175049,11,versionC_stim.csv,RL_JOLVersionC.csv,"RELATIONAL Version C",OLD,TALK,DISCUSSION,ON,B,21,8,Test,User,-,,Recall,Recall1,3461,Speak,13.333333333333,1804,3228,0,0,,,1
5d89a4e3241e9c0019e2592c,tp7vmz2wu8,Emily_Honors_Thesis_Part_2,1,154,2020-08-31T07:27:59-07:00,11.641710996628,11,versionC_stim.csv,RL_JOLVersionC.csv,"RELATIONAL Version C",OLD,ACCIDENT,STRONG,ON,U,80,28,Test,User,-,,Recall,Recall1,11467,Law,0,10139,11122,0,0,,,1
5d89a4e3241e9c0019e2592c,tp7vmz2wu8,Emily_Honors_Thesis_Part_2,1,155,2020-08-31T07:28:02-07:00,3.4538781642914,11,versionC_stim.csv,RL_JOLVersionC.csv,"RELATIONAL Version C",OLD,WORD,SENTENCE,ON,F,31,14,Test,User,-,,Recall,Recall1,3276,Sentence,100,1868,2947,1,1,,,1
5d89a4e3241e9c0019e2592c,tp7vmz2wu8,Emily_Honors_Thesis_Part_2,1,156,2020-08-31T07:28:14-07:00,12.041411876678,11,versionC_stim.csv,RL_JOLVersionC.csv,"RELATIONAL Version C",OLD,NEWS,EDITOR,ON,B,10,78,Test,User,-,,Recall,Recall1,11882,Television,25,9249,11025,0,0,,,1
5d89a4e3241e9c0019e2592c,tp7vmz2wu8,Emily_Honors_Thesis_Part_2,1,157,2020-08-31T07:28:18-07:00,3.9209201335907,11,versionC_stim.csv,RL_JOLVersionC.csv,"RELATIONAL Version C",OLD,SALAD,LETTUCE,ON,S,59,18,Test,User,-,,Recall,Recall1,3758,Lettuce,100,1558,3365,1,1,,,1
5d89a4e3241e9c0019e2592c,tp7vmz2wu8,Emily_Honors_Thesis_Part_2,1,158,2020-08-31T07:28:31-07:00,12.662770032883,11,versionC_stim.csv,RL_JOLVersionC.csv,"RELATIONAL Version C",OLD,LION,ART,ON,U,79,7,Test,User,-,,Recall,Recall1,12500,King,0,10539,11859,0,0,,,1
5d89a4e3241e9c0019e2592c,tp7vmz2wu8,Emily_Honors_Thesis_Part_2,1,159,2020-08-31T07:28:34-07:00,2.7992329597473,11,versionC_stim.csv,RL_JOLVersionC.csv,"RELATIONAL Version C",OLD,GROWTH,HEIGHT,ON,F,30,45,Test,User,-,,Recall,Recall1,2635,Height,100,1603,2411,1,1,,,1
5d89a4e3241e9c0019e2592c,tp7vmz2wu8,Emily_Honors_Thesis_Part_2,1,160,2020-08-31T07:28:41-07:00,7.3388140201569,11,versionC_stim.csv,RL_JOLVersionC.csv,"RELATIONAL Version C",OLD,HUNGRY,PARK,ON,U,68,61,Test,User,-,,Recall,Recall1,7164,Full,0,6268,6971,0,0,,,1
5d89a4e3241e9c0019e2592c,tp7vmz2wu8,Emily_Honors_Thesis_Part_2,1,161,2020-08-31T07:28:43-07:00,2.0296039581299,11,versionC_stim.csv,RL_JOLVersionC.csv,"RELATIONAL Version C",OLD,RACKET,BALL,ON,F,38,81,Test,User,-,,Recall,Recall1,1844,Ball,100,1147,1611,1,1,,,1
5d89a4e3241e9c0019e2592c,tp7vmz2wu8,Emily_Honors_Thesis_Part_2,1,162,2020-08-31T07:28:51-07:00,7.7118439674377,11,versionC_stim.csv,RL_JOLVersionC.csv,"RELATIONAL Version C",OLD,CARD,CREDIT,ON,B,23,22,Test,User,-,,Recall,Recall1,7552,"Greeting ",42.857142857143,5151,6951,0,0,,,1
5d89a4e3241e9c0019e2592c,tp7vmz2wu8,Emily_Honors_Thesis_Part_2,1,163,2020-08-31T07:28:53-07:00,2.1512799263,11,versionC_stim.csv,RL_JOLVersionC.csv,"RELATIONAL Version C",OLD,SODA,POP,ON,S,56,59,Test,User,-,,Recall,Recall1,1986,Pop,100,1449,1769,1,1,,,1
5d89a4e3241e9c0019e2592c,tp7vmz2wu8,Emily_Honors_Thesis_Part_2,1,164,2020-08-31T07:28:55-07:00,1.8743960857391,11,versionC_stim.csv,RL_JOLVersionC.csv,"RELATIONAL Version C",OLD,SEIZE,TAKE,ON,F,29,39,Test,User,-,,Recall,Recall1,1711,Take,100,1126,1534,1,1,,,1
5d89a4e3241e9c0019e2592c,tp7vmz2wu8,Emily_Honors_Thesis_Part_2,1,165,2020-08-31T07:29:03-07:00,8.6217038631439,11,versionC_stim.csv,RL_JOLVersionC.csv,"RELATIONAL Version C",OLD,BELT,SOON,ON,U,70,38,Test,User,-,,Recall,Recall1,8449,Song,75,7640,8056,0,1,,,1
5d89a4e3241e9c0019e2592c,tp7vmz2wu8,Emily_Honors_Thesis_Part_2,1,166,2020-08-31T07:29:08-07:00,4.2885642051697,11,versionC_stim.csv,RL_JOLVersionC.csv,"RELATIONAL Version C",OLD,MONEY,WAGE,ON,B,8,74,Test,User,-,,Recall,Recall1,4119,Bank,25,3374,3894,0,0,,,1
5d89a4e3241e9c0019e2592c,tp7vmz2wu8,Emily_Honors_Thesis_Part_2,1,167,2020-08-31T07:29:16-07:00,7.9900648593903,11,versionC_stim.csv,RL_JOLVersionC.csv,"RELATIONAL Version C",OLD,CHEESE,WINE,ON,S,57,27,Test,User,-,,Recall,Recall1,7815,Melt,25,6534,7407,0,0,,,1
5d89a4e3241e9c0019e2592c,tp7vmz2wu8,Emily_Honors_Thesis_Part_2,1,168,2020-08-31T07:30:07-07:00,51.909482002258,11,versionC_stim.csv,RL_JOLVersionC.csv,"RELATIONAL Version C",OLD,COLD,BITTER,ON,B,12,65,Test,User,-,,Recall,Recall1,12089,Shiver,50,10801,11801,0,0,,,1
5d89a4e3241e9c0019e2592c,tp7vmz2wu8,Emily_Honors_Thesis_Part_2,1,169,2020-08-31T07:30:11-07:00,3.0293021202087,11,versionC_stim.csv,RL_JOLVersionC.csv,"RELATIONAL Version C",OLD,AMOUNT,NUMBER,ON,S,47,9,Test,User,-,,Recall,Recall1,2861,Total,0,2101,2653,0,0,,,1
5d89a4e3241e9c0019e2592c,tp7vmz2wu8,Emily_Honors_Thesis_Part_2,1,170,2020-08-31T07:30:14-07:00,3.1753218173981,11,versionC_stim.csv,RL_JOLVersionC.csv,"RELATIONAL Version C",OLD,DEFINITION,MEANING,ON,S,62,23,Test,User,-,,Recall,Recall1,3013,Meaning,100,2030,2749,1,1,,,1
5d89a4e3241e9c0019e2592c,tp7vmz2wu8,Emily_Honors_Thesis_Part_2,1,171,2020-08-31T07:30:18-07:00,3.912337064743,11,versionC_stim.csv,RL_JOLVersionC.csv,"RELATIONAL Version C",OLD,ROCK,GEOLOGY,ON,B,19,30,Test,User,-,,Recall,Recall1,3751,Roll,36.363636363636,1402,3319,0,0,,,1
5d89a4e3241e9c0019e2592c,tp7vmz2wu8,Emily_Honors_Thesis_Part_2,1,172,2020-08-31T07:30:23-07:00,5.5057921409607,11,versionC_stim.csv,RL_JOLVersionC.csv,"RELATIONAL Version C",OLD,BRONZE,ARTERY,ON,U,74,31,Test,User,-,,Recall,Recall1,5343,Medal,18.181818181818,4199,4943,0,0,,,1
5d89a4e3241e9c0019e2592c,tp7vmz2wu8,Emily_Honors_Thesis_Part_2,1,173,2020-08-31T07:30:26-07:00,2.6208419799805,11,versionC_stim.csv,RL_JOLVersionC.csv,"RELATIONAL Version C",OLD,WOMAN,LIFT,ON,U,69,15,Test,User,-,,Recall,Recall1,2453,Lift,100,1638,2141,1,1,,,1
5d89a4e3241e9c0019e2592c,tp7vmz2wu8,Emily_Honors_Thesis_Part_2,1,174,2020-08-31T07:30:30-07:00,4.6725428104401,11,versionC_stim.csv,RL_JOLVersionC.csv,"RELATIONAL Version C",OLD,ASSIGNMENT,DUE,ON,S,46,82,Test,User,-,,Recall,Recall1,4513,Due,100,3593,3937,1,1,,,1
5d89a4e3241e9c0019e2592c,tp7vmz2wu8,Emily_Honors_Thesis_Part_2,1,175,2020-08-31T07:30:34-07:00,3.6580491065979,11,versionC_stim.csv,RL_JOLVersionC.csv,"RELATIONAL Version C",OLD,RIDDLE,SUGAR,ON,U,81,72,Test,User,-,,Recall,Recall1,3481,Tom,0,2689,3009,0,0,,,1
5d89a4e3241e9c0019e2592c,tp7vmz2wu8,Emily_Honors_Thesis_Part_2,1,176,2020-08-31T07:30:42-07:00,8.20867395401,11,versionC_stim.csv,RL_JOLVersionC.csv,"RELATIONAL Version C",OLD,CLEAN,HYGIENE,ON,B,17,49,Test,User,-,,Recall,Recall1,8050,Mop,0,6378,7850,0,0,,,1
5d89a4e3241e9c0019e2592c,tp7vmz2wu8,Emily_Honors_Thesis_Part_2,1,177,2020-08-31T07:30:49-07:00,6.5994009971619,11,versionC_stim.csv,RL_JOLVersionC.csv,"RELATIONAL Version C",OLD,BUSINESS,DEATH,ON,U,72,68,Test,User,-,,Recall,Recall1,6425,Suite,20,4601,5632,0,0,,,1
5d89a4e3241e9c0019e2592c,tp7vmz2wu8,Emily_Honors_Thesis_Part_2,1,178,2020-08-31T07:30:53-07:00,4.2618820667267,11,versionC_stim.csv,RL_JOLVersionC.csv,"RELATIONAL Version C",OLD,CHORE,WORK,ON,F,39,13,Test,User,-,,Recall,Recall1,4103,Work,100,3087,3663,1,1,,,1
5d89a4e3241e9c0019e2592c,tp7vmz2wu8,Emily_Honors_Thesis_Part_2,1,179,2020-08-31T07:30:58-07:00,4.6268858909607,11,versionC_stim.csv,RL_JOLVersionC.csv,"RELATIONAL Version C",OLD,FISH,TUNA,ON,B,25,56,Test,User,-,,Recall,Recall1,4457,"Bowel ",0,1457,3641,0,0,,,1
5d89a4e3241e9c0019e2592c,tp7vmz2wu8,Emily_Honors_Thesis_Part_2,1,180,2020-08-31T07:31:02-07:00,3.8932991027832,11,versionC_stim.csv,RL_JOLVersionC.csv,"RELATIONAL Version C",OLD,ADD,VALLEY,ON,U,82,69,Test,User,-,,Recall,Recall1,3727,Sum,0,3103,3487,0,0,,,1
5d89a4e3241e9c0019e2592c,tp7vmz2wu8,Emily_Honors_Thesis_Part_2,1,181,2020-08-31T07:31:06-07:00,4.1614100933075,11,versionC_stim.csv,RL_JOLVersionC.csv,"RELATIONAL Version C",OLD,SIGHT,DEBATE,ON,U,73,62,Test,User,-,,Recall,Recall1,3994,Taste,54.545454545455,3025,3753,0,0,,,1
5d89a4e3241e9c0019e2592c,tp7vmz2wu8,Emily_Honors_Thesis_Part_2,1,182,2020-08-31T07:31:08-07:00,2.0026497840881,11,versionC_stim.csv,RL_JOLVersionC.csv,"RELATIONAL Version C",OLD,BEE,HONEY,ON,S,63,19,Test,User,-,,Recall,Recall1,1839,Honey,100,1086,1550,1,1,,,1
5d89a4e3241e9c0019e2592c,tp7vmz2wu8,Emily_Honors_Thesis_Part_2,1,183,2020-08-31T07:31:10-07:00,2.3836050033569,11,versionC_stim.csv,RL_JOLVersionC.csv,"RELATIONAL Version C",OLD,WASP,BUG,ON,F,32,11,Test,User,-,,Recall,Recall1,2220,Sting,25,1203,1811,0,0,,,1
5d89a4e3241e9c0019e2592c,tp7vmz2wu8,Emily_Honors_Thesis_Part_2,1,184,2020-08-31T07:31:14-07:00,4.2229011058807,11,versionC_stim.csv,RL_JOLVersionC.csv,"RELATIONAL Version C",OLD,POSITION,MACHINE,ON,U,76,46,Test,User,-,,Recall,Recall1,4046,Job,0,3206,3734,0,0,,,1
5d89a4e3241e9c0019e2592c,tp7vmz2wu8,Emily_Honors_Thesis_Part_2,1,185,2020-08-31T07:31:20-07:00,5.9732580184937,11,versionC_stim.csv,RL_JOLVersionC.csv,"RELATIONAL Version C",OLD,CAR,HAPPY,ON,U,77,70,Test,User,-,,Recall,Recall1,5800,Drive,0,4007,5431,0,0,,,1
5d89a4e3241e9c0019e2592c,tp7vmz2wu8,Emily_Honors_Thesis_Part_2,1,186,2020-08-31T07:31:25-07:00,4.2570018768311,11,versionC_stim.csv,RL_JOLVersionC.csv,"RELATIONAL Version C",OLD,HAMMER,CHISEL,ON,B,9,35,Test,User,-,,Recall,Recall1,4096,Nail,40,3287,3751,0,0,,,1
5d89a4e3241e9c0019e2592c,tp7vmz2wu8,Emily_Honors_Thesis_Part_2,1,187,2020-08-31T07:31:27-07:00,2.5359861850739,11,versionC_stim.csv,RL_JOLVersionC.csv,"RELATIONAL Version C",OLD,BLAZE,FIRE,ON,F,45,32,Test,User,-,,Recall,Recall1,2369,Fire,100,1753,2193,1,1,,,1
5d89a4e3241e9c0019e2592c,tp7vmz2wu8,Emily_Honors_Thesis_Part_2,1,188,2020-08-31T07:31:31-07:00,4.0472609996796,11,versionC_stim.csv,RL_JOLVersionC.csv,"RELATIONAL Version C",OLD,FLOWER,ORCHID,ON,B,24,79,Test,User,-,,Recall,Recall1,3890,Pot,22.222222222222,2065,3793,0,0,,,1
5d89a4e3241e9c0019e2592c,tp7vmz2wu8,Emily_Honors_Thesis_Part_2,1,189,2020-08-31T07:31:40-07:00,8.6647808551788,11,versionC_stim.csv,RL_JOLVersionC.csv,"RELATIONAL Version C",OLD,OUT,WAY,ON,B,16,66,Test,User,-,,Recall,Recall1,8496,"Way ",100,1159,8159,1,1,,,1
5d89a4e3241e9c0019e2592c,tp7vmz2wu8,Emily_Honors_Thesis_Part_2,1,190,2020-08-31T07:31:42-07:00,1.7594840526581,11,versionC_stim.csv,RL_JOLVersionC.csv,"RELATIONAL Version C",OLD,CHILI,HOT,ON,F,37,34,Test,User,-,,Recall,Recall1,1594,Hot,100,1154,1337,1,1,,,1
5d89a4e3241e9c0019e2592c,tp7vmz2wu8,Emily_Honors_Thesis_Part_2,1,191,2020-08-31T07:31:47-07:00,5.6797349452972,11,versionC_stim.csv,RL_JOLVersionC.csv,"RELATIONAL Version C",OLD,FOOT,SHOE,ON,S,60,60,Test,User,-,,Recall,Recall1,3843,Sock,50,2459,3499,0,0,,,1
5d89a4e3241e9c0019e2592c,tp7vmz2wu8,Emily_Honors_Thesis_Part_2,1,192,2020-08-31T07:31:59-07:00,11.450263023376,11,versionC_stim.csv,RL_JOLVersionC.csv,"RELATIONAL Version C",OLD,VASE,KING,ON,U,85,50,Test,User,-,,Recall,Recall1,11287,Skate,22.222222222222,9448,10878,0,0,,,1
5d89a4e3241e9c0019e2592c,tp7vmz2wu8,Emily_Honors_Thesis_Part_2,1,193,2020-08-31T07:32:01-07:00,2.6154930591583,11,versionC_stim.csv,RL_JOLVersionC.csv,"RELATIONAL Version C",OLD,BAR,GRILL,ON,S,52,51,Test,User,-,,Recall,Recall1,2447,Grill,100,1495,2270,1,1,,,1
5d89a4e3241e9c0019e2592c,tp7vmz2wu8,Emily_Honors_Thesis_Part_2,1,194,2020-08-31T07:32:13-07:00,11.51105093956,11,versionC_stim.csv,RL_JOLVersionC.csv,"RELATIONAL Version C",OLD,FAMINE,HUNGER,ON,F,40,10,Test,User,-,,Recall,Recall1,11349,Plauge,50,8916,10981,0,0,,,1
5d89a4e3241e9c0019e2592c,tp7vmz2wu8,Emily_Honors_Thesis_Part_2,1,195,2020-08-31T07:32:24-07:00,10.639241933823,11,versionC_stim.csv,RL_JOLVersionC.csv,"RELATIONAL Version C",OLD,,,,,,0,Instruct,-,10,"You will now be presented with a new set of word pairs. Please study each pair. Remember that your memory will be tested! When finished, press Enter to move to the next pair.",Initial_Instruct,Instruct4,10451,,,-1,-1,,,,,1
5d89a4e3241e9c0019e2592c,tp7vmz2wu8,Emily_Honors_Thesis_Part_2,1,196,2020-08-31T07:32:35-07:00,11.320405006409,11,versionC_stim.csv,RL_JOLVersionC.csv,"RELATIONAL Version C",OLD,,,,,,0,Instruct,,10,"You will again be asked to rate your ability to remember these items using a 0 to 100 scale. Remember to use the full range of the scale!",,Instruct10,11135,,,-1,-1,,,,,1
5d89a4e3241e9c0019e2592c,tp7vmz2wu8,Emily_Honors_Thesis_Part_2,1,197,2020-08-31T07:32:52-07:00,16.69612121582,11,versionC_stim.csv,RL_JOLVersionC.csv,"RELATIONAL Version C",OLD,,,,,,0,Instruct,-,15,"As you study and make your ratings, please think about how the two concepts are RELATED to each other. For example, if you see the pair TURTLE-CAT, think about how both are alive, they are both animals, and both can be kept as pets.",,Instruct20,15529,,,-1,-1,,,,,1
5d89a4e3241e9c0019e2592c,tp7vmz2wu8,Emily_Honors_Thesis_Part_2,1,198,2020-08-31T07:33:12-07:00,20.202065944672,11,versionC_stim.csv,RL_JOLVersionC.csv,"RELATIONAL Version C",OLD,,,,,,0,FreeRecall,-,10,"What you should think about as you study each item pair? Type your response in the box below.",,CHECK4,18034,"The relationship between the two words presented. ",0,5402,15873,0,0,,,1
5d89a4e3241e9c0019e2592c,tp7vmz2wu8,Emily_Honors_Thesis_Part_2,1,199,2020-08-31T07:33:15-07:00,3.6051309108734,11,versionC_stim.csv,RL_JOLVersionC.csv,"RELATIONAL Version C",OLD,,,,,,0,Instruct,User,-,"Press Enter when you are readty to begin",,Instruct11,2438,,,-1,-1,,,,,1
5d89a4e3241e9c0019e2592c,tp7vmz2wu8,Emily_Honors_Thesis_Part_2,1,200,2020-08-31T07:33:21-07:00,5.2996809482574,11,versionC_stim.csv,RL_JOLVersionC.csv,"RELATIONAL Version C",OLD,POTATO,CARROT,Buffer3,Buffer,91,92,JOL,User,-,"How likely are you to correctly recall the second item in the pair?|Type your response on a scale from 0-100 and then press Enter.",Study/JOL,BUFFER3,4125,,,3709,3917,,,,25,1
5d89a4e3241e9c0019e2592c,tp7vmz2wu8,Emily_Honors_Thesis_Part_2,1,201,2020-08-31T07:33:28-07:00,7.3248381614685,11,versionC_stim.csv,RL_JOLVersionC.csv,"RELATIONAL Version C",OLD,WEAKS,DAYS,Buffer3,Buffer,176,96,JOL,User,-,"How likely are you to correctly recall the second item in the pair?|Type your response on a scale from 0-100 and then press Enter.",Study/JOL,BUFFER3,7157,,,6805,6884,,,,15,1
5d89a4e3241e9c0019e2592c,tp7vmz2wu8,Emily_Honors_Thesis_Part_2,1,202,2020-08-31T07:33:31-07:00,3.1757838726044,11,versionC_stim.csv,RL_JOLVersionC.csv,"RELATIONAL Version C",OLD,FISH,SHRIMP,Buffer3,Buffer,93,95,JOL,User,-,"How likely are you to correctly recall the second item in the pair?|Type your response on a scale from 0-100 and then press Enter.",Study/JOL,BUFFER3,3013,,,2717,2836,,,,20,1
5d89a4e3241e9c0019e2592c,tp7vmz2wu8,Emily_Honors_Thesis_Part_2,1,203,2020-08-31T07:33:35-07:00,3.3372361660004,11,versionC_stim.csv,RL_JOLVersionC.csv,"RELATIONAL Version C",OLD,SPOOKY,OCTOBER,Buffer3,Buffer,180,94,JOL,User,-,"How likely are you to correctly recall the second item in the pair?|Type your response on a scale from 0-100 and then press Enter.",Study/JOL,BUFFER3,3178,,,2787,2905,,,,75,1
5d89a4e3241e9c0019e2592c,tp7vmz2wu8,Emily_Honors_Thesis_Part_2,1,204,2020-08-31T07:33:37-07:00,2.8330819606781,11,versionC_stim.csv,RL_JOLVersionC.csv,"RELATIONAL Version C",OLD,STRING,NOODLE,Buffer3,Buffer,92,93,JOL,User,-,"How likely are you to correctly recall the second item in the pair?|Type your response on a scale from 0-100 and then press Enter.",Study/JOL,BUFFER3,2669,,,2429,2540,,,,50,1
5d89a4e3241e9c0019e2592c,tp7vmz2wu8,Emily_Honors_Thesis_Part_2,1,205,2020-08-31T07:33:41-07:00,3.9987988471985,11,versionC_stim.csv,RL_JOLVersionC.csv,"RELATIONAL Version C",OLD,HAVE,OWN,ON2,S,153,155,JOL,User,-,"How likely are you to correctly recall the second item in the pair?|Type your response on a scale from 0-100 and then press Enter.",Study/JOL,"Study Phase2",3828,,,3316,3420,,,,20,1
5d89a4e3241e9c0019e2592c,tp7vmz2wu8,Emily_Honors_Thesis_Part_2,1,206,2020-08-31T07:33:47-07:00,5.3744721412659,11,versionC_stim.csv,RL_JOLVersionC.csv,"RELATIONAL Version C",OLD,CHARM,VEHICLE,ON2,U,160,148,JOL,User,-,"How likely are you to correctly recall the second item in the pair?|Type your response on a scale from 0-100 and then press Enter.",Study/JOL,"Study Phase2",5201,,,4993,5041,,,,15,1
5d89a4e3241e9c0019e2592c,tp7vmz2wu8,Emily_Honors_Thesis_Part_2,1,207,2020-08-31T07:33:52-07:00,5.6817049980164,11,versionC_stim.csv,RL_JOLVersionC.csv,"RELATIONAL Version C",OLD,SCAR,MAIN,ON2,U,175,157,JOL,User,-,"How likely are you to correctly recall the second item in the pair?|Type your response on a scale from 0-100 and then press Enter.",Study/JOL,"Study Phase2",4516,,,4149,4285,,,,20,1
5d89a4e3241e9c0019e2592c,tp7vmz2wu8,Emily_Honors_Thesis_Part_2,1,208,2020-08-31T07:33:56-07:00,3.4821088314056,11,versionC_stim.csv,RL_JOLVersionC.csv,"RELATIONAL Version C",OLD,MYSTERY,DETECTIVE,ON2,B,100,165,JOL,User,-,"How likely are you to correctly recall the second item in the pair?|Type your response on a scale from 0-100 and then press Enter.",Study/JOL,"Study Phase2",3307,,,2635,2770,,,,50,1
5d89a4e3241e9c0019e2592c,tp7vmz2wu8,Emily_Honors_Thesis_Part_2,1,209,2020-08-31T07:34:02-07:00,5.692535161972,11,versionC_stim.csv,RL_JOLVersionC.csv,"RELATIONAL Version C",OLD,LEAGUE,BASEBALL,ON2,F,131,156,JOL,User,-,"How likely are you to correctly recall the second item in the pair?|Type your response on a scale from 0-100 and then press Enter.",Study/JOL,"Study Phase2",5525,,,5230,5341,,,,50,1
5d89a4e3241e9c0019e2592c,tp7vmz2wu8,Emily_Honors_Thesis_Part_2,1,210,2020-08-31T07:34:04-07:00,2.7764179706573,11,versionC_stim.csv,RL_JOLVersionC.csv,"RELATIONAL Version C",OLD,NAP,SLEEP,ON2,F,134,173,JOL,User,-,"How likely are you to correctly recall the second item in the pair?|Type your response on a scale from 0-100 and then press Enter.",Study/JOL,"Study Phase2",2615,,,2223,2351,,,,75,1
5d89a4e3241e9c0019e2592c,tp7vmz2wu8,Emily_Honors_Thesis_Part_2,1,211,2020-08-31T07:34:07-07:00,2.3445990085602,11,versionC_stim.csv,RL_JOLVersionC.csv,"RELATIONAL Version C",OLD,BRACELET,WRIST,ON2,S,140,104,JOL,User,-,"How likely are you to correctly recall the second item in the pair?|Type your response on a scale from 0-100 and then press Enter.",Study/JOL,"Study Phase2",2178,,,1842,1962,,,,50,1
5d89a4e3241e9c0019e2592c,tp7vmz2wu8,Emily_Honors_Thesis_Part_2,1,212,2020-08-31T07:34:12-07:00,5.3200218677521,11,versionC_stim.csv,RL_JOLVersionC.csv,"RELATIONAL Version C",OLD,NOISE,LOUD,ON2,S,152,174,JOL,User,-,"How likely are you to correctly recall the second item in the pair?|Type your response on a scale from 0-100 and then press Enter.",Study/JOL,"Study Phase2",5153,,,4721,4841,,,,50,1
5d89a4e3241e9c0019e2592c,tp7vmz2wu8,Emily_Honors_Thesis_Part_2,1,213,2020-08-31T07:34:15-07:00,3.3361990451813,11,versionC_stim.csv,RL_JOLVersionC.csv,"RELATIONAL Version C",OLD,DRINK,WATER,ON2,S,143,108,JOL,User,-,"How likely are you to correctly recall the second item in the pair?|Type your response on a scale from 0-100 and then press Enter.",Study/JOL,"Study Phase2",3176,,,2671,2823,,,,75,1
5d89a4e3241e9c0019e2592c,tp7vmz2wu8,Emily_Honors_Thesis_Part_2,1,214,2020-08-31T07:34:19-07:00,3.4157691001892,11,versionC_stim.csv,RL_JOLVersionC.csv,"RELATIONAL Version C",OLD,FICTION,LISTEN,ON2,U,164,132,JOL,User,-,"How likely are you to correctly recall the second item in the pair?|Type your response on a scale from 0-100 and then press Enter.",Study/JOL,"Study Phase2",3237,,,2924,3036,,,,20,1
5d89a4e3241e9c0019e2592c,tp7vmz2wu8,Emily_Honors_Thesis_Part_2,1,215,2020-08-31T07:34:25-07:00,5.7836198806763,11,versionC_stim.csv,RL_JOLVersionC.csv,"RELATIONAL Version C",OLD,HEAD,SCALP,ON2,B,105,101,JOL,User,-,"How likely are you to correctly recall the second item in the pair?|Type your response on a scale from 0-100 and then press Enter.",Study/JOL,"Study Phase2",5617,,,5242,5354,,,,35,1
5d89a4e3241e9c0019e2592c,tp7vmz2wu8,Emily_Honors_Thesis_Part_2,1,216,2020-08-31T07:34:31-07:00,6.2847011089325,11,versionC_stim.csv,RL_JOLVersionC.csv,"RELATIONAL Version C",OLD,AIRCRAFT,PLANE,ON2,F,129,97,JOL,User,-,"How likely are you to correctly recall the second item in the pair?|Type your response on a scale from 0-100 and then press Enter.",Study/JOL,"Study Phase2",6116,,,5772,5932,,,,25,1
5d89a4e3241e9c0019e2592c,tp7vmz2wu8,Emily_Honors_Thesis_Part_2,1,217,2020-08-31T07:34:36-07:00,5.5402400493622,11,versionC_stim.csv,RL_JOLVersionC.csv,"RELATIONAL Version C",OLD,FAVORITE,BEST,ON2,F,125,171,JOL,User,-,"How likely are you to correctly recall the second item in the pair?|Type your response on a scale from 0-100 and then press Enter.",Study/JOL,"Study Phase2",5358,,,2759,5150,,,,20,1
5d89a4e3241e9c0019e2592c,tp7vmz2wu8,Emily_Honors_Thesis_Part_2,1,218,2020-08-31T07:34:40-07:00,3.4481148719788,11,versionC_stim.csv,RL_JOLVersionC.csv,"RELATIONAL Version C",OLD,END,ADJOURN,ON2,B,101,164,JOL,User,-,"How likely are you to correctly recall the second item in the pair?|Type your response on a scale from 0-100 and then press Enter.",Study/JOL,"Study Phase2",3289,,,3049,3128,,,,15,1
5d89a4e3241e9c0019e2592c,tp7vmz2wu8,Emily_Honors_Thesis_Part_2,1,219,2020-08-31T07:34:43-07:00,3.5200181007385,11,versionC_stim.csv,RL_JOLVersionC.csv,"RELATIONAL Version C",OLD,THIMBLE,THREAD,ON2,F,121,154,JOL,User,-,"How likely are you to correctly recall the second item in the pair?|Type your response on a scale from 0-100 and then press Enter.",Study/JOL,"Study Phase2",3355,,,2722,2891,,,,20,1
5d89a4e3241e9c0019e2592c,tp7vmz2wu8,Emily_Honors_Thesis_Part_2,1,220,2020-08-31T07:34:47-07:00,3.2147870063782,11,versionC_stim.csv,RL_JOLVersionC.csv,"RELATIONAL Version C",OLD,MORNING,TEMPERATURE,ON2,U,173,140,JOL,User,-,"How likely are you to correctly recall the second item in the pair?|Type your response on a scale from 0-100 and then press Enter.",Study/JOL,"Study Phase2",3049,,,2713,2834,,,,20,1
5d89a4e3241e9c0019e2592c,tp7vmz2wu8,Emily_Honors_Thesis_Part_2,1,221,2020-08-31T07:34:51-07:00,4.0579710006714,11,versionC_stim.csv,RL_JOLVersionC.csv,"RELATIONAL Version C",OLD,SIGN,LOAN,ON2,U,171,145,JOL,User,-,"How likely are you to correctly recall the second item in the pair?|Type your response on a scale from 0-100 and then press Enter.",Study/JOL,"Study Phase2",3895,,,2526,2694,,,,50,1
5d89a4e3241e9c0019e2592c,tp7vmz2wu8,Emily_Honors_Thesis_Part_2,1,222,2020-08-31T07:34:54-07:00,2.9107089042664,11,versionC_stim.csv,RL_JOLVersionC.csv,"RELATIONAL Version C",OLD,STRAWBERRY,FRUIT,ON2,F,124,109,JOL,User,-,"How likely are you to correctly recall the second item in the pair?|Type your response on a scale from 0-100 and then press Enter.",Study/JOL,"Study Phase2",2738,,,2082,2553,,,,25,1
5d89a4e3241e9c0019e2592c,tp7vmz2wu8,Emily_Honors_Thesis_Part_2,1,223,2020-08-31T07:34:57-07:00,3.8727400302887,11,versionC_stim.csv,RL_JOLVersionC.csv,"RELATIONAL Version C",OLD,AWAY,GONE,ON2,S,142,150,JOL,User,-,"How likely are you to correctly recall the second item in the pair?|Type your response on a scale from 0-100 and then press Enter.",Study/JOL,"Study Phase2",3705,,,3273,3512,,,,75,1
5d89a4e3241e9c0019e2592c,tp7vmz2wu8,Emily_Honors_Thesis_Part_2,1,224,2020-08-31T07:35:01-07:00,3.5577580928802,11,versionC_stim.csv,RL_JOLVersionC.csv,"RELATIONAL Version C",OLD,ABLE,CRACKLE,ON2,U,162,153,JOL,User,-,"How likely are you to correctly recall the second item in the pair?|Type your response on a scale from 0-100 and then press Enter.",Study/JOL,"Study Phase2",3399,,,3014,3118,,,,20,1
5d89a4e3241e9c0019e2592c,tp7vmz2wu8,Emily_Honors_Thesis_Part_2,1,225,2020-08-31T07:35:05-07:00,4.4173049926758,11,versionC_stim.csv,RL_JOLVersionC.csv,"RELATIONAL Version C",OLD,BREAKABLE,GLASS,ON2,F,127,136,JOL,User,-,"How likely are you to correctly recall the second item in the pair?|Type your response on a scale from 0-100 and then press Enter.",Study/JOL,"Study Phase2",4253,,,3916,4028,,,,30,1
5d89a4e3241e9c0019e2592c,tp7vmz2wu8,Emily_Honors_Thesis_Part_2,1,226,2020-08-31T07:35:08-07:00,2.3754060268402,11,versionC_stim.csv,RL_JOLVersionC.csv,"RELATIONAL Version C",OLD,COFFIN,DEAD,ON2,F,128,134,JOL,User,-,"How likely are you to correctly recall the second item in the pair?|Type your response on a scale from 0-100 and then press Enter.",Study/JOL,"Study Phase2",2213,,,1798,1965,,,,75,1
5d89a4e3241e9c0019e2592c,tp7vmz2wu8,Emily_Honors_Thesis_Part_2,1,227,2020-08-31T07:35:13-07:00,5.5362589359283,11,versionC_stim.csv,RL_JOLVersionC.csv,"RELATIONAL Version C",OLD,SARDINE,FISH,ON2,F,130,129,JOL,User,-,"How likely are you to correctly recall the second item in the pair?|Type your response on a scale from 0-100 and then press Enter.",Study/JOL,"Study Phase2",5366,,,5069,5189,,,,50,1
5d89a4e3241e9c0019e2592c,tp7vmz2wu8,Emily_Honors_Thesis_Part_2,1,228,2020-08-31T07:35:16-07:00,2.7763960361481,11,versionC_stim.csv,RL_JOLVersionC.csv,"RELATIONAL Version C",OLD,EQUAL,RIGHTS,ON2,S,137,125,JOL,User,-,"How likely are you to correctly recall the second item in the pair?|Type your response on a scale from 0-100 and then press Enter.",Study/JOL,"Study Phase2",2602,,,2266,2393,,,,75,1
5d89a4e3241e9c0019e2592c,tp7vmz2wu8,Emily_Honors_Thesis_Part_2,1,229,2020-08-31T07:35:18-07:00,2.4250078201294,11,versionC_stim.csv,RL_JOLVersionC.csv,"RELATIONAL Version C",OLD,PAPER,DOCUMENT,ON2,B,109,106,JOL,User,-,"How likely are you to correctly recall the second item in the pair?|Type your response on a scale from 0-100 and then press Enter.",Study/JOL,"Study Phase2",2253,,,1940,2060,,,,75,1
5d89a4e3241e9c0019e2592c,tp7vmz2wu8,Emily_Honors_Thesis_Part_2,1,230,2020-08-31T07:35:22-07:00,3.1851890087128,11,versionC_stim.csv,RL_JOLVersionC.csv,"RELATIONAL Version C",OLD,CUT,CHOP,ON2,B,107,143,JOL,User,-,"How likely are you to correctly recall the second item in the pair?|Type your response on a scale from 0-100 and then press Enter.",Study/JOL,"Study Phase2",3024,,,2799,2887,,,,50,1
5d89a4e3241e9c0019e2592c,tp7vmz2wu8,Emily_Honors_Thesis_Part_2,1,231,2020-08-31T07:35:25-07:00,3.1747109889984,11,versionC_stim.csv,RL_JOLVersionC.csv,"RELATIONAL Version C",OLD,LIE,TRUTH,ON2,S,148,102,JOL,User,-,"How likely are you to correctly recall the second item in the pair?|Type your response on a scale from 0-100 and then press Enter.",Study/JOL,"Study Phase2",3011,,,2035,2164,,,,50,1
5d89a4e3241e9c0019e2592c,tp7vmz2wu8,Emily_Honors_Thesis_Part_2,1,232,2020-08-31T07:35:27-07:00,2.5200791358948,11,versionC_stim.csv,RL_JOLVersionC.csv,"RELATIONAL Version C",OLD,JAR,MASON,ON2,S,138,172,JOL,User,-,"How likely are you to correctly recall the second item in the pair?|Type your response on a scale from 0-100 and then press Enter.",Study/JOL,"Study Phase2",2351,,,1991,2134,,,,75,1
5d89a4e3241e9c0019e2592c,tp7vmz2wu8,Emily_Honors_Thesis_Part_2,1,233,2020-08-31T07:35:32-07:00,4.6308989524841,11,versionC_stim.csv,RL_JOLVersionC.csv,"RELATIONAL Version C",OLD,BRAWL,FIGHT,ON2,F,135,152,JOL,User,-,"How likely are you to correctly recall the second item in the pair?|Type your response on a scale from 0-100 and then press Enter.",Study/JOL,"Study Phase2",2640,,,2319,2423,,,,50,1
5d89a4e3241e9c0019e2592c,tp7vmz2wu8,Emily_Honors_Thesis_Part_2,1,234,2020-08-31T07:35:36-07:00,4.4352779388428,11,versionC_stim.csv,RL_JOLVersionC.csv,"RELATIONAL Version C",OLD,SCISSORS,SHEARS,ON2,B,112,117,JOL,User,-,"How likely are you to correctly recall the second item in the pair?|Type your response on a scale from 0-100 and then press Enter.",Study/JOL,"Study Phase2",4269,,,3293,3972,,,,25,1
5d89a4e3241e9c0019e2592c,tp7vmz2wu8,Emily_Honors_Thesis_Part_2,1,235,2020-08-31T07:35:43-07:00,6.7667419910431,11,versionC_stim.csv,RL_JOLVersionC.csv,"RELATIONAL Version C",OLD,TRASH,LITTER,ON2,B,103,122,JOL,User,-,"How likely are you to correctly recall the second item in the pair?|Type your response on a scale from 0-100 and then press Enter.",Study/JOL,"Study Phase2",5599,,,5135,5247,,,,25,1
5d89a4e3241e9c0019e2592c,tp7vmz2wu8,Emily_Honors_Thesis_Part_2,1,236,2020-08-31T07:35:57-07:00,13.661748170853,11,versionC_stim.csv,RL_JOLVersionC.csv,"RELATIONAL Version C",OLD,WET,DRY,ON2,S,146,110,JOL,User,-,"How likely are you to correctly recall the second item in the pair?|Type your response on a scale from 0-100 and then press Enter.",Study/JOL,"Study Phase2",13488,,,13130,13296,,,,25,1
5d89a4e3241e9c0019e2592c,tp7vmz2wu8,Emily_Honors_Thesis_Part_2,1,237,2020-08-31T07:36:01-07:00,4.1123979091644,11,versionC_stim.csv,RL_JOLVersionC.csv,"RELATIONAL Version C",OLD,SHAVE,RAZOR,ON2,S,136,146,JOL,User,-,"How likely are you to correctly recall the second item in the pair?|Type your response on a scale from 0-100 and then press Enter.",Study/JOL,"Study Phase2",3903,,,3423,3631,,,,25,1
5d89a4e3241e9c0019e2592c,tp7vmz2wu8,Emily_Honors_Thesis_Part_2,1,238,2020-08-31T07:36:06-07:00,5.3756749629974,11,versionC_stim.csv,RL_JOLVersionC.csv,"RELATIONAL Version C",OLD,COLD,CHILL,ON2,B,114,135,JOL,User,-,"How likely are you to correctly recall the second item in the pair?|Type your response on a scale from 0-100 and then press Enter.",Study/JOL,"Study Phase2",5206,,,4846,5070,,,,25,1
5d89a4e3241e9c0019e2592c,tp7vmz2wu8,Emily_Honors_Thesis_Part_2,1,239,2020-08-31T07:36:10-07:00,3.9435880184174,11,versionC_stim.csv,RL_JOLVersionC.csv,"RELATIONAL Version C",OLD,,,,,,0,Instruct,-,3,"Remember to focus on how the two items are similiar while you study and make your ratings!",,CHECK5,3778,,,-1,-1,,,,,1
5d89a4e3241e9c0019e2592c,tp7vmz2wu8,Emily_Honors_Thesis_Part_2,1,240,2020-08-31T07:36:13-07:00,2.6163380146027,11,versionC_stim.csv,RL_JOLVersionC.csv,"RELATIONAL Version C",OLD,PLANT,CACTUS,ON2,B,98,130,JOL,User,-,"How likely are you to correctly recall the second item in the pair?|Type your response on a scale from 0-100 and then press Enter.",Study/JOL,"Study Phase2",2455,,,2199,2295,,,,20,1
5d89a4e3241e9c0019e2592c,tp7vmz2wu8,Emily_Honors_Thesis_Part_2,1,241,2020-08-31T07:36:22-07:00,8.7367589473724,11,versionC_stim.csv,RL_JOLVersionC.csv,"RELATIONAL Version C",OLD,DOG,FURRY,ON2,B,102,159,JOL,User,-,"How likely are you to correctly recall the second item in the pair?|Type your response on a scale from 0-100 and then press Enter.",Study/JOL,"Study Phase2",8568,,,5856,8056,,,,25,1
5d89a4e3241e9c0019e2592c,tp7vmz2wu8,Emily_Honors_Thesis_Part_2,1,242,2020-08-31T07:36:25-07:00,3.360689163208,11,versionC_stim.csv,RL_JOLVersionC.csv,"RELATIONAL Version C",OLD,STEAK,GIVE,ON2,U,158,107,JOL,User,-,"How likely are you to correctly recall the second item in the pair?|Type your response on a scale from 0-100 and then press Enter.",Study/JOL,"Study Phase2",3194,,,2866,2962,,,,15,1
5d89a4e3241e9c0019e2592c,tp7vmz2wu8,Emily_Honors_Thesis_Part_2,1,243,2020-08-31T07:36:36-07:00,10.631563901901,11,versionC_stim.csv,RL_JOLVersionC.csv,"RELATIONAL Version C",OLD,OUNCE,BOTH,ON2,U,172,162,JOL,User,-,"How likely are you to correctly recall the second item in the pair?|Type your response on a scale from 0-100 and then press Enter.",Study/JOL,"Study Phase2",10464,,,9776,9880,,,,15,1
5d89a4e3241e9c0019e2592c,tp7vmz2wu8,Emily_Honors_Thesis_Part_2,1,244,2020-08-31T07:36:39-07:00,3.1208610534668,11,versionC_stim.csv,RL_JOLVersionC.csv,"RELATIONAL Version C",OLD,WAX,CANDLE,ON2,S,139,138,JOL,User,-,"How likely are you to correctly recall the second item in the pair?|Type your response on a scale from 0-100 and then press Enter.",Study/JOL,"Study Phase2",2942,,,2502,2726,,,,25,1
5d89a4e3241e9c0019e2592c,tp7vmz2wu8,Emily_Honors_Thesis_Part_2,1,245,2020-08-31T07:36:42-07:00,3.7209868431091,11,versionC_stim.csv,RL_JOLVersionC.csv,"RELATIONAL Version C",OLD,TEMPER,TANTRUM,ON2,S,154,167,JOL,User,-,"How likely are you to correctly recall the second item in the pair?|Type your response on a scale from 0-100 and then press Enter.",Study/JOL,"Study Phase2",3549,,,3118,3348,,,,75,1
5d89a4e3241e9c0019e2592c,tp7vmz2wu8,Emily_Honors_Thesis_Part_2,1,246,2020-08-31T07:36:45-07:00,2.8844799995422,11,versionC_stim.csv,RL_JOLVersionC.csv,"RELATIONAL Version C",OLD,SEATBELT,SAFETY,ON2,S,147,139,JOL,User,-,"How likely are you to correctly recall the second item in the pair?|Type your response on a scale from 0-100 and then press Enter.",Study/JOL,"Study Phase2",2710,,,2286,2446,,,,50,1
5d89a4e3241e9c0019e2592c,tp7vmz2wu8,Emily_Honors_Thesis_Part_2,1,247,2020-08-31T07:36:50-07:00,4.3526999950409,11,versionC_stim.csv,RL_JOLVersionC.csv,"RELATIONAL Version C",OLD,TAN,SUN,ON2,S,155,169,JOL,User,-,"How likely are you to correctly recall the second item in the pair?|Type your response on a scale from 0-100 and then press Enter.",Study/JOL,"Study Phase2",4182,,,3734,3926,,,,25,1
5d89a4e3241e9c0019e2592c,tp7vmz2wu8,Emily_Honors_Thesis_Part_2,1,248,2020-08-31T07:36:53-07:00,3.5054349899292,11,versionC_stim.csv,RL_JOLVersionC.csv,"RELATIONAL Version C",OLD,TRUTHFUL,HONEST,ON2,F,133,114,JOL,User,-,"How likely are you to correctly recall the second item in the pair?|Type your response on a scale from 0-100 and then press Enter.",Study/JOL,"Study Phase2",3335,,,2935,3143,,,,25,1
5d89a4e3241e9c0019e2592c,tp7vmz2wu8,Emily_Honors_Thesis_Part_2,1,249,2020-08-31T07:37:00-07:00,6.5423362255096,11,versionC_stim.csv,RL_JOLVersionC.csv,"RELATIONAL Version C",OLD,LOVE,AFFECTION,ON2,B,115,168,JOL,User,-,"How likely are you to correctly recall the second item in the pair?|Type your response on a scale from 0-100 and then press Enter.",Study/JOL,"Study Phase2",6377,,,6003,6121,,,,20,1
5d89a4e3241e9c0019e2592c,tp7vmz2wu8,Emily_Honors_Thesis_Part_2,1,250,2020-08-31T07:37:09-07:00,9.0736339092255,11,versionC_stim.csv,RL_JOLVersionC.csv,"RELATIONAL Version C",OLD,CLOTH,STRETCH,ON2,U,157,126,JOL,User,-,"How likely are you to correctly recall the second item in the pair?|Type your response on a scale from 0-100 and then press Enter.",Study/JOL,"Study Phase2",8905,,,6961,7145,,,,20,1
5d89a4e3241e9c0019e2592c,tp7vmz2wu8,Emily_Honors_Thesis_Part_2,1,251,2020-08-31T07:37:12-07:00,3.4227919578552,11,versionC_stim.csv,RL_JOLVersionC.csv,"RELATIONAL Version C",OLD,RED,CHERRY,ON2,B,104,127,JOL,User,-,"How likely are you to correctly recall the second item in the pair?|Type your response on a scale from 0-100 and then press Enter.",Study/JOL,"Study Phase2",3259,,,2940,3051,,,,20,1
5d89a4e3241e9c0019e2592c,tp7vmz2wu8,Emily_Honors_Thesis_Part_2,1,252,2020-08-31T07:37:15-07:00,2.2815220355988,11,versionC_stim.csv,RL_JOLVersionC.csv,"RELATIONAL Version C",OLD,JOKE,KEYS,ON2,U,165,118,JOL,User,-,"How likely are you to correctly recall the second item in the pair?|Type your response on a scale from 0-100 and then press Enter.",Study/JOL,"Study Phase2",2118,,,1847,1966,,,,20,1
5d89a4e3241e9c0019e2592c,tp7vmz2wu8,Emily_Honors_Thesis_Part_2,1,253,2020-08-31T07:37:18-07:00,3.5979800224304,11,versionC_stim.csv,RL_JOLVersionC.csv,"RELATIONAL Version C",OLD,OBTAIN,MEAT,ON2,U,161,121,JOL,User,-,"How likely are you to correctly recall the second item in the pair?|Type your response on a scale from 0-100 and then press Enter.",Study/JOL,"Study Phase2",3395,,,3122,3202,,,,15,1
5d89a4e3241e9c0019e2592c,tp7vmz2wu8,Emily_Honors_Thesis_Part_2,1,254,2020-08-31T07:37:21-07:00,2.8004939556122,11,versionC_stim.csv,RL_JOLVersionC.csv,"RELATIONAL Version C",OLD,FLIP,TURN,ON2,F,116,98,JOL,User,-,"How likely are you to correctly recall the second item in the pair?|Type your response on a scale from 0-100 and then press Enter.",Study/JOL,"Study Phase2",2637,,,1837,2485,,,,25,1
5d89a4e3241e9c0019e2592c,tp7vmz2wu8,Emily_Honors_Thesis_Part_2,1,255,2020-08-31T07:37:25-07:00,3.6638460159302,11,versionC_stim.csv,RL_JOLVersionC.csv,"RELATIONAL Version C",OLD,CARBON,ELEMENT,ON2,S,141,105,JOL,User,-,"How likely are you to correctly recall the second item in the pair?|Type your response on a scale from 0-100 and then press Enter.",Study/JOL,"Study Phase2",3492,,,3172,3364,,,,25,1
5d89a4e3241e9c0019e2592c,tp7vmz2wu8,Emily_Honors_Thesis_Part_2,1,256,2020-08-31T07:37:28-07:00,3.4424130916595,11,versionC_stim.csv,RL_JOLVersionC.csv,"RELATIONAL Version C",OLD,BANG,FUZZY,ON2,U,168,119,JOL,User,-,"How likely are you to correctly recall the second item in the pair?|Type your response on a scale from 0-100 and then press Enter.",Study/JOL,"Study Phase2",3281,,,2897,3073,,,,75,1
5d89a4e3241e9c0019e2592c,tp7vmz2wu8,Emily_Honors_Thesis_Part_2,1,257,2020-08-31T07:37:33-07:00,5.3092768192291,11,versionC_stim.csv,RL_JOLVersionC.csv,"RELATIONAL Version C",OLD,SHAKE,SHELL,ON2,U,163,120,JOL,User,-,"How likely are you to correctly recall the second item in the pair?|Type your response on a scale from 0-100 and then press Enter.",Study/JOL,"Study Phase2",5143,,,4855,4983,,,,20,1
5d89a4e3241e9c0019e2592c,tp7vmz2wu8,Emily_Honors_Thesis_Part_2,1,258,2020-08-31T07:37:36-07:00,2.9041941165924,11,versionC_stim.csv,RL_JOLVersionC.csv,"RELATIONAL Version C",OLD,TICK,FLEA,ON2,S,151,99,JOL,User,-,"How likely are you to correctly recall the second item in the pair?|Type your response on a scale from 0-100 and then press Enter.",Study/JOL,"Study Phase2",2740,,,2420,2532,,,,75,1
5d89a4e3241e9c0019e2592c,tp7vmz2wu8,Emily_Honors_Thesis_Part_2,1,259,2020-08-31T07:37:40-07:00,3.4968159198761,11,versionC_stim.csv,RL_JOLVersionC.csv,"RELATIONAL Version C",OLD,BANKER,MONEY,ON2,F,132,151,JOL,User,-,"How likely are you to correctly recall the second item in the pair?|Type your response on a scale from 0-100 and then press Enter.",Study/JOL,"Study Phase2",3328,,,3080,3192,,,,50,1
5d89a4e3241e9c0019e2592c,tp7vmz2wu8,Emily_Honors_Thesis_Part_2,1,260,2020-08-31T07:37:44-07:00,4.343542098999,11,versionC_stim.csv,RL_JOLVersionC.csv,"RELATIONAL Version C",OLD,REVENGE,EVEN,ON2,F,122,149,JOL,User,-,"How likely are you to correctly recall the second item in the pair?|Type your response on a scale from 0-100 and then press Enter.",Study/JOL,"Study Phase2",4178,,,3834,4034,,,,25,1
5d89a4e3241e9c0019e2592c,tp7vmz2wu8,Emily_Honors_Thesis_Part_2,1,261,2020-08-31T07:37:48-07:00,3.7513139247894,11,versionC_stim.csv,RL_JOLVersionC.csv,"RELATIONAL Version C",OLD,CAR,DRIVER,ON2,B,106,133,JOL,User,-,"How likely are you to correctly recall the second item in the pair?|Type your response on a scale from 0-100 and then press Enter.",Study/JOL,"Study Phase2",3587,,,3259,3371,,,,50,1
5d89a4e3241e9c0019e2592c,tp7vmz2wu8,Emily_Honors_Thesis_Part_2,1,262,2020-08-31T07:37:51-07:00,3.4252519607544,11,versionC_stim.csv,RL_JOLVersionC.csv,"RELATIONAL Version C",OLD,CLOTHES,CAKE,ON2,U,166,160,JOL,User,-,"How likely are you to correctly recall the second item in the pair?|Type your response on a scale from 0-100 and then press Enter.",Study/JOL,"Study Phase2",3246,,,2720,2845,,,,10,1
5d89a4e3241e9c0019e2592c,tp7vmz2wu8,Emily_Honors_Thesis_Part_2,1,263,2020-08-31T07:37:57-07:00,5.4407300949097,11,versionC_stim.csv,RL_JOLVersionC.csv,"RELATIONAL Version C",OLD,ACTRESS,STAR,ON2,F,120,131,JOL,User,-,"How likely are you to correctly recall the second item in the pair?|Type your response on a scale from 0-100 and then press Enter.",Study/JOL,"Study Phase2",5263,,,2535,4982,,,,25,1
5d89a4e3241e9c0019e2592c,tp7vmz2wu8,Emily_Honors_Thesis_Part_2,1,264,2020-08-31T07:37:59-07:00,2.4148418903351,11,versionC_stim.csv,RL_JOLVersionC.csv,"RELATIONAL Version C",OLD,VILLAIN,BAD,ON2,F,118,144,JOL,User,-,"How likely are you to correctly recall the second item in the pair?|Type your response on a scale from 0-100 and then press Enter.",Study/JOL,"Study Phase2",2247,,,1655,2055,,,,25,1
5d89a4e3241e9c0019e2592c,tp7vmz2wu8,Emily_Honors_Thesis_Part_2,1,265,2020-08-31T07:38:05-07:00,5.8089261054993,11,versionC_stim.csv,RL_JOLVersionC.csv,"RELATIONAL Version C",OLD,WINDSHIELD,CAR,ON2,F,117,142,JOL,User,-,"How likely are you to correctly recall the second item in the pair?|Type your response on a scale from 0-100 and then press Enter.",Study/JOL,"Study Phase2",5647,,,5175,5414,,,,25,1
5d89a4e3241e9c0019e2592c,tp7vmz2wu8,Emily_Honors_Thesis_Part_2,1,266,2020-08-31T07:38:09-07:00,4.4154479503632,11,versionC_stim.csv,RL_JOLVersionC.csv,"RELATIONAL Version C",OLD,LONELY,ALONE,ON2,S,145,100,JOL,User,-,"How likely are you to correctly recall the second item in the pair?|Type your response on a scale from 0-100 and then press Enter.",Study/JOL,"Study Phase2",4230,,,3422,3533,,,,50,1
5d89a4e3241e9c0019e2592c,tp7vmz2wu8,Emily_Honors_Thesis_Part_2,1,267,2020-08-31T07:38:13-07:00,3.6978130340576,11,versionC_stim.csv,RL_JOLVersionC.csv,"RELATIONAL Version C",OLD,FIGHT,FEUD,ON2,B,113,158,JOL,User,-,"How likely are you to correctly recall the second item in the pair?|Type your response on a scale from 0-100 and then press Enter.",Study/JOL,"Study Phase2",3516,,,3148,3259,,,,50,1
5d89a4e3241e9c0019e2592c,tp7vmz2wu8,Emily_Honors_Thesis_Part_2,1,268,2020-08-31T07:38:16-07:00,2.7749509811401,11,versionC_stim.csv,RL_JOLVersionC.csv,"RELATIONAL Version C",OLD,TIE,SHOELACE,ON2,B,99,113,JOL,User,-,"How likely are you to correctly recall the second item in the pair?|Type your response on a scale from 0-100 and then press Enter.",Study/JOL,"Study Phase2",2608,,,2072,2352,,,,75,1
5d89a4e3241e9c0019e2592c,tp7vmz2wu8,Emily_Honors_Thesis_Part_2,1,269,2020-08-31T07:38:21-07:00,5.6079270839691,11,versionC_stim.csv,RL_JOLVersionC.csv,"RELATIONAL Version C",OLD,DONKEY,MULE,ON2,B,108,170,JOL,User,-,"How likely are you to correctly recall the second item in the pair?|Type your response on a scale from 0-100 and then press Enter.",Study/JOL,"Study Phase2",5438,,,4462,5213,,,,65,1
5d89a4e3241e9c0019e2592c,tp7vmz2wu8,Emily_Honors_Thesis_Part_2,1,270,2020-08-31T07:38:26-07:00,4.4952390193939,11,versionC_stim.csv,RL_JOLVersionC.csv,"RELATIONAL Version C",OLD,TOIL,LEASE,ON2,U,170,166,JOL,User,-,"How likely are you to correctly recall the second item in the pair?|Type your response on a scale from 0-100 and then press Enter.",Study/JOL,"Study Phase2",4328,,,4024,4136,,,,10,1
5d89a4e3241e9c0019e2592c,tp7vmz2wu8,Emily_Honors_Thesis_Part_2,1,271,2020-08-31T07:38:30-07:00,3.7262799739838,11,versionC_stim.csv,RL_JOLVersionC.csv,"RELATIONAL Version C",OLD,PENGUIN,BIRD,ON2,F,119,161,JOL,User,-,"How likely are you to correctly recall the second item in the pair?|Type your response on a scale from 0-100 and then press Enter.",Study/JOL,"Study Phase2",3551,,,2255,3262,,,,20,1
5d89a4e3241e9c0019e2592c,tp7vmz2wu8,Emily_Honors_Thesis_Part_2,1,272,2020-08-31T07:38:33-07:00,3.8259189128876,11,versionC_stim.csv,RL_JOLVersionC.csv,"RELATIONAL Version C",OLD,PANTHER,CAT,ON2,F,126,163,JOL,User,-,"How likely are you to correctly recall the second item in the pair?|Type your response on a scale from 0-100 and then press Enter.",Study/JOL,"Study Phase2",3654,,,3038,3199,,,,50,1
5d89a4e3241e9c0019e2592c,tp7vmz2wu8,Emily_Honors_Thesis_Part_2,1,273,2020-08-31T07:38:38-07:00,4.8155150413513,11,versionC_stim.csv,RL_JOLVersionC.csv,"RELATIONAL Version C",OLD,GROUND,EARTH,ON2,S,144,111,JOL,User,-,"How likely are you to correctly recall the second item in the pair?|Type your response on a scale from 0-100 and then press Enter.",Study/JOL,"Study Phase2",4606,,,4254,4294,,,,20,1
5d89a4e3241e9c0019e2592c,tp7vmz2wu8,Emily_Honors_Thesis_Part_2,1,274,2020-08-31T07:38:42-07:00,3.9240188598633,11,versionC_stim.csv,RL_JOLVersionC.csv,"RELATIONAL Version C",OLD,EAT,DINE,ON2,B,111,103,JOL,User,-,"How likely are you to correctly recall the second item in the pair?|Type your response on a scale from 0-100 and then press Enter.",Study/JOL,"Study Phase2",3755,,,3380,3467,,,,20,1
5d89a4e3241e9c0019e2592c,tp7vmz2wu8,Emily_Honors_Thesis_Part_2,1,275,2020-08-31T07:38:45-07:00,2.7732620239258,11,versionC_stim.csv,RL_JOLVersionC.csv,"RELATIONAL Version C",OLD,CHILDREN,MIRROR,ON2,U,174,147,JOL,User,-,"How likely are you to correctly recall the second item in the pair?|Type your response on a scale from 0-100 and then press Enter.",Study/JOL,"Study Phase2",2572,,,1763,1874,,,,15,1
5d89a4e3241e9c0019e2592c,tp7vmz2wu8,Emily_Honors_Thesis_Part_2,1,276,2020-08-31T07:38:49-07:00,4.2740170955658,11,versionC_stim.csv,RL_JOLVersionC.csv,"RELATIONAL Version C",OLD,HATE,NAME,ON2,U,167,128,JOL,User,-,"How likely are you to correctly recall the second item in the pair?|Type your response on a scale from 0-100 and then press Enter.",Study/JOL,"Study Phase2",4108,,,3891,3971,,,,15,1
5d89a4e3241e9c0019e2592c,tp7vmz2wu8,Emily_Honors_Thesis_Part_2,1,277,2020-08-31T07:38:54-07:00,4.4204468727112,11,versionC_stim.csv,RL_JOLVersionC.csv,"RELATIONAL Version C",OLD,CLEAR,MOAT,ON2,U,169,141,JOL,User,-,"How likely are you to correctly recall the second item in the pair?|Type your response on a scale from 0-100 and then press Enter.",Study/JOL,"Study Phase2",4258,,,4002,4106,,,,15,1
