Username,ID,ExperimentName,Session,Trial,Date,TimeDif,"Condition Number","Stimuli File","Order File","Condition Description","Condition Notes",Stimuli*Cue,Stimuli*Answer,Stimuli*Shuffle,"Stimuli*Stimuli Notes",Stimuli*Value,Procedure*Item,"Procedure*Trial Type","Procedure*Max Time","Procedure*Min Time",Procedure*Text,"Procedure*Procedure Notes",Procedure*Shuffle,Response*RT,Response*Response,Response*Accuracy,Response*RTfirst,Response*RTlast,Response*strictAcc,Response*lenientAcc,Response*focus,Response*JOL,Response*Focus
5d5dc214a4dd6a0018af21da,wz3i7ckf4t,Emily_Honors_Thesis_Part_2,1,1,2020-08-29T11:01:50-07:00,33.691250085831,6,versionA_stim.csv,IS_JOLVersionB.csv,"ITEM SPECIFIC Version B",OLD,,,,,,0,Instruct,-,10,"In this section, you will be presented with a series of word pairs. As you study, you will be asked to rate your ability to remember the second item in the pair if you were only shown the first at test. You will make these ratings using a 0 to 100 Scale.",,Instruct13,33147,,,-1,-1,,,,,1
5d5dc214a4dd6a0018af21da,wz3i7ckf4t,Emily_Honors_Thesis_Part_2,1,2,2020-08-29T11:02:01-07:00,11.266456842422,6,versionA_stim.csv,IS_JOLVersionB.csv,"ITEM SPECIFIC Version B",OLD,,,,,,0,Instruct,-,10,"For example, if you are given the pair CAT - DOG, a rating of 0 indicates that you would not remember DOG at test, while a rating of 100 indicates full certainty that you would remember the word DOG at test.",,Instruct14,10671,,,-1,-1,,,,,1
5d5dc214a4dd6a0018af21da,wz3i7ckf4t,Emily_Honors_Thesis_Part_2,1,3,2020-08-29T11:02:15-07:00,13.964232206345,6,versionA_stim.csv,IS_JOLVersionB.csv,"ITEM SPECIFIC Version B",OLD,,,,,,0,Instruct,-,10,"When making these ratings, it is criticial that you use the full range of the scale. You will be disqualified for only giving ratings of 0 or 100! After making your rating, press Enter to advance to the next pair.",,Instruct15,13289,,,-1,-1,,,,,1
5d5dc214a4dd6a0018af21da,wz3i7ckf4t,Emily_Honors_Thesis_Part_2,1,4,2020-08-29T11:02:32-07:00,17.189891815186,6,versionA_stim.csv,IS_JOLVersionB.csv,"ITEM SPECIFIC Version B",OLD,,,,,,0,Instruct,-,15,"As you study and make your ratings, please think about the unique featues of each item and how the two concepts are DIFFERENT from each other. For example, if you see the pair TURTLE-CAT, think about how TURTLES have shells and are reptiles, while CATS are mammals and have fur.",,Instruct19,16482,,,-1,-1,,,,,1
5d5dc214a4dd6a0018af21da,wz3i7ckf4t,Emily_Honors_Thesis_Part_2,1,5,2020-08-29T11:02:57-07:00,25.043853998184,6,versionA_stim.csv,IS_JOLVersionB.csv,"ITEM SPECIFIC Version B",OLD,,,,,,0,FreeRecall,-,10,"What you should think about as you study each item pair? Type your response in the box below.",,CHECK1,24322,"how the words relate to each other, is there a common link?",0,6857,21438,0,0,,,1
5d5dc214a4dd6a0018af21da,wz3i7ckf4t,Emily_Honors_Thesis_Part_2,1,6,2020-08-29T11:03:07-07:00,10.055219173431,6,versionA_stim.csv,IS_JOLVersionB.csv,"ITEM SPECIFIC Version B",OLD,,,,,,0,Instruct,-,5,"You will now complete a practice session. Please study the following items and rate your ability to remember them. Remember to think about how the two items are unique!",,Instruct17,9358,,,-1,-1,,,,,1
5d5dc214a4dd6a0018af21da,wz3i7ckf4t,Emily_Honors_Thesis_Part_2,1,7,2020-08-29T11:03:19-07:00,11.626926898956,6,versionA_stim.csv,IS_JOLVersionB.csv,"ITEM SPECIFIC Version B",OLD,DEAF,MUTE,PRACTICE,PRACTICE,182,182,JOL,User,-,"How likely are you to correctly recall the second item in the pair?|Type your response on a scale from 0-100 and then press Enter.",Study/JOL,PRACTICE,10907,,,8078,8340,,,,90,1
5d5dc214a4dd6a0018af21da,wz3i7ckf4t,Emily_Honors_Thesis_Part_2,1,8,2020-08-29T11:03:31-07:00,12.628941059113,6,versionA_stim.csv,IS_JOLVersionB.csv,"ITEM SPECIFIC Version B",OLD,HAM,BONE,PRACTICE,PRACTICE,183,186,JOL,User,-,"How likely are you to correctly recall the second item in the pair?|Type your response on a scale from 0-100 and then press Enter.",Study/JOL,PRACTICE,11909,,,4717,4888,,,,80,1
5d5dc214a4dd6a0018af21da,wz3i7ckf4t,Emily_Honors_Thesis_Part_2,1,9,2020-08-29T11:03:39-07:00,8.1411938667297,6,versionA_stim.csv,IS_JOLVersionB.csv,"ITEM SPECIFIC Version B",OLD,PADDLE,ROW,PRACTICE,PRACTICE,184,189,JOL,User,-,"How likely are you to correctly recall the second item in the pair?|Type your response on a scale from 0-100 and then press Enter.",Study/JOL,PRACTICE,7478,,,5597,5805,,,,80,1
5d5dc214a4dd6a0018af21da,wz3i7ckf4t,Emily_Honors_Thesis_Part_2,1,10,2020-08-29T11:03:52-07:00,12.771779060364,6,versionA_stim.csv,IS_JOLVersionB.csv,"ITEM SPECIFIC Version B",OLD,BEHAVIOR,SOCIAL,PRACTICE,PRACTICE,189,183,JOL,User,-,"How likely are you to correctly recall the second item in the pair?|Type your response on a scale from 0-100 and then press Enter.",Study/JOL,PRACTICE,12144,,,7734,10284,,,,60,1
5d5dc214a4dd6a0018af21da,wz3i7ckf4t,Emily_Honors_Thesis_Part_2,1,11,2020-08-29T11:03:58-07:00,5.9760189056396,6,versionA_stim.csv,IS_JOLVersionB.csv,"ITEM SPECIFIC Version B",OLD,HINGE,SWING,PRACTICE,PRACTICE,185,187,JOL,User,-,"How likely are you to correctly recall the second item in the pair?|Type your response on a scale from 0-100 and then press Enter.",Study/JOL,PRACTICE,5430,,,3623,3848,,,,60,1
5d5dc214a4dd6a0018af21da,wz3i7ckf4t,Emily_Honors_Thesis_Part_2,1,12,2020-08-29T11:04:03-07:00,5.2373142242432,6,versionA_stim.csv,IS_JOLVersionB.csv,"ITEM SPECIFIC Version B",OLD,DISBELIEVE,SKEPTIC,PRACTICE,PRACTICE,186,188,JOL,User,-,"How likely are you to correctly recall the second item in the pair?|Type your response on a scale from 0-100 and then press Enter.",Study/JOL,PRACTICE,4780,,,3436,3626,,,,80,1
5d5dc214a4dd6a0018af21da,wz3i7ckf4t,Emily_Honors_Thesis_Part_2,1,13,2020-08-29T11:04:09-07:00,5.0847368240356,6,versionA_stim.csv,IS_JOLVersionB.csv,"ITEM SPECIFIC Version B",OLD,CHOCOLATE,BAR,PRACTICE,PRACTICE,187,185,JOL,User,-,"How likely are you to correctly recall the second item in the pair?|Type your response on a scale from 0-100 and then press Enter.",Study/JOL,PRACTICE,4590,,,3072,3430,,,,100,1
5d5dc214a4dd6a0018af21da,wz3i7ckf4t,Emily_Honors_Thesis_Part_2,1,14,2020-08-29T11:04:12-07:00,3.3543660640717,6,versionA_stim.csv,IS_JOLVersionB.csv,"ITEM SPECIFIC Version B",OLD,FASHION,MODEL,PRACTICE,PRACTICE,190,191,JOL,User,-,"How likely are you to correctly recall the second item in the pair?|Type your response on a scale from 0-100 and then press Enter.",Study/JOL,PRACTICE,2874,,,1320,1676,,,,100,1
5d5dc214a4dd6a0018af21da,wz3i7ckf4t,Emily_Honors_Thesis_Part_2,1,15,2020-08-29T11:04:19-07:00,6.8435859680176,6,versionA_stim.csv,IS_JOLVersionB.csv,"ITEM SPECIFIC Version B",OLD,CHIME,MUSIC,PRACTICE,PRACTICE,188,190,JOL,User,-,"How likely are you to correctly recall the second item in the pair?|Type your response on a scale from 0-100 and then press Enter.",Study/JOL,PRACTICE,6298,,,4112,4639,,,,20,1
5d5dc214a4dd6a0018af21da,wz3i7ckf4t,Emily_Honors_Thesis_Part_2,1,16,2020-08-29T11:04:25-07:00,6.7345910072327,6,versionA_stim.csv,IS_JOLVersionB.csv,"ITEM SPECIFIC Version B",OLD,AARDVARK,ZOO,PRACTICE,PRACTICE,181,184,JOL,User,-,"How likely are you to correctly recall the second item in the pair?|Type your response on a scale from 0-100 and then press Enter.",Study/JOL,PRACTICE,6275,,,4593,4872,,,,50,1
5d5dc214a4dd6a0018af21da,wz3i7ckf4t,Emily_Honors_Thesis_Part_2,1,17,2020-08-29T11:04:28-07:00,2.4031410217285,6,versionA_stim.csv,IS_JOLVersionB.csv,"ITEM SPECIFIC Version B",OLD,,,,,,0,Instruct,User,-,"You have completed this section. Please press Enter to continue.",,Instruct18,1938,,,-1,-1,,,,,1
5d5dc214a4dd6a0018af21da,wz3i7ckf4t,Emily_Honors_Thesis_Part_2,1,18,2020-08-29T11:04:30-07:00,1.7642719745636,6,versionA_stim.csv,IS_JOLVersionB.csv,"ITEM SPECIFIC Version B",OLD,,,,,,0,Instruct,User,-,"You will now begin the study. Press Enter when you are ready to begin.",,Instruct16,1303,,,-1,-1,,,,,1
5d5dc214a4dd6a0018af21da,wz3i7ckf4t,Emily_Honors_Thesis_Part_2,1,19,2020-08-29T11:04:39-07:00,9.5692110061646,6,versionA_stim.csv,IS_JOLVersionB.csv,"ITEM SPECIFIC Version B",OLD,MONTH,YEAR,Buffer3,Buffer,177,96,JOL,User,-,"How likely are you to correctly recall the second item in the pair?|Type your response on a scale from 0-100 and then press Enter.",Study/JOL,BUFFER,9000,,,5030,5417,,,,100,1
5d5dc214a4dd6a0018af21da,wz3i7ckf4t,Emily_Honors_Thesis_Part_2,1,20,2020-08-29T11:04:44-07:00,5.1689901351929,6,versionA_stim.csv,IS_JOLVersionB.csv,"ITEM SPECIFIC Version B",OLD,TOOL,SHED,Buffer3,Buffer,178,93,JOL,User,-,"How likely are you to correctly recall the second item in the pair?|Type your response on a scale from 0-100 and then press Enter.",Study/JOL,BUFFER,4559,,,3196,3534,,,,100,1
5d5dc214a4dd6a0018af21da,wz3i7ckf4t,Emily_Honors_Thesis_Part_2,1,21,2020-08-29T11:04:50-07:00,5.2077388763428,6,versionA_stim.csv,IS_JOLVersionB.csv,"ITEM SPECIFIC Version B",OLD,CARROT,POTATO,Buffer3,Buffer,91,94,JOL,User,-,"How likely are you to correctly recall the second item in the pair?|Type your response on a scale from 0-100 and then press Enter.",Study/JOL,BUFFER,3678,,,2053,2252,,,,90,1
5d5dc214a4dd6a0018af21da,wz3i7ckf4t,Emily_Honors_Thesis_Part_2,1,22,2020-08-29T11:04:57-07:00,7.708890914917,6,versionA_stim.csv,IS_JOLVersionB.csv,"ITEM SPECIFIC Version B",OLD,ICE,FROZEN,Buffer3,Buffer,94,95,JOL,User,-,"How likely are you to correctly recall the second item in the pair?|Type your response on a scale from 0-100 and then press Enter.",Study/JOL,BUFFER,5537,,,4158,4359,,,,90,1
5d5dc214a4dd6a0018af21da,wz3i7ckf4t,Emily_Honors_Thesis_Part_2,1,23,2020-08-29T11:05:03-07:00,5.324184179306,6,versionA_stim.csv,IS_JOLVersionB.csv,"ITEM SPECIFIC Version B",OLD,SHRIMP,FISH,Buffer3,Buffer,93,92,JOL,User,-,"How likely are you to correctly recall the second item in the pair?|Type your response on a scale from 0-100 and then press Enter.",Study/JOL,BUFFER,4698,,,2825,2991,,,,70,1
5d5dc214a4dd6a0018af21da,wz3i7ckf4t,Emily_Honors_Thesis_Part_2,1,24,2020-08-29T11:05:11-07:00,8.3470458984375,6,versionA_stim.csv,IS_JOLVersionB.csv,"ITEM SPECIFIC Version B",OLD,SCALP,HEAD,ON2,F,105,151,JOL,User,-,"How likely are you to correctly recall the second item in the pair?|Type your response on a scale from 0-100 and then press Enter.",Study/JOL,"Study Phase",7867,,,2204,6771,,,,80,1
5d5dc214a4dd6a0018af21da,wz3i7ckf4t,Emily_Honors_Thesis_Part_2,1,25,2020-08-29T11:05:16-07:00,4.7901659011841,6,versionA_stim.csv,IS_JOLVersionB.csv,"ITEM SPECIFIC Version B",OLD,NAME,HATE,ON2,U,167,158,JOL,User,-,"How likely are you to correctly recall the second item in the pair?|Type your response on a scale from 0-100 and then press Enter.",Study/JOL,"Study Phase",4298,,,3266,3266,,,,0,1
5d5dc214a4dd6a0018af21da,wz3i7ckf4t,Emily_Honors_Thesis_Part_2,1,26,2020-08-29T11:05:19-07:00,3.4481091499329,6,versionA_stim.csv,IS_JOLVersionB.csv,"ITEM SPECIFIC Version B",OLD,JUSTICE,MAROON,ON2,U,156,136,JOL,User,-,"How likely are you to correctly recall the second item in the pair?|Type your response on a scale from 0-100 and then press Enter.",Study/JOL,"Study Phase",2975,,,1682,1682,,,,0,1
5d5dc214a4dd6a0018af21da,wz3i7ckf4t,Emily_Honors_Thesis_Part_2,1,27,2020-08-29T11:05:25-07:00,5.9814178943634,6,versionA_stim.csv,IS_JOLVersionB.csv,"ITEM SPECIFIC Version B",OLD,STAR,ACTRESS,ON2,B,120,102,JOL,User,-,"How likely are you to correctly recall the second item in the pair?|Type your response on a scale from 0-100 and then press Enter.",Study/JOL,"Study Phase",5502,,,4257,4431,,,,30,1
5d5dc214a4dd6a0018af21da,wz3i7ckf4t,Emily_Honors_Thesis_Part_2,1,28,2020-08-29T11:05:31-07:00,5.698450088501,6,versionA_stim.csv,IS_JOLVersionB.csv,"ITEM SPECIFIC Version B",OLD,DRY,WET,ON2,S,146,97,JOL,User,-,"How likely are you to correctly recall the second item in the pair?|Type your response on a scale from 0-100 and then press Enter.",Study/JOL,"Study Phase",5205,,,3754,4091,,,,100,1
5d5dc214a4dd6a0018af21da,wz3i7ckf4t,Emily_Honors_Thesis_Part_2,1,29,2020-08-29T11:05:36-07:00,5.4519050121307,6,versionA_stim.csv,IS_JOLVersionB.csv,"ITEM SPECIFIC Version B",OLD,CHERRY,RED,ON2,F,104,121,JOL,User,-,"How likely are you to correctly recall the second item in the pair?|Type your response on a scale from 0-100 and then press Enter.",Study/JOL,"Study Phase",4983,,,3618,3806,,,,60,1
5d5dc214a4dd6a0018af21da,wz3i7ckf4t,Emily_Honors_Thesis_Part_2,1,30,2020-08-29T11:05:42-07:00,5.9697918891907,6,versionA_stim.csv,IS_JOLVersionB.csv,"ITEM SPECIFIC Version B",OLD,DRIVER,CAR,ON2,F,106,100,JOL,User,-,"How likely are you to correctly recall the second item in the pair?|Type your response on a scale from 0-100 and then press Enter.",Study/JOL,"Study Phase",5374,,,4133,4278,,,,80,1
5d5dc214a4dd6a0018af21da,wz3i7ckf4t,Emily_Honors_Thesis_Part_2,1,31,2020-08-29T11:05:46-07:00,3.7181329727173,6,versionA_stim.csv,IS_JOLVersionB.csv,"ITEM SPECIFIC Version B",OLD,CANDLE,WAX,ON2,S,139,154,JOL,User,-,"How likely are you to correctly recall the second item in the pair?|Type your response on a scale from 0-100 and then press Enter.",Study/JOL,"Study Phase",3230,,,1965,2134,,,,80,1
5d5dc214a4dd6a0018af21da,wz3i7ckf4t,Emily_Honors_Thesis_Part_2,1,32,2020-08-29T11:05:54-07:00,7.8083300590515,6,versionA_stim.csv,IS_JOLVersionB.csv,"ITEM SPECIFIC Version B",OLD,SUN,TAN,ON2,S,155,107,JOL,User,-,"How likely are you to correctly recall the second item in the pair?|Type your response on a scale from 0-100 and then press Enter.",Study/JOL,"Study Phase",7300,,,2171,6355,,,,100,1
5d5dc214a4dd6a0018af21da,wz3i7ckf4t,Emily_Honors_Thesis_Part_2,1,33,2020-08-29T11:05:59-07:00,5.0344300270081,6,versionA_stim.csv,IS_JOLVersionB.csv,"ITEM SPECIFIC Version B",OLD,SHEARS,SCISSORS,ON2,F,112,110,JOL,User,-,"How likely are you to correctly recall the second item in the pair?|Type your response on a scale from 0-100 and then press Enter.",Study/JOL,"Study Phase",4380,,,2952,3135,,,,60,1
5d5dc214a4dd6a0018af21da,wz3i7ckf4t,Emily_Honors_Thesis_Part_2,1,34,2020-08-29T11:06:04-07:00,4.9592580795288,6,versionA_stim.csv,IS_JOLVersionB.csv,"ITEM SPECIFIC Version B",OLD,CACTUS,PLANT,ON2,F,98,174,JOL,User,-,"How likely are you to correctly recall the second item in the pair?|Type your response on a scale from 0-100 and then press Enter.",Study/JOL,"Study Phase",4481,,,3219,3381,,,,70,1
5d5dc214a4dd6a0018af21da,wz3i7ckf4t,Emily_Honors_Thesis_Part_2,1,35,2020-08-29T11:07:48-07:00,103.72045683861,6,versionA_stim.csv,IS_JOLVersionB.csv,"ITEM SPECIFIC Version B",OLD,SLEEP,NAP,ON2,B,134,145,JOL,User,-,"How likely are you to correctly recall the second item in the pair?|Type your response on a scale from 0-100 and then press Enter.",Study/JOL,"Study Phase",6605,,,5005,5172,,,,90,1
5d5dc214a4dd6a0018af21da,wz3i7ckf4t,Emily_Honors_Thesis_Part_2,1,36,2020-08-29T11:07:53-07:00,5.6068880558014,6,versionA_stim.csv,IS_JOLVersionB.csv,"ITEM SPECIFIC Version B",OLD,BIRD,PENGUIN,ON2,B,119,135,JOL,User,-,"How likely are you to correctly recall the second item in the pair?|Type your response on a scale from 0-100 and then press Enter.",Study/JOL,"Study Phase",4900,,,4233,4420,,,,40,1
5d5dc214a4dd6a0018af21da,wz3i7ckf4t,Emily_Honors_Thesis_Part_2,1,37,2020-08-29T11:07:57-07:00,3.3728470802307,6,versionA_stim.csv,IS_JOLVersionB.csv,"ITEM SPECIFIC Version B",OLD,GIVE,STEAK,ON2,U,158,159,JOL,User,-,"How likely are you to correctly recall the second item in the pair?|Type your response on a scale from 0-100 and then press Enter.",Study/JOL,"Study Phase",2879,,,2010,2010,,,,0,1
5d5dc214a4dd6a0018af21da,wz3i7ckf4t,Emily_Honors_Thesis_Part_2,1,38,2020-08-29T11:08:01-07:00,4.2092020511627,6,versionA_stim.csv,IS_JOLVersionB.csv,"ITEM SPECIFIC Version B",OLD,DEAD,COFFIN,ON2,B,128,118,JOL,User,-,"How likely are you to correctly recall the second item in the pair?|Type your response on a scale from 0-100 and then press Enter.",Study/JOL,"Study Phase",3696,,,2857,3059,,,,70,1
5d5dc214a4dd6a0018af21da,wz3i7ckf4t,Emily_Honors_Thesis_Part_2,1,39,2020-08-29T11:08:05-07:00,3.8305399417877,6,versionA_stim.csv,IS_JOLVersionB.csv,"ITEM SPECIFIC Version B",OLD,ALONE,LONELY,ON2,S,145,132,JOL,User,-,"How likely are you to correctly recall the second item in the pair?|Type your response on a scale from 0-100 and then press Enter.",Study/JOL,"Study Phase",3319,,,2422,2775,,,,100,1
5d5dc214a4dd6a0018af21da,wz3i7ckf4t,Emily_Honors_Thesis_Part_2,1,40,2020-08-29T11:08:41-07:00,36.313431024551,6,versionA_stim.csv,IS_JOLVersionB.csv,"ITEM SPECIFIC Version B",OLD,POP,BALLOON,ON2,B,123,138,JOL,User,-,"How likely are you to correctly recall the second item in the pair?|Type your response on a scale from 0-100 and then press Enter.",Study/JOL,"Study Phase",9340,,,8342,8536,,,,50,1
5d5dc214a4dd6a0018af21da,wz3i7ckf4t,Emily_Honors_Thesis_Part_2,1,41,2020-08-29T11:08:46-07:00,5.4195239543915,6,versionA_stim.csv,IS_JOLVersionB.csv,"ITEM SPECIFIC Version B",OLD,INCENSE,SMELL,ON2,F,110,125,JOL,User,-,"How likely are you to correctly recall the second item in the pair?|Type your response on a scale from 0-100 and then press Enter.",Study/JOL,"Study Phase",4855,,,3395,3645,,,,70,1
5d5dc214a4dd6a0018af21da,wz3i7ckf4t,Emily_Honors_Thesis_Part_2,1,42,2020-08-29T11:08:51-07:00,4.5110330581665,6,versionA_stim.csv,IS_JOLVersionB.csv,"ITEM SPECIFIC Version B",OLD,MAZE,ELECTION,ON2,U,159,164,JOL,User,-,"How likely are you to correctly recall the second item in the pair?|Type your response on a scale from 0-100 and then press Enter.",Study/JOL,"Study Phase",3008,,,1905,1905,,,,0,1
5d5dc214a4dd6a0018af21da,wz3i7ckf4t,Emily_Honors_Thesis_Part_2,1,43,2020-08-29T11:08:55-07:00,4.0835490226746,6,versionA_stim.csv,IS_JOLVersionB.csv,"ITEM SPECIFIC Version B",OLD,HONEST,TRUTHFUL,ON2,B,133,129,JOL,User,-,"How likely are you to correctly recall the second item in the pair?|Type your response on a scale from 0-100 and then press Enter.",Study/JOL,"Study Phase",3438,,,2054,2264,,,,90,1
5d5dc214a4dd6a0018af21da,wz3i7ckf4t,Emily_Honors_Thesis_Part_2,1,44,2020-08-29T11:08:59-07:00,4.539155960083,6,versionA_stim.csv,IS_JOLVersionB.csv,"ITEM SPECIFIC Version B",OLD,ROD,REEL,ON2,S,150,117,JOL,User,-,"How likely are you to correctly recall the second item in the pair?|Type your response on a scale from 0-100 and then press Enter.",Study/JOL,"Study Phase",4008,,,3039,3207,,,,70,1
5d5dc214a4dd6a0018af21da,wz3i7ckf4t,Emily_Honors_Thesis_Part_2,1,45,2020-08-29T11:09:05-07:00,5.1686308383942,6,versionA_stim.csv,IS_JOLVersionB.csv,"ITEM SPECIFIC Version B",OLD,SHELL,SHAKE,ON2,U,163,133,JOL,User,-,"How likely are you to correctly recall the second item in the pair?|Type your response on a scale from 0-100 and then press Enter.",Study/JOL,"Study Phase",3605,,,2666,2666,,,,0,1
5d5dc214a4dd6a0018af21da,wz3i7ckf4t,Emily_Honors_Thesis_Part_2,1,46,2020-08-29T11:09:59-07:00,54.116760015488,6,versionA_stim.csv,IS_JOLVersionB.csv,"ITEM SPECIFIC Version B",OLD,OWN,HAVE,ON2,S,153,156,JOL,User,-,"How likely are you to correctly recall the second item in the pair?|Type your response on a scale from 0-100 and then press Enter.",Study/JOL,"Study Phase",7965,,,5347,5618,,,,80,0.879
5d5dc214a4dd6a0018af21da,wz3i7ckf4t,Emily_Honors_Thesis_Part_2,1,47,2020-08-29T11:10:03-07:00,4.0272240638733,6,versionA_stim.csv,IS_JOLVersionB.csv,"ITEM SPECIFIC Version B",OLD,FLEA,TICK,ON2,S,151,153,JOL,User,-,"How likely are you to correctly recall the second item in the pair?|Type your response on a scale from 0-100 and then press Enter.",Study/JOL,"Study Phase",3205,,,2468,2551,,,,100,1
5d5dc214a4dd6a0018af21da,wz3i7ckf4t,Emily_Honors_Thesis_Part_2,1,48,2020-08-29T11:10:41-07:00,38.243421077728,6,versionA_stim.csv,IS_JOLVersionB.csv,"ITEM SPECIFIC Version B",OLD,CHOP,CUT,ON2,F,107,170,JOL,User,-,"How likely are you to correctly recall the second item in the pair?|Type your response on a scale from 0-100 and then press Enter.",Study/JOL,"Study Phase",12316,,,3721,6779,,,,90,1
5d5dc214a4dd6a0018af21da,wz3i7ckf4t,Emily_Honors_Thesis_Part_2,1,49,2020-08-29T11:10:46-07:00,5.3075270652771,6,versionA_stim.csv,IS_JOLVersionB.csv,"ITEM SPECIFIC Version B",OLD,CHILL,COLD,ON2,F,114,163,JOL,User,-,"How likely are you to correctly recall the second item in the pair?|Type your response on a scale from 0-100 and then press Enter.",Study/JOL,"Study Phase",4614,,,3150,3355,,,,80,0.522
5d5dc214a4dd6a0018af21da,wz3i7ckf4t,Emily_Honors_Thesis_Part_2,1,50,2020-08-29T11:10:50-07:00,4.1780979633331,6,versionA_stim.csv,IS_JOLVersionB.csv,"ITEM SPECIFIC Version B",OLD,WATER,DRINK,ON2,S,143,116,JOL,User,-,"How likely are you to correctly recall the second item in the pair?|Type your response on a scale from 0-100 and then press Enter.",Study/JOL,"Study Phase",3665,,,2564,2759,,,,80,1
5d5dc214a4dd6a0018af21da,wz3i7ckf4t,Emily_Honors_Thesis_Part_2,1,51,2020-08-29T11:11:18-07:00,27.395407915115,6,versionA_stim.csv,IS_JOLVersionB.csv,"ITEM SPECIFIC Version B",OLD,SHOELACE,TIE,ON2,F,99,160,JOL,User,-,"How likely are you to correctly recall the second item in the pair?|Type your response on a scale from 0-100 and then press Enter.",Study/JOL,"Study Phase",21219,,,20311,20441,,,,90,1
5d5dc214a4dd6a0018af21da,wz3i7ckf4t,Emily_Honors_Thesis_Part_2,1,52,2020-08-29T11:11:26-07:00,7.7831110954285,6,versionA_stim.csv,IS_JOLVersionB.csv,"ITEM SPECIFIC Version B",OLD,ELEMENT,CARBON,ON2,S,141,175,JOL,User,-,"How likely are you to correctly recall the second item in the pair?|Type your response on a scale from 0-100 and then press Enter.",Study/JOL,"Study Phase",7101,,,6206,6369,,,,30,1
5d5dc214a4dd6a0018af21da,wz3i7ckf4t,Emily_Honors_Thesis_Part_2,1,53,2020-08-29T11:11:31-07:00,4.9831030368805,6,versionA_stim.csv,IS_JOLVersionB.csv,"ITEM SPECIFIC Version B",OLD,CAR,WINDSHIELD,ON2,B,117,155,JOL,User,-,"How likely are you to correctly recall the second item in the pair?|Type your response on a scale from 0-100 and then press Enter.",Study/JOL,"Study Phase",4359,,,3513,3665,,,,20,1
5d5dc214a4dd6a0018af21da,wz3i7ckf4t,Emily_Honors_Thesis_Part_2,1,54,2020-08-29T11:11:34-07:00,3.3518028259277,6,versionA_stim.csv,IS_JOLVersionB.csv,"ITEM SPECIFIC Version B",OLD,EXTENSION,LONG,ON2,F,96,139,JOL,User,-,"How likely are you to correctly recall the second item in the pair?|Type your response on a scale from 0-100 and then press Enter.",Study/JOL,"Study Phase",2824,,,2015,2015,,,,0,1
5d5dc214a4dd6a0018af21da,wz3i7ckf4t,Emily_Honors_Thesis_Part_2,1,55,2020-08-29T11:12:00-07:00,26.458380937576,6,versionA_stim.csv,IS_JOLVersionB.csv,"ITEM SPECIFIC Version B",OLD,RIGHTS,EQUAL,ON2,S,137,119,JOL,User,-,"How likely are you to correctly recall the second item in the pair?|Type your response on a scale from 0-100 and then press Enter.",Study/JOL,"Study Phase",6513,,,4965,5173,,,,50,1
5d5dc214a4dd6a0018af21da,wz3i7ckf4t,Emily_Honors_Thesis_Part_2,1,56,2020-08-29T11:12:12-07:00,11.08891916275,6,versionA_stim.csv,IS_JOLVersionB.csv,"ITEM SPECIFIC Version B",OLD,CAKE,CLOTHES,ON2,U,166,144,JOL,User,-,"How likely are you to correctly recall the second item in the pair?|Type your response on a scale from 0-100 and then press Enter.",Study/JOL,"Study Phase",4134,,,3079,3079,,,,0,1
5d5dc214a4dd6a0018af21da,wz3i7ckf4t,Emily_Honors_Thesis_Part_2,1,57,2020-08-29T11:12:17-07:00,5.2796590328217,6,versionA_stim.csv,IS_JOLVersionB.csv,"ITEM SPECIFIC Version B",OLD,DINE,EAT,ON2,F,111,108,JOL,User,-,"How likely are you to correctly recall the second item in the pair?|Type your response on a scale from 0-100 and then press Enter.",Study/JOL,"Study Phase",4733,,,3980,4144,,,,70,1
5d5dc214a4dd6a0018af21da,wz3i7ckf4t,Emily_Honors_Thesis_Part_2,1,58,2020-08-29T11:12:21-07:00,3.8626508712769,6,versionA_stim.csv,IS_JOLVersionB.csv,"ITEM SPECIFIC Version B",OLD,LOAN,SIGN,ON2,U,171,106,JOL,User,-,"How likely are you to correctly recall the second item in the pair?|Type your response on a scale from 0-100 and then press Enter.",Study/JOL,"Study Phase",2398,,,1774,1774,,,,0,1
5d5dc214a4dd6a0018af21da,wz3i7ckf4t,Emily_Honors_Thesis_Part_2,1,59,2020-08-29T11:12:32-07:00,11.24032998085,6,versionA_stim.csv,IS_JOLVersionB.csv,"ITEM SPECIFIC Version B",OLD,,,,,,0,Instruct,-,3,"Remember to focus on how the two items are unique while you study and make your ratings!",,CHECK2,10624,,,-1,-1,,,,,1
5d5dc214a4dd6a0018af21da,wz3i7ckf4t,Emily_Honors_Thesis_Part_2,1,60,2020-08-29T11:12:41-07:00,8.7755789756775,6,versionA_stim.csv,IS_JOLVersionB.csv,"ITEM SPECIFIC Version B",OLD,PLANE,AIRCRAFT,ON2,B,129,120,JOL,User,-,"How likely are you to correctly recall the second item in the pair?|Type your response on a scale from 0-100 and then press Enter.",Study/JOL,"Study Phase",8121,,,5538,6695,,,,100,1
5d5dc214a4dd6a0018af21da,wz3i7ckf4t,Emily_Honors_Thesis_Part_2,1,61,2020-08-29T11:12:47-07:00,6.3506550788879,6,versionA_stim.csv,IS_JOLVersionB.csv,"ITEM SPECIFIC Version B",OLD,LOUD,NOISE,ON2,S,152,141,JOL,User,-,"How likely are you to correctly recall the second item in the pair?|Type your response on a scale from 0-100 and then press Enter.",Study/JOL,"Study Phase",5848,,,4790,5201,,,,100,1
5d5dc214a4dd6a0018af21da,wz3i7ckf4t,Emily_Honors_Thesis_Part_2,1,62,2020-08-29T11:12:50-07:00,3.0910661220551,6,versionA_stim.csv,IS_JOLVersionB.csv,"ITEM SPECIFIC Version B",OLD,FUZZY,BANG,ON2,U,168,149,JOL,User,-,"How likely are you to correctly recall the second item in the pair?|Type your response on a scale from 0-100 and then press Enter.",Study/JOL,"Study Phase",2593,,,1906,1906,,,,0,1
5d5dc214a4dd6a0018af21da,wz3i7ckf4t,Emily_Honors_Thesis_Part_2,1,63,2020-08-29T11:12:54-07:00,4.1933159828186,6,versionA_stim.csv,IS_JOLVersionB.csv,"ITEM SPECIFIC Version B",OLD,WRIST,BRACELET,ON2,S,140,147,JOL,User,-,"How likely are you to correctly recall the second item in the pair?|Type your response on a scale from 0-100 and then press Enter.",Study/JOL,"Study Phase",3675,,,2850,3024,,,,70,1
5d5dc214a4dd6a0018af21da,wz3i7ckf4t,Emily_Honors_Thesis_Part_2,1,64,2020-08-29T11:12:57-07:00,3.0100409984589,6,versionA_stim.csv,IS_JOLVersionB.csv,"ITEM SPECIFIC Version B",OLD,MEAT,OBTAIN,ON2,U,161,142,JOL,User,-,"How likely are you to correctly recall the second item in the pair?|Type your response on a scale from 0-100 and then press Enter.",Study/JOL,"Study Phase",2492,,,2159,2159,,,,0,1
5d5dc214a4dd6a0018af21da,wz3i7ckf4t,Emily_Honors_Thesis_Part_2,1,65,2020-08-29T11:13:03-07:00,5.5648849010468,6,versionA_stim.csv,IS_JOLVersionB.csv,"ITEM SPECIFIC Version B",OLD,SAFETY,SEATBELT,ON2,S,147,157,JOL,User,-,"How likely are you to correctly recall the second item in the pair?|Type your response on a scale from 0-100 and then press Enter.",Study/JOL,"Study Phase",5074,,,4315,4450,,,,50,1
5d5dc214a4dd6a0018af21da,wz3i7ckf4t,Emily_Honors_Thesis_Part_2,1,66,2020-08-29T11:13:14-07:00,11.377023935318,6,versionA_stim.csv,IS_JOLVersionB.csv,"ITEM SPECIFIC Version B",OLD,LISTEN,FICTION,ON2,U,164,167,JOL,User,-,"How likely are you to correctly recall the second item in the pair?|Type your response on a scale from 0-100 and then press Enter.",Study/JOL,"Study Phase",2044,,,1638,1639,,,,0,1
5d5dc214a4dd6a0018af21da,wz3i7ckf4t,Emily_Honors_Thesis_Part_2,1,67,2020-08-29T11:13:17-07:00,3.1307480335236,6,versionA_stim.csv,IS_JOLVersionB.csv,"ITEM SPECIFIC Version B",OLD,KEYS,JOKE,ON2,U,165,114,JOL,User,-,"How likely are you to correctly recall the second item in the pair?|Type your response on a scale from 0-100 and then press Enter.",Study/JOL,"Study Phase",2498,,,1724,1724,,,,0,1
5d5dc214a4dd6a0018af21da,wz3i7ckf4t,Emily_Honors_Thesis_Part_2,1,68,2020-08-29T11:13:24-07:00,6.2947750091553,6,versionA_stim.csv,IS_JOLVersionB.csv,"ITEM SPECIFIC Version B",OLD,ADJOURN,END,ON2,F,101,137,JOL,User,-,"How likely are you to correctly recall the second item in the pair?|Type your response on a scale from 0-100 and then press Enter.",Study/JOL,"Study Phase",5796,,,4940,5137,,,,30,1
5d5dc214a4dd6a0018af21da,wz3i7ckf4t,Emily_Honors_Thesis_Part_2,1,69,2020-08-29T11:13:26-07:00,2.5837731361389,6,versionA_stim.csv,IS_JOLVersionB.csv,"ITEM SPECIFIC Version B",OLD,VEHICLE,CHARM,ON2,U,160,148,JOL,User,-,"How likely are you to correctly recall the second item in the pair?|Type your response on a scale from 0-100 and then press Enter.",Study/JOL,"Study Phase",1984,,,1593,1593,,,,0,1
5d5dc214a4dd6a0018af21da,wz3i7ckf4t,Emily_Honors_Thesis_Part_2,1,70,2020-08-29T11:13:36-07:00,9.4560928344727,6,versionA_stim.csv,IS_JOLVersionB.csv,"ITEM SPECIFIC Version B",OLD,BOTH,OUNCE,ON2,U,172,165,JOL,User,-,"How likely are you to correctly recall the second item in the pair?|Type your response on a scale from 0-100 and then press Enter.",Study/JOL,"Study Phase",7933,,,7303,7303,,,,0,1
5d5dc214a4dd6a0018af21da,wz3i7ckf4t,Emily_Honors_Thesis_Part_2,1,71,2020-08-29T11:14:35-07:00,58.822417974472,6,versionA_stim.csv,IS_JOLVersionB.csv,"ITEM SPECIFIC Version B",OLD,EVEN,REVENGE,ON2,B,122,122,JOL,User,-,"How likely are you to correctly recall the second item in the pair?|Type your response on a scale from 0-100 and then press Enter.",Study/JOL,"Study Phase",6690,,,5461,5737,,,,10,1
5d5dc214a4dd6a0018af21da,wz3i7ckf4t,Emily_Honors_Thesis_Part_2,1,72,2020-08-29T11:14:39-07:00,4.4305350780487,6,versionA_stim.csv,IS_JOLVersionB.csv,"ITEM SPECIFIC Version B",OLD,FURRY,DOG,ON2,F,102,168,JOL,User,-,"How likely are you to correctly recall the second item in the pair?|Type your response on a scale from 0-100 and then press Enter.",Study/JOL,"Study Phase",3899,,,2586,2796,,,,50,1
5d5dc214a4dd6a0018af21da,wz3i7ckf4t,Emily_Honors_Thesis_Part_2,1,73,2020-08-29T11:14:46-07:00,7.2330539226532,6,versionA_stim.csv,IS_JOLVersionB.csv,"ITEM SPECIFIC Version B",OLD,DETECTIVE,MYSTERY,ON2,F,100,127,JOL,User,-,"How likely are you to correctly recall the second item in the pair?|Type your response on a scale from 0-100 and then press Enter.",Study/JOL,"Study Phase",6749,,,5886,6142,,,,60,1
5d5dc214a4dd6a0018af21da,wz3i7ckf4t,Emily_Honors_Thesis_Part_2,1,74,2020-08-29T11:14:52-07:00,5.8686351776123,6,versionA_stim.csv,IS_JOLVersionB.csv,"ITEM SPECIFIC Version B",OLD,AFFECTION,LOVE,ON2,F,115,173,JOL,User,-,"How likely are you to correctly recall the second item in the pair?|Type your response on a scale from 0-100 and then press Enter.",Study/JOL,"Study Phase",5253,,,4365,4638,,,,50,1
5d5dc214a4dd6a0018af21da,wz3i7ckf4t,Emily_Honors_Thesis_Part_2,1,75,2020-08-29T11:14:57-07:00,5.102499961853,6,versionA_stim.csv,IS_JOLVersionB.csv,"ITEM SPECIFIC Version B",OLD,CRACKLE,ABLE,ON2,U,162,123,JOL,User,-,"How likely are you to correctly recall the second item in the pair?|Type your response on a scale from 0-100 and then press Enter.",Study/JOL,"Study Phase",4582,,,4034,4034,,,,0,1
5d5dc214a4dd6a0018af21da,wz3i7ckf4t,Emily_Honors_Thesis_Part_2,1,76,2020-08-29T11:15:03-07:00,5.7685589790344,6,versionA_stim.csv,IS_JOLVersionB.csv,"ITEM SPECIFIC Version B",OLD,BAD,VILLAIN,ON2,B,118,161,JOL,User,-,"How likely are you to correctly recall the second item in the pair?|Type your response on a scale from 0-100 and then press Enter.",Study/JOL,"Study Phase",5261,,,4442,4617,,,,45,1
5d5dc214a4dd6a0018af21da,wz3i7ckf4t,Emily_Honors_Thesis_Part_2,1,77,2020-08-29T11:15:09-07:00,5.5941920280457,6,versionA_stim.csv,IS_JOLVersionB.csv,"ITEM SPECIFIC Version B",OLD,CAT,PANTHER,ON2,B,126,113,JOL,User,-,"How likely are you to correctly recall the second item in the pair?|Type your response on a scale from 0-100 and then press Enter.",Study/JOL,"Study Phase",4972,,,4181,4389,,,,25,1
5d5dc214a4dd6a0018af21da,wz3i7ckf4t,Emily_Honors_Thesis_Part_2,1,78,2020-08-29T11:15:12-07:00,2.9791278839111,6,versionA_stim.csv,IS_JOLVersionB.csv,"ITEM SPECIFIC Version B",OLD,TEMPERATURE,MORNING,ON2,U,173,105,JOL,User,-,"How likely are you to correctly recall the second item in the pair?|Type your response on a scale from 0-100 and then press Enter.",Study/JOL,"Study Phase",2471,,,1662,1662,,,,0,1
5d5dc214a4dd6a0018af21da,wz3i7ckf4t,Emily_Honors_Thesis_Part_2,1,79,2020-08-29T11:15:15-07:00,3.3632199764252,6,versionA_stim.csv,IS_JOLVersionB.csv,"ITEM SPECIFIC Version B",OLD,MOAT,CLEAR,ON2,U,169,176,JOL,User,-,"How likely are you to correctly recall the second item in the pair?|Type your response on a scale from 0-100 and then press Enter.",Study/JOL,"Study Phase",2852,,,2484,2484,,,,0,1
5d5dc214a4dd6a0018af21da,wz3i7ckf4t,Emily_Honors_Thesis_Part_2,1,80,2020-08-29T11:15:24-07:00,9.4758841991425,6,versionA_stim.csv,IS_JOLVersionB.csv,"ITEM SPECIFIC Version B",OLD,BEST,FAVORITE,ON2,B,125,134,JOL,User,-,"How likely are you to correctly recall the second item in the pair?|Type your response on a scale from 0-100 and then press Enter.",Study/JOL,"Study Phase",8966,,,7949,8407,,,,50,1
5d5dc214a4dd6a0018af21da,wz3i7ckf4t,Emily_Honors_Thesis_Part_2,1,81,2020-08-29T11:15:29-07:00,4.5064358711243,6,versionA_stim.csv,IS_JOLVersionB.csv,"ITEM SPECIFIC Version B",OLD,FISH,SARDINE,ON2,B,130,124,JOL,User,-,"How likely are you to correctly recall the second item in the pair?|Type your response on a scale from 0-100 and then press Enter.",Study/JOL,"Study Phase",3986,,,3278,3468,,,,40,1
5d5dc214a4dd6a0018af21da,wz3i7ckf4t,Emily_Honors_Thesis_Part_2,1,82,2020-08-29T11:15:34-07:00,5.0360000133514,6,versionA_stim.csv,IS_JOLVersionB.csv,"ITEM SPECIFIC Version B",OLD,DOCUMENT,PAPER,ON2,F,109,103,JOL,User,-,"How likely are you to correctly recall the second item in the pair?|Type your response on a scale from 0-100 and then press Enter.",Study/JOL,"Study Phase",4535,,,3900,4069,,,,50,1
5d5dc214a4dd6a0018af21da,wz3i7ckf4t,Emily_Honors_Thesis_Part_2,1,83,2020-08-29T11:15:43-07:00,9.4038140773773,6,versionA_stim.csv,IS_JOLVersionB.csv,"ITEM SPECIFIC Version B",OLD,FRUIT,STRAWBERRY,ON2,B,124,111,JOL,User,-,"How likely are you to correctly recall the second item in the pair?|Type your response on a scale from 0-100 and then press Enter.",Study/JOL,"Study Phase",8899,,,8142,8347,,,,40,1
5d5dc214a4dd6a0018af21da,wz3i7ckf4t,Emily_Honors_Thesis_Part_2,1,84,2020-08-29T11:15:50-07:00,6.468878030777,6,versionA_stim.csv,IS_JOLVersionB.csv,"ITEM SPECIFIC Version B",OLD,FIGHT,BRAWL,ON2,B,135,101,JOL,User,-,"How likely are you to correctly recall the second item in the pair?|Type your response on a scale from 0-100 and then press Enter.",Study/JOL,"Study Phase",5990,,,5271,5424,,,,60,1
5d5dc214a4dd6a0018af21da,wz3i7ckf4t,Emily_Honors_Thesis_Part_2,1,85,2020-08-29T11:15:53-07:00,3.390909910202,6,versionA_stim.csv,IS_JOLVersionB.csv,"ITEM SPECIFIC Version B",OLD,MULE,DONKEY,ON2,F,108,109,JOL,User,-,"How likely are you to correctly recall the second item in the pair?|Type your response on a scale from 0-100 and then press Enter.",Study/JOL,"Study Phase",2893,,,2092,2213,,,,80,1
5d5dc214a4dd6a0018af21da,wz3i7ckf4t,Emily_Honors_Thesis_Part_2,1,86,2020-08-29T11:15:56-07:00,2.4423849582672,6,versionA_stim.csv,IS_JOLVersionB.csv,"ITEM SPECIFIC Version B",OLD,LEASE,TOIL,ON2,U,170,98,JOL,User,-,"How likely are you to correctly recall the second item in the pair?|Type your response on a scale from 0-100 and then press Enter.",Study/JOL,"Study Phase",1795,,,1453,1453,,,,0,1
5d5dc214a4dd6a0018af21da,wz3i7ckf4t,Emily_Honors_Thesis_Part_2,1,87,2020-08-29T11:15:59-07:00,3.6686410903931,6,versionA_stim.csv,IS_JOLVersionB.csv,"ITEM SPECIFIC Version B",OLD,LITTER,TRASH,ON2,F,103,152,JOL,User,-,"How likely are you to correctly recall the second item in the pair?|Type your response on a scale from 0-100 and then press Enter.",Study/JOL,"Study Phase",3162,,,2293,2447,,,,80,1
5d5dc214a4dd6a0018af21da,wz3i7ckf4t,Emily_Honors_Thesis_Part_2,1,88,2020-08-29T11:16:03-07:00,3.4259829521179,6,versionA_stim.csv,IS_JOLVersionB.csv,"ITEM SPECIFIC Version B",OLD,RAZOR,SHAVE,ON2,S,136,115,JOL,User,-,"How likely are you to correctly recall the second item in the pair?|Type your response on a scale from 0-100 and then press Enter.",Study/JOL,"Study Phase",2896,,,2141,2315,,,,70,1
5d5dc214a4dd6a0018af21da,wz3i7ckf4t,Emily_Honors_Thesis_Part_2,1,89,2020-08-29T11:16:27-07:00,23.885561943054,6,versionA_stim.csv,IS_JOLVersionB.csv,"ITEM SPECIFIC Version B",OLD,TANTRUM,TEMPER,ON2,S,154,112,JOL,User,-,"How likely are you to correctly recall the second item in the pair?|Type your response on a scale from 0-100 and then press Enter.",Study/JOL,"Study Phase",4099,,,3252,3615,,,,100,1
5d5dc214a4dd6a0018af21da,wz3i7ckf4t,Emily_Honors_Thesis_Part_2,1,90,2020-08-29T11:16:41-07:00,14.886294126511,6,versionA_stim.csv,IS_JOLVersionB.csv,"ITEM SPECIFIC Version B",OLD,CLUE,GAME,ON2,F,97,130,JOL,User,-,"How likely are you to correctly recall the second item in the pair?|Type your response on a scale from 0-100 and then press Enter.",Study/JOL,"Study Phase",9013,,,5747,8629,,,,2,1
5d5dc214a4dd6a0018af21da,wz3i7ckf4t,Emily_Honors_Thesis_Part_2,1,91,2020-08-29T11:16:44-07:00,2.6132957935333,6,versionA_stim.csv,IS_JOLVersionB.csv,"ITEM SPECIFIC Version B",OLD,STRETCH,CLOTH,ON2,U,157,143,JOL,User,-,"How likely are you to correctly recall the second item in the pair?|Type your response on a scale from 0-100 and then press Enter.",Study/JOL,"Study Phase",2106,,,1736,1736,,,,0,1
5d5dc214a4dd6a0018af21da,wz3i7ckf4t,Emily_Honors_Thesis_Part_2,1,92,2020-08-29T11:16:47-07:00,2.9871160984039,6,versionA_stim.csv,IS_JOLVersionB.csv,"ITEM SPECIFIC Version B",OLD,MIRROR,CHILDREN,ON2,U,174,131,JOL,User,-,"How likely are you to correctly recall the second item in the pair?|Type your response on a scale from 0-100 and then press Enter.",Study/JOL,"Study Phase",2311,,,2004,2004,,,,0,1
5d5dc214a4dd6a0018af21da,wz3i7ckf4t,Emily_Honors_Thesis_Part_2,1,93,2020-08-29T11:16:51-07:00,4.4077000617981,6,versionA_stim.csv,IS_JOLVersionB.csv,"ITEM SPECIFIC Version B",OLD,GLASS,BREAKABLE,ON2,B,127,126,JOL,User,-,"How likely are you to correctly recall the second item in the pair?|Type your response on a scale from 0-100 and then press Enter.",Study/JOL,"Study Phase",3947,,,2445,2445,,,,5,1
5d5dc214a4dd6a0018af21da,wz3i7ckf4t,Emily_Honors_Thesis_Part_2,1,94,2020-08-29T11:16:56-07:00,4.0973379611969,6,versionA_stim.csv,IS_JOLVersionB.csv,"ITEM SPECIFIC Version B",OLD,BASEBALL,LEAGUE,ON2,B,131,171,JOL,User,-,"How likely are you to correctly recall the second item in the pair?|Type your response on a scale from 0-100 and then press Enter.",Study/JOL,"Study Phase",3589,,,2767,2944,,,,10,1
5d5dc214a4dd6a0018af21da,wz3i7ckf4t,Emily_Honors_Thesis_Part_2,1,95,2020-08-29T11:16:58-07:00,2.6807570457458,6,versionA_stim.csv,IS_JOLVersionB.csv,"ITEM SPECIFIC Version B",OLD,MASON,JAR,ON2,S,138,162,JOL,User,-,"How likely are you to correctly recall the second item in the pair?|Type your response on a scale from 0-100 and then press Enter.",Study/JOL,"Study Phase",2196,,,1935,1935,,,,0,1
5d5dc214a4dd6a0018af21da,wz3i7ckf4t,Emily_Honors_Thesis_Part_2,1,96,2020-08-29T11:17:01-07:00,2.5337429046631,6,versionA_stim.csv,IS_JOLVersionB.csv,"ITEM SPECIFIC Version B",OLD,MAIN,SCAR,ON2,U,175,146,JOL,User,-,"How likely are you to correctly recall the second item in the pair?|Type your response on a scale from 0-100 and then press Enter.",Study/JOL,"Study Phase",1978,,,1696,1696,,,,0,1
5d5dc214a4dd6a0018af21da,wz3i7ckf4t,Emily_Honors_Thesis_Part_2,1,97,2020-08-29T11:17:05-07:00,4.5421221256256,6,versionA_stim.csv,IS_JOLVersionB.csv,"ITEM SPECIFIC Version B",OLD,THREAD,THIMBLE,ON2,B,121,128,JOL,User,-,"How likely are you to correctly recall the second item in the pair?|Type your response on a scale from 0-100 and then press Enter.",Study/JOL,"Study Phase",4044,,,3470,3470,,,,0,1
5d5dc214a4dd6a0018af21da,wz3i7ckf4t,Emily_Honors_Thesis_Part_2,1,98,2020-08-29T11:18:05-07:00,60.003180980682,6,versionA_stim.csv,IS_JOLVersionB.csv,"ITEM SPECIFIC Version B",OLD,GONE,AWAY,ON2,S,142,150,JOL,User,-,"How likely are you to correctly recall the second item in the pair?|Type your response on a scale from 0-100 and then press Enter.",Study/JOL,"Study Phase",5971,,,5111,5328,,,,75,1
5d5dc214a4dd6a0018af21da,wz3i7ckf4t,Emily_Honors_Thesis_Part_2,1,99,2020-08-29T11:18:09-07:00,3.4687900543213,6,versionA_stim.csv,IS_JOLVersionB.csv,"ITEM SPECIFIC Version B",OLD,TURN,FLIP,ON2,B,116,104,JOL,User,-,"How likely are you to correctly recall the second item in the pair?|Type your response on a scale from 0-100 and then press Enter.",Study/JOL,"Study Phase",2931,,,2191,2345,,,,50,1
5d5dc214a4dd6a0018af21da,wz3i7ckf4t,Emily_Honors_Thesis_Part_2,1,100,2020-08-29T11:18:12-07:00,3.250953912735,6,versionA_stim.csv,IS_JOLVersionB.csv,"ITEM SPECIFIC Version B",OLD,PHONE,COMMUNICATION,ON2,S,149,172,JOL,User,-,"How likely are you to correctly recall the second item in the pair?|Type your response on a scale from 0-100 and then press Enter.",Study/JOL,"Study Phase",2748,,,2050,2219,,,,40,1
5d5dc214a4dd6a0018af21da,wz3i7ckf4t,Emily_Honors_Thesis_Part_2,1,101,2020-08-29T11:18:17-07:00,4.4876499176025,6,versionA_stim.csv,IS_JOLVersionB.csv,"ITEM SPECIFIC Version B",OLD,TRUTH,LIE,ON2,S,148,166,JOL,User,-,"How likely are you to correctly recall the second item in the pair?|Type your response on a scale from 0-100 and then press Enter.",Study/JOL,"Study Phase",4001,,,3280,3462,,,,80,1
5d5dc214a4dd6a0018af21da,wz3i7ckf4t,Emily_Honors_Thesis_Part_2,1,102,2020-08-29T11:18:21-07:00,4.0025041103363,6,versionA_stim.csv,IS_JOLVersionB.csv,"ITEM SPECIFIC Version B",OLD,FEUD,FIGHT,ON2,F,113,169,JOL,User,-,"How likely are you to correctly recall the second item in the pair?|Type your response on a scale from 0-100 and then press Enter.",Study/JOL,"Study Phase",3446,,,2795,2998,,,,50,1
5d5dc214a4dd6a0018af21da,wz3i7ckf4t,Emily_Honors_Thesis_Part_2,1,103,2020-08-29T11:18:27-07:00,6.5268750190735,6,versionA_stim.csv,IS_JOLVersionB.csv,"ITEM SPECIFIC Version B",OLD,EARTH,GROUND,ON2,S,144,140,JOL,User,-,"How likely are you to correctly recall the second item in the pair?|Type your response on a scale from 0-100 and then press Enter.",Study/JOL,"Study Phase",6023,,,4958,5282,,,,70,1
5d5dc214a4dd6a0018af21da,wz3i7ckf4t,Emily_Honors_Thesis_Part_2,1,104,2020-08-29T11:18:32-07:00,5.2339088916779,6,versionA_stim.csv,IS_JOLVersionB.csv,"ITEM SPECIFIC Version B",OLD,MONEY,BANKER,ON2,B,132,99,JOL,User,-,"How likely are you to correctly recall the second item in the pair?|Type your response on a scale from 0-100 and then press Enter.",Study/JOL,"Study Phase",4612,,,4233,4234,,,,0,1
5d5dc214a4dd6a0018af21da,wz3i7ckf4t,Emily_Honors_Thesis_Part_2,1,105,2020-08-29T11:18:43-07:00,10.651057004929,6,versionA_stim.csv,IS_JOLVersionB.csv,"ITEM SPECIFIC Version B",OLD,CAMP,ADVENTURE,Buffer3,Buffer,95,181,JOL,User,-,"How likely are you to correctly recall the second item in the pair?|Type your response on a scale from 0-100 and then press Enter.",Study/JOL,BUFFER2,3070,,,2457,2606,,,,10,1
5d5dc214a4dd6a0018af21da,wz3i7ckf4t,Emily_Honors_Thesis_Part_2,1,106,2020-08-29T11:18:46-07:00,2.9366779327393,6,versionA_stim.csv,IS_JOLVersionB.csv,"ITEM SPECIFIC Version B",OLD,NOODLE,STRING,Buffer3,Buffer,92,177,JOL,User,-,"How likely are you to correctly recall the second item in the pair?|Type your response on a scale from 0-100 and then press Enter.",Study/JOL,BUFFER2,2293,,,1988,1988,,,,0,1
5d5dc214a4dd6a0018af21da,wz3i7ckf4t,Emily_Honors_Thesis_Part_2,1,107,2020-08-29T11:18:50-07:00,4.3605301380157,6,versionA_stim.csv,IS_JOLVersionB.csv,"ITEM SPECIFIC Version B",OLD,DAYS,WEAKS,Buffer3,Buffer,176,180,JOL,User,-,"How likely are you to correctly recall the second item in the pair?|Type your response on a scale from 0-100 and then press Enter.",Study/JOL,BUFFER2,3874,,,3577,3577,,,,0,1
5d5dc214a4dd6a0018af21da,wz3i7ckf4t,Emily_Honors_Thesis_Part_2,1,108,2020-08-29T11:18:55-07:00,4.3636019229889,6,versionA_stim.csv,IS_JOLVersionB.csv,"ITEM SPECIFIC Version B",OLD,OCTOBER,SPOOKY,Buffer3,Buffer,180,178,JOL,User,-,"How likely are you to correctly recall the second item in the pair?|Type your response on a scale from 0-100 and then press Enter.",Study/JOL,BUFFER2,3770,,,3456,3457,,,,0,1
5d5dc214a4dd6a0018af21da,wz3i7ckf4t,Emily_Honors_Thesis_Part_2,1,109,2020-08-29T11:18:58-07:00,3.8265631198883,6,versionA_stim.csv,IS_JOLVersionB.csv,"ITEM SPECIFIC Version B",OLD,SPRING,MARCH,Buffer3,Buffer,179,179,JOL,User,-,"How likely are you to correctly recall the second item in the pair?|Type your response on a scale from 0-100 and then press Enter.",Study/JOL,BUFFER2,3329,,,2714,2714,,,,0,1
5d5dc214a4dd6a0018af21da,wz3i7ckf4t,Emily_Honors_Thesis_Part_2,1,110,2020-08-29T11:19:02-07:00,3.8023059368134,6,versionA_stim.csv,IS_JOLVersionB.csv,"ITEM SPECIFIC Version B",OLD,,,,,,0,Instruct,User,-,"You have completed this section. Please press Enter.",Filler_Instruction,Instruct5,3294,,,-1,-1,,,,,1
5d5dc214a4dd6a0018af21da,wz3i7ckf4t,Emily_Honors_Thesis_Part_2,1,111,2020-08-29T11:19:39-07:00,36.591888904572,6,versionA_stim.csv,IS_JOLVersionB.csv,"ITEM SPECIFIC Version B",OLD,,,,,,0,FreeRecall,-,10,"What were you supposed to focus on while you studied each pair? (Hint: Think back to the instructions). Type your answer in the space below.",,CHECK3,12005,"how each word is unique",0,3985,8568,0,0,,,1
5d5dc214a4dd6a0018af21da,wz3i7ckf4t,Emily_Honors_Thesis_Part_2,1,112,2020-08-29T11:19:42-07:00,2.6979310512543,6,versionA_stim.csv,IS_JOLVersionB.csv,"ITEM SPECIFIC Version B",OLD,,,,,,0,Instruct,User,-,"You have completed this section. Please press Enter.",Filler_Instruction,Instruct2,2039,,,-1,-1,,,,,1
5d5dc214a4dd6a0018af21da,wz3i7ckf4t,Emily_Honors_Thesis_Part_2,1,113,2020-08-29T11:21:46-07:00,124.37195611,6,versionA_stim.csv,IS_JOLVersionB.csv,"ITEM SPECIFIC Version B",OLD,,,,,,0,FreeRecall,120,120,"Please list the 50 US states in alphabetical order. The task will automatically advance to the next screen after two minutes.",,Filler1,120005,"I dont live in the US, I have very knowledge of what the states are without googling. califor kansas new jersey new mexico new york ohio texas washington",0,10095,119236,0,0,,,1
5d5dc214a4dd6a0018af21da,wz3i7ckf4t,Emily_Honors_Thesis_Part_2,1,114,2020-08-29T11:21:58-07:00,12.041064977646,6,versionA_stim.csv,IS_JOLVersionB.csv,"ITEM SPECIFIC Version B",OLD,,,,,,0,Instruct,-,10,"You will now be presented with the first word from each of the previously studied item pairs. Please type the missing word. If you do not know the word, you may guess or press Enter to skip forward to the next pair.",,Instruct3,11180,,,-1,-1,,,,,1
5d5dc214a4dd6a0018af21da,wz3i7ckf4t,Emily_Honors_Thesis_Part_2,1,115,2020-08-29T11:22:03-07:00,4.569995880127,6,versionA_stim.csv,IS_JOLVersionB.csv,"ITEM SPECIFIC Version B",OLD,LITTER,TRASH,ON2,F,103,152,Test,User,-,,Recall,Recall1,3906,trash,100,1974,2724,1,1,,,1
5d5dc214a4dd6a0018af21da,wz3i7ckf4t,Emily_Honors_Thesis_Part_2,1,116,2020-08-29T11:22:12-07:00,9.7373731136322,6,versionA_stim.csv,IS_JOLVersionB.csv,"ITEM SPECIFIC Version B",OLD,MASON,JAR,ON2,S,138,162,Test,User,-,,Recall,Recall1,2585,jar,100,1429,1826,1,1,,,1
5d5dc214a4dd6a0018af21da,wz3i7ckf4t,Emily_Honors_Thesis_Part_2,1,117,2020-08-29T11:22:21-07:00,8.6592919826508,6,versionA_stim.csv,IS_JOLVersionB.csv,"ITEM SPECIFIC Version B",OLD,GLASS,BREAKABLE,ON2,B,127,126,Test,User,-,,Recall,Recall1,7929,breakable,100,5174,7322,1,1,,,1
5d5dc214a4dd6a0018af21da,wz3i7ckf4t,Emily_Honors_Thesis_Part_2,1,118,2020-08-29T11:22:25-07:00,3.7035038471222,6,versionA_stim.csv,IS_JOLVersionB.csv,"ITEM SPECIFIC Version B",OLD,TANTRUM,TEMPER,ON2,S,154,112,Test,User,-,,Recall,Recall1,3193,temper,100,1769,2579,1,1,,,1
5d5dc214a4dd6a0018af21da,wz3i7ckf4t,Emily_Honors_Thesis_Part_2,1,119,2020-08-29T11:22:29-07:00,4.7652380466461,6,versionA_stim.csv,IS_JOLVersionB.csv,"ITEM SPECIFIC Version B",OLD,DETECTIVE,MYSTERY,ON2,F,100,127,Test,User,-,,Recall,Recall1,4212,mystery,100,1901,3848,1,1,,,1
5d5dc214a4dd6a0018af21da,wz3i7ckf4t,Emily_Honors_Thesis_Part_2,1,120,2020-08-29T11:22:33-07:00,3.7355000972748,6,versionA_stim.csv,IS_JOLVersionB.csv,"ITEM SPECIFIC Version B",OLD,JUSTICE,MAROON,ON2,U,156,136,Test,User,-,,Recall,Recall1,3238,maroon,100,1722,2584,1,1,,,1
5d5dc214a4dd6a0018af21da,wz3i7ckf4t,Emily_Honors_Thesis_Part_2,1,121,2020-08-29T11:22:59-07:00,25.946491956711,6,versionA_stim.csv,IS_JOLVersionB.csv,"ITEM SPECIFIC Version B",OLD,LEASE,TOIL,ON2,U,170,98,Test,User,-,,Recall,Recall1,6141,sign,25,4214,4638,0,0,,,1
5d5dc214a4dd6a0018af21da,wz3i7ckf4t,Emily_Honors_Thesis_Part_2,1,122,2020-08-29T11:23:03-07:00,4.1035950183868,6,versionA_stim.csv,IS_JOLVersionB.csv,"ITEM SPECIFIC Version B",OLD,CACTUS,PLANT,ON2,F,98,174,Test,User,-,,Recall,Recall1,3466,plant,100,2206,2860,1,1,,,1
5d5dc214a4dd6a0018af21da,wz3i7ckf4t,Emily_Honors_Thesis_Part_2,1,123,2020-08-29T11:23:27-07:00,23.885106086731,6,versionA_stim.csv,IS_JOLVersionB.csv,"ITEM SPECIFIC Version B",OLD,CLUE,GAME,ON2,F,97,130,Test,User,-,,Recall,Recall1,4074,game,100,2075,3748,1,1,,,1
5d5dc214a4dd6a0018af21da,wz3i7ckf4t,Emily_Honors_Thesis_Part_2,1,124,2020-08-29T11:23:34-07:00,6.5313940048218,6,versionA_stim.csv,IS_JOLVersionB.csv,"ITEM SPECIFIC Version B",OLD,RAZOR,SHAVE,ON2,S,136,115,Test,User,-,,Recall,Recall1,5718,SHAVE,100,4633,5068,1,1,,,1
5d5dc214a4dd6a0018af21da,wz3i7ckf4t,Emily_Honors_Thesis_Part_2,1,125,2020-08-29T11:24:38-07:00,64.458904981613,6,versionA_stim.csv,IS_JOLVersionB.csv,"ITEM SPECIFIC Version B",OLD,VEHICLE,CHARM,ON2,U,160,148,Test,User,-,,Recall,Recall1,8110,CAR,75,6978,7293,0,1,,,1
5d5dc214a4dd6a0018af21da,wz3i7ckf4t,Emily_Honors_Thesis_Part_2,1,126,2020-08-29T11:24:42-07:00,3.8700978755951,6,versionA_stim.csv,IS_JOLVersionB.csv,"ITEM SPECIFIC Version B",OLD,CANDLE,WAX,ON2,S,139,154,Test,User,-,,Recall,Recall1,3334,WAX,100,2339,2756,1,1,,,1
5d5dc214a4dd6a0018af21da,wz3i7ckf4t,Emily_Honors_Thesis_Part_2,1,127,2020-08-29T11:24:48-07:00,6.2140100002289,6,versionA_stim.csv,IS_JOLVersionB.csv,"ITEM SPECIFIC Version B",OLD,FISH,SARDINE,ON2,B,130,124,Test,User,-,,Recall,Recall1,5718,SARDINE,100,1919,5119,1,1,,,1
5d5dc214a4dd6a0018af21da,wz3i7ckf4t,Emily_Honors_Thesis_Part_2,1,128,2020-08-29T11:24:51-07:00,2.9878180027008,6,versionA_stim.csv,IS_JOLVersionB.csv,"ITEM SPECIFIC Version B",OLD,TRUTH,LIE,ON2,S,148,166,Test,User,-,,Recall,Recall1,2476,LIE,100,1786,2129,1,1,,,1
5d5dc214a4dd6a0018af21da,wz3i7ckf4t,Emily_Honors_Thesis_Part_2,1,129,2020-08-29T11:25:04-07:00,12.910658121109,6,versionA_stim.csv,IS_JOLVersionB.csv,"ITEM SPECIFIC Version B",OLD,MAIN,SCAR,ON2,U,175,146,Test,User,-,,Recall,Recall1,12328,MEAL,25,11440,11939,0,0,,,1
5d5dc214a4dd6a0018af21da,wz3i7ckf4t,Emily_Honors_Thesis_Part_2,1,130,2020-08-29T11:25:09-07:00,4.8220458030701,6,versionA_stim.csv,IS_JOLVersionB.csv,"ITEM SPECIFIC Version B",OLD,SHEARS,SCISSORS,ON2,F,112,110,Test,User,-,,Recall,Recall1,4236,SCISSORS,100,1342,3887,1,1,,,1
5d5dc214a4dd6a0018af21da,wz3i7ckf4t,Emily_Honors_Thesis_Part_2,1,131,2020-08-29T11:25:12-07:00,3.4565842151642,6,versionA_stim.csv,IS_JOLVersionB.csv,"ITEM SPECIFIC Version B",OLD,EARTH,GROUND,ON2,S,144,140,Test,User,-,,Recall,Recall1,2920,GROUND,100,1472,2355,1,1,,,1
5d5dc214a4dd6a0018af21da,wz3i7ckf4t,Emily_Honors_Thesis_Part_2,1,132,2020-08-29T11:25:16-07:00,4.0485599040985,6,versionA_stim.csv,IS_JOLVersionB.csv,"ITEM SPECIFIC Version B",OLD,ADJOURN,END,ON2,F,101,137,Test,User,-,,Recall,Recall1,2512,END,100,1967,2293,1,1,,,1
5d5dc214a4dd6a0018af21da,wz3i7ckf4t,Emily_Honors_Thesis_Part_2,1,133,2020-08-29T11:25:21-07:00,4.3239889144897,6,versionA_stim.csv,IS_JOLVersionB.csv,"ITEM SPECIFIC Version B",OLD,DRIVER,CAR,ON2,F,106,100,Test,User,-,,Recall,Recall1,2800,CAR,100,1927,2447,1,1,,,1
5d5dc214a4dd6a0018af21da,wz3i7ckf4t,Emily_Honors_Thesis_Part_2,1,134,2020-08-29T11:25:34-07:00,13.114358186722,6,versionA_stim.csv,IS_JOLVersionB.csv,"ITEM SPECIFIC Version B",OLD,FUZZY,BANG,ON2,U,168,149,Test,User,-,,Recall,Recall1,12488,DOG,28.571428571429,11677,12245,0,0,,,1
5d5dc214a4dd6a0018af21da,wz3i7ckf4t,Emily_Honors_Thesis_Part_2,1,135,2020-08-29T11:25:41-07:00,6.7213180065155,6,versionA_stim.csv,IS_JOLVersionB.csv,"ITEM SPECIFIC Version B",OLD,BIRD,PENGUIN,ON2,B,119,135,Test,User,-,,Recall,Recall1,6163,PENGUIN,100,3793,5822,1,1,,,1
5d5dc214a4dd6a0018af21da,wz3i7ckf4t,Emily_Honors_Thesis_Part_2,1,136,2020-08-29T11:25:44-07:00,3.5835289955139,6,versionA_stim.csv,IS_JOLVersionB.csv,"ITEM SPECIFIC Version B",OLD,ELEMENT,CARBON,ON2,S,141,175,Test,User,-,,Recall,Recall1,3088,CARBON,100,1550,2622,1,1,,,1
5d5dc214a4dd6a0018af21da,wz3i7ckf4t,Emily_Honors_Thesis_Part_2,1,137,2020-08-29T11:25:48-07:00,3.5707819461823,6,versionA_stim.csv,IS_JOLVersionB.csv,"ITEM SPECIFIC Version B",OLD,DOCUMENT,PAPER,ON2,F,109,103,Test,User,-,,Recall,Recall1,2920,PAPER,100,1332,1970,1,1,,,1
5d5dc214a4dd6a0018af21da,wz3i7ckf4t,Emily_Honors_Thesis_Part_2,1,138,2020-08-29T11:25:57-07:00,9.4233109951019,6,versionA_stim.csv,IS_JOLVersionB.csv,"ITEM SPECIFIC Version B",OLD,BAD,VILLAIN,ON2,B,118,161,Test,User,-,,Recall,Recall1,8918,GOOD,0,7570,7992,0,0,,,1
5d5dc214a4dd6a0018af21da,wz3i7ckf4t,Emily_Honors_Thesis_Part_2,1,139,2020-08-29T11:26:02-07:00,4.4000370502472,6,versionA_stim.csv,IS_JOLVersionB.csv,"ITEM SPECIFIC Version B",OLD,FIGHT,BRAWL,ON2,B,135,101,Test,User,-,,Recall,Recall1,3896,BRAWL,100,2143,3337,1,1,,,1
5d5dc214a4dd6a0018af21da,wz3i7ckf4t,Emily_Honors_Thesis_Part_2,1,140,2020-08-29T11:26:11-07:00,9.3541479110718,6,versionA_stim.csv,IS_JOLVersionB.csv,"ITEM SPECIFIC Version B",OLD,SHOELACE,TIE,ON2,F,99,160,Test,User,-,,Recall,Recall1,2390,TIE,100,1390,1846,1,1,,,1
5d5dc214a4dd6a0018af21da,wz3i7ckf4t,Emily_Honors_Thesis_Part_2,1,141,2020-08-29T11:26:15-07:00,4.5385808944702,6,versionA_stim.csv,IS_JOLVersionB.csv,"ITEM SPECIFIC Version B",OLD,CHILL,COLD,ON2,F,114,163,Test,User,-,,Recall,Recall1,3799,COLD,100,2451,3409,1,1,,,1
5d5dc214a4dd6a0018af21da,wz3i7ckf4t,Emily_Honors_Thesis_Part_2,1,142,2020-08-29T11:26:20-07:00,4.9168181419373,6,versionA_stim.csv,IS_JOLVersionB.csv,"ITEM SPECIFIC Version B",OLD,STAR,ACTRESS,ON2,B,120,102,Test,User,-,,Recall,Recall1,4398,ACTRESS,100,2838,4220,1,1,,,1
5d5dc214a4dd6a0018af21da,wz3i7ckf4t,Emily_Honors_Thesis_Part_2,1,143,2020-08-29T11:26:41-07:00,20.817451953888,6,versionA_stim.csv,IS_JOLVersionB.csv,"ITEM SPECIFIC Version B",OLD,NAME,HATE,ON2,U,167,158,Test,User,-,,Recall,Recall1,15152,DUNNO,0,13068,14707,0,0,,,1
5d5dc214a4dd6a0018af21da,wz3i7ckf4t,Emily_Honors_Thesis_Part_2,1,144,2020-08-29T11:26:47-07:00,5.4399139881134,6,versionA_stim.csv,IS_JOLVersionB.csv,"ITEM SPECIFIC Version B",OLD,SAFETY,SEATBELT,ON2,S,147,157,Test,User,-,,Recall,Recall1,4748,SEATBELT,100,2234,4304,1,1,,,1
5d5dc214a4dd6a0018af21da,wz3i7ckf4t,Emily_Honors_Thesis_Part_2,1,145,2020-08-29T11:26:50-07:00,3.731810092926,6,versionA_stim.csv,IS_JOLVersionB.csv,"ITEM SPECIFIC Version B",OLD,SHELL,SHAKE,ON2,U,163,133,Test,User,-,,Recall,Recall1,3208,SHAKE,100,2181,2860,1,1,,,1
5d5dc214a4dd6a0018af21da,wz3i7ckf4t,Emily_Honors_Thesis_Part_2,1,146,2020-08-29T11:26:56-07:00,5.9630448818207,6,versionA_stim.csv,IS_JOLVersionB.csv,"ITEM SPECIFIC Version B",OLD,FRUIT,STRAWBERRY,ON2,B,124,111,Test,User,-,,Recall,Recall1,5450,STRAWBERRY,100,2260,4910,1,1,,,1
5d5dc214a4dd6a0018af21da,wz3i7ckf4t,Emily_Honors_Thesis_Part_2,1,147,2020-08-29T11:26:59-07:00,2.8192250728607,6,versionA_stim.csv,IS_JOLVersionB.csv,"ITEM SPECIFIC Version B",OLD,ROD,REEL,ON2,S,150,117,Test,User,-,,Recall,Recall1,2171,REEL,100,1271,1757,1,1,,,1
5d5dc214a4dd6a0018af21da,wz3i7ckf4t,Emily_Honors_Thesis_Part_2,1,148,2020-08-29T11:27:08-07:00,9.1309728622437,6,versionA_stim.csv,IS_JOLVersionB.csv,"ITEM SPECIFIC Version B",OLD,HONEST,TRUTHFUL,ON2,B,133,129,Test,User,-,,Recall,Recall1,8604,TRUTHFUL,100,6311,8338,1,1,,,1
5d5dc214a4dd6a0018af21da,wz3i7ckf4t,Emily_Honors_Thesis_Part_2,1,149,2020-08-29T11:28:02-07:00,53.679197072983,6,versionA_stim.csv,IS_JOLVersionB.csv,"ITEM SPECIFIC Version B",OLD,CHERRY,RED,ON2,F,104,121,Test,User,-,,Recall,Recall1,2321,RED,100,1728,2006,1,1,,,1
5d5dc214a4dd6a0018af21da,wz3i7ckf4t,Emily_Honors_Thesis_Part_2,1,150,2020-08-29T11:28:23-07:00,20.624053955078,6,versionA_stim.csv,IS_JOLVersionB.csv,"ITEM SPECIFIC Version B",OLD,CAKE,CLOTHES,ON2,U,166,144,Test,User,-,,Recall,Recall1,20032,CUP,20,18831,19518,0,0,,,1
5d5dc214a4dd6a0018af21da,wz3i7ckf4t,Emily_Honors_Thesis_Part_2,1,151,2020-08-29T11:28:25-07:00,2.9298341274261,6,versionA_stim.csv,IS_JOLVersionB.csv,"ITEM SPECIFIC Version B",OLD,SUN,TAN,ON2,S,155,107,Test,User,-,,Recall,Recall1,2288,TAN,100,1552,2008,1,1,,,1
5d5dc214a4dd6a0018af21da,wz3i7ckf4t,Emily_Honors_Thesis_Part_2,1,152,2020-08-29T11:28:30-07:00,4.6637029647827,6,versionA_stim.csv,IS_JOLVersionB.csv,"ITEM SPECIFIC Version B",OLD,POP,BALLOON,ON2,B,123,138,Test,User,-,,Recall,Recall1,4155,BALLOON,100,2421,3607,1,1,,,1
5d5dc214a4dd6a0018af21da,wz3i7ckf4t,Emily_Honors_Thesis_Part_2,1,153,2020-08-29T11:28:33-07:00,2.5132060050964,6,versionA_stim.csv,IS_JOLVersionB.csv,"ITEM SPECIFIC Version B",OLD,AFFECTION,LOVE,ON2,F,115,173,Test,User,-,,Recall,Recall1,2014,LOVE,100,1153,1765,1,1,,,1
5d5dc214a4dd6a0018af21da,wz3i7ckf4t,Emily_Honors_Thesis_Part_2,1,154,2020-08-29T11:28:56-07:00,23.689723968506,6,versionA_stim.csv,IS_JOLVersionB.csv,"ITEM SPECIFIC Version B",OLD,FURRY,DOG,ON2,F,102,168,Test,User,-,,Recall,Recall1,3864,DOG,100,3191,3444,1,1,,,1
5d5dc214a4dd6a0018af21da,wz3i7ckf4t,Emily_Honors_Thesis_Part_2,1,155,2020-08-29T11:29:00-07:00,4.1352970600128,6,versionA_stim.csv,IS_JOLVersionB.csv,"ITEM SPECIFIC Version B",OLD,EXTENSION,LONG,ON2,F,96,139,Test,User,-,,Recall,Recall1,3418,LONG,100,2231,2748,1,1,,,1
5d5dc214a4dd6a0018af21da,wz3i7ckf4t,Emily_Honors_Thesis_Part_2,1,156,2020-08-29T11:29:08-07:00,7.8780188560486,6,versionA_stim.csv,IS_JOLVersionB.csv,"ITEM SPECIFIC Version B",OLD,LISTEN,FICTION,ON2,U,164,167,Test,User,-,,Recall,Recall1,7187,SOUND,33.333333333333,6156,6852,0,0,,,1
5d5dc214a4dd6a0018af21da,wz3i7ckf4t,Emily_Honors_Thesis_Part_2,1,157,2020-08-29T11:30:26-07:00,77.996400117874,6,versionA_stim.csv,IS_JOLVersionB.csv,"ITEM SPECIFIC Version B",OLD,KEYS,JOKE,ON2,U,165,114,Test,User,-,,Recall,Recall1,10256,SAFE,25,7035,9878,0,0,,,1
5d5dc214a4dd6a0018af21da,wz3i7ckf4t,Emily_Honors_Thesis_Part_2,1,158,2020-08-29T11:30:30-07:00,3.8437490463257,6,versionA_stim.csv,IS_JOLVersionB.csv,"ITEM SPECIFIC Version B",OLD,INCENSE,SMELL,ON2,F,110,125,Test,User,-,,Recall,Recall1,3176,SMELL,100,1656,2941,1,1,,,1
5d5dc214a4dd6a0018af21da,wz3i7ckf4t,Emily_Honors_Thesis_Part_2,1,159,2020-08-29T11:30:34-07:00,3.7499890327454,6,versionA_stim.csv,IS_JOLVersionB.csv,"ITEM SPECIFIC Version B",OLD,DEAD,COFFIN,ON2,B,128,118,Test,User,-,,Recall,Recall1,3224,COFFIN,100,1970,2620,1,1,,,1
5d5dc214a4dd6a0018af21da,wz3i7ckf4t,Emily_Honors_Thesis_Part_2,1,160,2020-08-29T11:31:00-07:00,25.581972837448,6,versionA_stim.csv,IS_JOLVersionB.csv,"ITEM SPECIFIC Version B",OLD,EVEN,REVENGE,ON2,B,122,122,Test,User,-,,Recall,Recall1,5748,REVENGE,100,3097,5505,1,1,,,1
5d5dc214a4dd6a0018af21da,wz3i7ckf4t,Emily_Honors_Thesis_Part_2,1,161,2020-08-29T11:31:11-07:00,11.345525979996,6,versionA_stim.csv,IS_JOLVersionB.csv,"ITEM SPECIFIC Version B",OLD,CHOP,CUT,ON2,F,107,170,Test,User,-,,Recall,Recall1,5481,CUT,100,2551,2972,1,1,,,1
5d5dc214a4dd6a0018af21da,wz3i7ckf4t,Emily_Honors_Thesis_Part_2,1,162,2020-08-29T11:31:16-07:00,5.1874389648438,6,versionA_stim.csv,IS_JOLVersionB.csv,"ITEM SPECIFIC Version B",OLD,FEUD,FIGHT,ON2,F,113,169,Test,User,-,,Recall,Recall1,4514,FIGHT,100,3704,4163,1,1,,,1
5d5dc214a4dd6a0018af21da,wz3i7ckf4t,Emily_Honors_Thesis_Part_2,1,163,2020-08-29T11:31:23-07:00,7.2419590950012,6,versionA_stim.csv,IS_JOLVersionB.csv,"ITEM SPECIFIC Version B",OLD,MAZE,ELECTION,ON2,U,159,164,Test,User,-,,Recall,Recall1,6638,ELECTION,100,4802,6003,1,1,,,1
5d5dc214a4dd6a0018af21da,wz3i7ckf4t,Emily_Honors_Thesis_Part_2,1,164,2020-08-29T11:31:28-07:00,4.3641591072083,6,versionA_stim.csv,IS_JOLVersionB.csv,"ITEM SPECIFIC Version B",OLD,THREAD,THIMBLE,ON2,B,121,128,Test,User,-,,Recall,Recall1,3848,THIMBLE,100,1738,3537,1,1,,,1
5d5dc214a4dd6a0018af21da,wz3i7ckf4t,Emily_Honors_Thesis_Part_2,1,165,2020-08-29T11:31:31-07:00,3.6713869571686,6,versionA_stim.csv,IS_JOLVersionB.csv,"ITEM SPECIFIC Version B",OLD,ALONE,LONELY,ON2,S,145,132,Test,User,-,,Recall,Recall1,3030,LONELY,100,1403,2657,1,1,,,1
5d5dc214a4dd6a0018af21da,wz3i7ckf4t,Emily_Honors_Thesis_Part_2,1,166,2020-08-29T11:31:36-07:00,5.0644929409027,6,versionA_stim.csv,IS_JOLVersionB.csv,"ITEM SPECIFIC Version B",OLD,CAR,WINDSHIELD,ON2,B,117,155,Test,User,-,,Recall,Recall1,4569,DRIVER,37.5,3032,4102,0,0,,,1
5d5dc214a4dd6a0018af21da,wz3i7ckf4t,Emily_Honors_Thesis_Part_2,1,167,2020-08-29T11:32:27-07:00,50.722290992737,6,versionA_stim.csv,IS_JOLVersionB.csv,"ITEM SPECIFIC Version B",OLD,DRY,WET,ON2,S,146,97,Test,User,-,,Recall,Recall1,8108,WET,100,7115,7661,1,1,,,1
5d5dc214a4dd6a0018af21da,wz3i7ckf4t,Emily_Honors_Thesis_Part_2,1,168,2020-08-29T11:32:36-07:00,9.0426239967346,6,versionA_stim.csv,IS_JOLVersionB.csv,"ITEM SPECIFIC Version B",OLD,BEST,FAVORITE,ON2,B,125,134,Test,User,-,,Recall,Recall1,8509,FAVOURITE,94.117647058824,1845,7973,0,1,,,1
5d5dc214a4dd6a0018af21da,wz3i7ckf4t,Emily_Honors_Thesis_Part_2,1,169,2020-08-29T11:33:44-07:00,67.721789121628,6,versionA_stim.csv,IS_JOLVersionB.csv,"ITEM SPECIFIC Version B",OLD,SCALP,HEAD,ON2,F,105,151,Test,User,-,,Recall,Recall1,13207,HEAD,100,12145,12739,1,1,,,0.538
5d5dc214a4dd6a0018af21da,wz3i7ckf4t,Emily_Honors_Thesis_Part_2,1,170,2020-08-29T11:33:50-07:00,6.022125005722,6,versionA_stim.csv,IS_JOLVersionB.csv,"ITEM SPECIFIC Version B",OLD,PHONE,COMMUNICATION,ON2,S,149,172,Test,User,-,,Recall,Recall1,5385,COMMUNICATION,100,2104,4122,1,1,,,1
5d5dc214a4dd6a0018af21da,wz3i7ckf4t,Emily_Honors_Thesis_Part_2,1,171,2020-08-29T11:33:55-07:00,4.7800168991089,6,versionA_stim.csv,IS_JOLVersionB.csv,"ITEM SPECIFIC Version B",OLD,WRIST,BRACELET,ON2,S,140,147,Test,User,-,,Recall,Recall1,4171,BRACELET,100,2034,3642,1,1,,,1
5d5dc214a4dd6a0018af21da,wz3i7ckf4t,Emily_Honors_Thesis_Part_2,1,172,2020-08-29T11:34:17-07:00,22.278667926788,6,versionA_stim.csv,IS_JOLVersionB.csv,"ITEM SPECIFIC Version B",OLD,MONEY,BANKER,ON2,B,132,99,Test,User,-,,Recall,Recall1,21678,COIN,20,20337,20876,0,0,,,1
5d5dc214a4dd6a0018af21da,wz3i7ckf4t,Emily_Honors_Thesis_Part_2,1,173,2020-08-29T11:34:22-07:00,4.6650400161743,6,versionA_stim.csv,IS_JOLVersionB.csv,"ITEM SPECIFIC Version B",OLD,TURN,FLIP,ON2,B,116,104,Test,User,-,,Recall,Recall1,4007,FLIP,100,2800,3361,1,1,,,1
5d5dc214a4dd6a0018af21da,wz3i7ckf4t,Emily_Honors_Thesis_Part_2,1,174,2020-08-29T11:34:26-07:00,4.4502260684967,6,versionA_stim.csv,IS_JOLVersionB.csv,"ITEM SPECIFIC Version B",OLD,PLANE,AIRCRAFT,ON2,B,129,120,Test,User,-,,Recall,Recall1,3972,AIRCRAFT,100,1575,3400,1,1,,,1
5d5dc214a4dd6a0018af21da,wz3i7ckf4t,Emily_Honors_Thesis_Part_2,1,175,2020-08-29T11:34:29-07:00,3.0171639919281,6,versionA_stim.csv,IS_JOLVersionB.csv,"ITEM SPECIFIC Version B",OLD,OWN,HAVE,ON2,S,153,156,Test,User,-,,Recall,Recall1,2506,HAVE,100,1560,2229,1,1,,,1
5d5dc214a4dd6a0018af21da,wz3i7ckf4t,Emily_Honors_Thesis_Part_2,1,176,2020-08-29T11:34:34-07:00,4.8677790164948,6,versionA_stim.csv,IS_JOLVersionB.csv,"ITEM SPECIFIC Version B",OLD,LOAN,SIGN,ON2,U,171,106,Test,User,-,,Recall,Recall1,4383,SIGN,100,3432,3955,1,1,,,1
5d5dc214a4dd6a0018af21da,wz3i7ckf4t,Emily_Honors_Thesis_Part_2,1,177,2020-08-29T11:35:09-07:00,34.736592054367,6,versionA_stim.csv,IS_JOLVersionB.csv,"ITEM SPECIFIC Version B",OLD,MIRROR,CHILDREN,ON2,U,174,131,Test,User,-,,Recall,Recall1,10701,IMAGE,30.769230769231,3955,10343,0,0,,,1
5d5dc214a4dd6a0018af21da,wz3i7ckf4t,Emily_Honors_Thesis_Part_2,1,178,2020-08-29T11:35:16-07:00,7.2358968257904,6,versionA_stim.csv,IS_JOLVersionB.csv,"ITEM SPECIFIC Version B",OLD,CAT,PANTHER,ON2,B,126,113,Test,User,-,,Recall,Recall1,6557,DOG,0,4939,6063,0,0,,,1
5d5dc214a4dd6a0018af21da,wz3i7ckf4t,Emily_Honors_Thesis_Part_2,1,179,2020-08-29T11:35:20-07:00,3.7454390525818,6,versionA_stim.csv,IS_JOLVersionB.csv,"ITEM SPECIFIC Version B",OLD,RIGHTS,EQUAL,ON2,S,137,119,Test,User,-,,Recall,Recall1,3247,EQUAL,100,1625,2590,1,1,,,1
5d5dc214a4dd6a0018af21da,wz3i7ckf4t,Emily_Honors_Thesis_Part_2,1,180,2020-08-29T11:35:24-07:00,4.5376369953156,6,versionA_stim.csv,IS_JOLVersionB.csv,"ITEM SPECIFIC Version B",OLD,DINE,EAT,ON2,F,111,108,Test,User,-,,Recall,Recall1,4033,EAT,100,3201,3712,1,1,,,1
5d5dc214a4dd6a0018af21da,wz3i7ckf4t,Emily_Honors_Thesis_Part_2,1,181,2020-08-29T11:35:29-07:00,4.9691450595856,6,versionA_stim.csv,IS_JOLVersionB.csv,"ITEM SPECIFIC Version B",OLD,GONE,AWAY,ON2,S,142,150,Test,User,-,,Recall,Recall1,4376,AWAY,100,3465,4166,1,1,,,1
5d5dc214a4dd6a0018af21da,wz3i7ckf4t,Emily_Honors_Thesis_Part_2,1,182,2020-08-29T11:35:37-07:00,8.2504889965057,6,versionA_stim.csv,IS_JOLVersionB.csv,"ITEM SPECIFIC Version B",OLD,TEMPERATURE,MORNING,ON2,U,173,105,Test,User,-,,Recall,Recall1,7728,HOT,20,6975,7456,0,0,,,1
5d5dc214a4dd6a0018af21da,wz3i7ckf4t,Emily_Honors_Thesis_Part_2,1,183,2020-08-29T11:35:42-07:00,4.4596409797668,6,versionA_stim.csv,IS_JOLVersionB.csv,"ITEM SPECIFIC Version B",OLD,LOUD,NOISE,ON2,S,152,141,Test,User,-,,Recall,Recall1,3963,NOISE,100,1180,3734,1,1,,,1
5d5dc214a4dd6a0018af21da,wz3i7ckf4t,Emily_Honors_Thesis_Part_2,1,184,2020-08-29T11:35:45-07:00,3.118842124939,6,versionA_stim.csv,IS_JOLVersionB.csv,"ITEM SPECIFIC Version B",OLD,MOAT,CLEAR,ON2,U,169,176,Test,User,-,,Recall,Recall1,2609,CLEAR,100,1340,2223,1,1,,,1
5d5dc214a4dd6a0018af21da,wz3i7ckf4t,Emily_Honors_Thesis_Part_2,1,185,2020-08-29T11:35:52-07:00,6.9465308189392,6,versionA_stim.csv,IS_JOLVersionB.csv,"ITEM SPECIFIC Version B",OLD,WATER,DRINK,ON2,S,143,116,Test,User,-,,Recall,Recall1,6429,DRINK,100,5558,6127,1,1,,,1
5d5dc214a4dd6a0018af21da,wz3i7ckf4t,Emily_Honors_Thesis_Part_2,1,186,2020-08-29T11:35:55-07:00,2.9736089706421,6,versionA_stim.csv,IS_JOLVersionB.csv,"ITEM SPECIFIC Version B",OLD,FLEA,TICK,ON2,S,151,153,Test,User,-,,Recall,Recall1,2315,TICK,100,1272,1768,1,1,,,1
5d5dc214a4dd6a0018af21da,wz3i7ckf4t,Emily_Honors_Thesis_Part_2,1,187,2020-08-29T11:36:01-07:00,5.8969821929932,6,versionA_stim.csv,IS_JOLVersionB.csv,"ITEM SPECIFIC Version B",OLD,BOTH,OUNCE,ON2,U,172,165,Test,User,-,,Recall,Recall1,5359,ALL,0,4799,5130,0,0,,,1
5d5dc214a4dd6a0018af21da,wz3i7ckf4t,Emily_Honors_Thesis_Part_2,1,188,2020-08-29T11:36:05-07:00,3.9394989013672,6,versionA_stim.csv,IS_JOLVersionB.csv,"ITEM SPECIFIC Version B",OLD,BASEBALL,LEAGUE,ON2,B,131,171,Test,User,-,,Recall,Recall1,3401,LEAGUE,100,1463,3083,1,1,,,1
5d5dc214a4dd6a0018af21da,wz3i7ckf4t,Emily_Honors_Thesis_Part_2,1,189,2020-08-29T11:36:40-07:00,35.099337100983,6,versionA_stim.csv,IS_JOLVersionB.csv,"ITEM SPECIFIC Version B",OLD,STRETCH,CLOTH,ON2,U,157,143,Test,User,-,,Recall,Recall1,5900,CLOTHES,83.333333333333,3390,5544,0,1,,,1
5d5dc214a4dd6a0018af21da,wz3i7ckf4t,Emily_Honors_Thesis_Part_2,1,190,2020-08-29T11:36:51-07:00,11.267123937607,6,versionA_stim.csv,IS_JOLVersionB.csv,"ITEM SPECIFIC Version B",OLD,CRACKLE,ABLE,ON2,U,162,123,Test,User,-,,Recall,Recall1,10668,SNAP,25,9498,10265,0,0,,,1
5d5dc214a4dd6a0018af21da,wz3i7ckf4t,Emily_Honors_Thesis_Part_2,1,191,2020-08-29T11:36:59-07:00,7.4481520652771,6,versionA_stim.csv,IS_JOLVersionB.csv,"ITEM SPECIFIC Version B",OLD,GIVE,STEAK,ON2,U,158,159,Test,User,-,,Recall,Recall1,6939,TAKE,66.666666666667,4751,6697,0,0,,,1
5d5dc214a4dd6a0018af21da,wz3i7ckf4t,Emily_Honors_Thesis_Part_2,1,192,2020-08-29T11:37:02-07:00,3.5921959877014,6,versionA_stim.csv,IS_JOLVersionB.csv,"ITEM SPECIFIC Version B",OLD,MULE,DONKEY,ON2,F,108,109,Test,User,-,,Recall,Recall1,3089,DONKEY,100,1490,2719,1,1,,,1
5d5dc214a4dd6a0018af21da,wz3i7ckf4t,Emily_Honors_Thesis_Part_2,1,193,2020-08-29T11:37:51-07:00,48.693785905838,6,versionA_stim.csv,IS_JOLVersionB.csv,"ITEM SPECIFIC Version B",OLD,MEAT,OBTAIN,ON2,U,161,142,Test,User,-,,Recall,Recall1,23606,PROTEIN,61.538461538462,14533,23266,0,0,,,1
5d5dc214a4dd6a0018af21da,wz3i7ckf4t,Emily_Honors_Thesis_Part_2,1,194,2020-08-29T11:37:55-07:00,3.8263230323792,6,versionA_stim.csv,IS_JOLVersionB.csv,"ITEM SPECIFIC Version B",OLD,SLEEP,NAP,ON2,B,134,145,Test,User,-,,Recall,Recall1,3112,NAP,100,2088,2689,1,1,,,1
5d5dc214a4dd6a0018af21da,wz3i7ckf4t,Emily_Honors_Thesis_Part_2,1,195,2020-08-29T11:38:15-07:00,19.885885000229,6,versionA_stim.csv,IS_JOLVersionB.csv,"ITEM SPECIFIC Version B",OLD,,,,,,0,Instruct,-,10,"You will now be presented with a new set of word pairs. Please study each pair. Remember that your memory will be tested! When finished, press Enter to move to the next pair.",Initial_Instruct,Instruct4,14274,,,-1,-1,,,,,1
5d5dc214a4dd6a0018af21da,wz3i7ckf4t,Emily_Honors_Thesis_Part_2,1,196,2020-08-29T11:38:45-07:00,30.779653072357,6,versionA_stim.csv,IS_JOLVersionB.csv,"ITEM SPECIFIC Version B",OLD,,,,,,0,Instruct,,10,"You will again be asked to rate your ability to remember these items using a 0 to 100 scale. Remember to use the full range of the scale!",,Instruct10,25152,,,-1,-1,,,,,0.866
5d5dc214a4dd6a0018af21da,wz3i7ckf4t,Emily_Honors_Thesis_Part_2,1,197,2020-08-29T11:39:02-07:00,16.304360866547,6,versionA_stim.csv,IS_JOLVersionB.csv,"ITEM SPECIFIC Version B",OLD,,,,,,0,Instruct,-,15,"As you study and make your ratings, please think about the unique featues of each item and how the two concepts are DIFFERENT from each other. For example, if you see the pair TURTLE-CAT, think about how TURTLES have shells and are reptiles, while CATS are mammals and have fur.",,Instruct20,15547,,,-1,-1,,,,,1
5d5dc214a4dd6a0018af21da,wz3i7ckf4t,Emily_Honors_Thesis_Part_2,1,198,2020-08-29T11:39:34-07:00,31.974890947342,6,versionA_stim.csv,IS_JOLVersionB.csv,"ITEM SPECIFIC Version B",OLD,,,,,,0,FreeRecall,-,10,"What you should think about as you study each item pair? Type your response in the box below.",,CHECK4,31158,"how they are different such as turtle=shell, cat=fur",0,3831,28977,0,0,,,1
5d5dc214a4dd6a0018af21da,wz3i7ckf4t,Emily_Honors_Thesis_Part_2,1,199,2020-08-29T11:39:40-07:00,6.8304882049561,6,versionA_stim.csv,IS_JOLVersionB.csv,"ITEM SPECIFIC Version B",OLD,,,,,,0,Instruct,User,-,"Press Enter when you are readty to begin",,Instruct11,1759,,,-1,-1,,,,,1
5d5dc214a4dd6a0018af21da,wz3i7ckf4t,Emily_Honors_Thesis_Part_2,1,200,2020-08-29T11:39:54-07:00,13.803895950317,6,versionA_stim.csv,IS_JOLVersionB.csv,"ITEM SPECIFIC Version B",OLD,SCARE,HIDE,Buffer,Buffer,4,6,JOL,User,-,"How likely are you to correctly recall the second item in the pair?|Type your response on a scale from 0-100 and then press Enter.",Study/JOL,BUFFER3,13200,,,12404,12562,,,,30,1
5d5dc214a4dd6a0018af21da,wz3i7ckf4t,Emily_Honors_Thesis_Part_2,1,201,2020-08-29T11:39:59-07:00,4.2818670272827,6,versionA_stim.csv,IS_JOLVersionB.csv,"ITEM SPECIFIC Version B",OLD,PEANUT,BUTTER,Buffer,Buffer,3,3,JOL,User,-,"How likely are you to correctly recall the second item in the pair?|Type your response on a scale from 0-100 and then press Enter.",Study/JOL,BUFFER3,3639,,,2579,2967,,,,100,1
5d5dc214a4dd6a0018af21da,wz3i7ckf4t,Emily_Honors_Thesis_Part_2,1,202,2020-08-29T11:40:03-07:00,4.2668569087982,6,versionA_stim.csv,IS_JOLVersionB.csv,"ITEM SPECIFIC Version B",OLD,BASEBALL,CATCHER,Buffer,Buffer,2,4,JOL,User,-,"How likely are you to correctly recall the second item in the pair?|Type your response on a scale from 0-100 and then press Enter.",Study/JOL,BUFFER3,3741,,,2848,3014,,,,40,1
5d5dc214a4dd6a0018af21da,wz3i7ckf4t,Emily_Honors_Thesis_Part_2,1,203,2020-08-29T11:40:41-07:00,38.607143878937,6,versionA_stim.csv,IS_JOLVersionB.csv,"ITEM SPECIFIC Version B",OLD,SPACE,JAM,Buffer,Buffer,5,2,JOL,User,-,"How likely are you to correctly recall the second item in the pair?|Type your response on a scale from 0-100 and then press Enter.",Study/JOL,BUFFER3,12434,,,11709,11879,,,,20,1
5d5dc214a4dd6a0018af21da,wz3i7ckf4t,Emily_Honors_Thesis_Part_2,1,204,2020-08-29T11:41:00-07:00,18.911565065384,6,versionA_stim.csv,IS_JOLVersionB.csv,"ITEM SPECIFIC Version B",OLD,TREES,GREEN,Buffer,Buffer,1,5,JOL,User,-,"How likely are you to correctly recall the second item in the pair?|Type your response on a scale from 0-100 and then press Enter.",Study/JOL,BUFFER3,18141,,,17347,17509,,,,40,1
5d5dc214a4dd6a0018af21da,wz3i7ckf4t,Emily_Honors_Thesis_Part_2,1,205,2020-08-29T11:41:16-07:00,15.846848011017,6,versionA_stim.csv,IS_JOLVersionB.csv,"ITEM SPECIFIC Version B",OLD,SWAN,BIRD,ON,F,14,15,JOL,User,-,"How likely are you to correctly recall the second item in the pair?|Type your response on a scale from 0-100 and then press Enter.",Study/JOL,"Study Phase2",10045,,,9287,9457,,,,40,1
5d5dc214a4dd6a0018af21da,wz3i7ckf4t,Emily_Honors_Thesis_Part_2,1,206,2020-08-29T11:41:20-07:00,3.4702160358429,6,versionA_stim.csv,IS_JOLVersionB.csv,"ITEM SPECIFIC Version B",OLD,ROOT,PLANT,ON,F,13,22,JOL,User,-,"How likely are you to correctly recall the second item in the pair?|Type your response on a scale from 0-100 and then press Enter.",Study/JOL,"Study Phase2",2783,,,2160,2371,,,,70,1
5d5dc214a4dd6a0018af21da,wz3i7ckf4t,Emily_Honors_Thesis_Part_2,1,207,2020-08-29T11:41:25-07:00,5.483118057251,6,versionA_stim.csv,IS_JOLVersionB.csv,"ITEM SPECIFIC Version B",OLD,GRILL,BAR,ON,S,52,7,JOL,User,-,"How likely are you to correctly recall the second item in the pair?|Type your response on a scale from 0-100 and then press Enter.",Study/JOL,"Study Phase2",4906,,,4153,4337,,,,40,1
5d5dc214a4dd6a0018af21da,wz3i7ckf4t,Emily_Honors_Thesis_Part_2,1,208,2020-08-29T11:41:31-07:00,5.4265320301056,6,versionA_stim.csv,IS_JOLVersionB.csv,"ITEM SPECIFIC Version B",OLD,FIRE,BLAZE,ON,B,45,34,JOL,User,-,"How likely are you to correctly recall the second item in the pair?|Type your response on a scale from 0-100 and then press Enter.",Study/JOL,"Study Phase2",3870,,,3055,3248,,,,60,1
5d5dc214a4dd6a0018af21da,wz3i7ckf4t,Emily_Honors_Thesis_Part_2,1,209,2020-08-29T11:41:36-07:00,5.0396068096161,6,versionA_stim.csv,IS_JOLVersionB.csv,"ITEM SPECIFIC Version B",OLD,BEGIN,END,ON,S,54,68,JOL,User,-,"How likely are you to correctly recall the second item in the pair?|Type your response on a scale from 0-100 and then press Enter.",Study/JOL,"Study Phase2",4503,,,3440,3820,,,,100,1
5d5dc214a4dd6a0018af21da,wz3i7ckf4t,Emily_Honors_Thesis_Part_2,1,210,2020-08-29T11:42:28-07:00,52.841974020004,6,versionA_stim.csv,IS_JOLVersionB.csv,"ITEM SPECIFIC Version B",OLD,KIDNEY,LIVER,ON,S,53,66,JOL,User,-,"How likely are you to correctly recall the second item in the pair?|Type your response on a scale from 0-100 and then press Enter.",Study/JOL,"Study Phase2",12486,,,11706,11924,,,,90,0.727
5d5dc214a4dd6a0018af21da,wz3i7ckf4t,Emily_Honors_Thesis_Part_2,1,211,2020-08-29T11:42:32-07:00,3.9137201309204,6,versionA_stim.csv,IS_JOLVersionB.csv,"ITEM SPECIFIC Version B",OLD,DIGESTION,STOMACH,ON,F,7,13,JOL,User,-,"How likely are you to correctly recall the second item in the pair?|Type your response on a scale from 0-100 and then press Enter.",Study/JOL,"Study Phase2",3329,,,2252,2425,,,,80,1
5d5dc214a4dd6a0018af21da,wz3i7ckf4t,Emily_Honors_Thesis_Part_2,1,212,2020-08-29T11:42:54-07:00,21.881641864777,6,versionA_stim.csv,IS_JOLVersionB.csv,"ITEM SPECIFIC Version B",OLD,REVOLUTION,WAR,ON,F,20,83,JOL,User,-,"How likely are you to correctly recall the second item in the pair?|Type your response on a scale from 0-100 and then press Enter.",Study/JOL,"Study Phase2",2727,,,2062,2210,,,,50,1
5d5dc214a4dd6a0018af21da,wz3i7ckf4t,Emily_Honors_Thesis_Part_2,1,213,2020-08-29T11:43:21-07:00,26.87202501297,6,versionA_stim.csv,IS_JOLVersionB.csv,"ITEM SPECIFIC Version B",OLD,WAGE,MONEY,ON,F,8,19,JOL,User,-,"How likely are you to correctly recall the second item in the pair?|Type your response on a scale from 0-100 and then press Enter.",Study/JOL,"Study Phase2",25305,,,24546,24668,,,,60,0.615
5d5dc214a4dd6a0018af21da,wz3i7ckf4t,Emily_Honors_Thesis_Part_2,1,214,2020-08-29T11:43:30-07:00,8.4210290908813,6,versionA_stim.csv,IS_JOLVersionB.csv,"ITEM SPECIFIC Version B",OLD,DUMP,WASTE,ON,S,49,62,JOL,User,-,"How likely are you to correctly recall the second item in the pair?|Type your response on a scale from 0-100 and then press Enter.",Study/JOL,"Study Phase2",7756,,,3697,7332,,,,70,1
5d5dc214a4dd6a0018af21da,wz3i7ckf4t,Emily_Honors_Thesis_Part_2,1,215,2020-08-29T11:43:33-07:00,3.518835067749,6,versionA_stim.csv,IS_JOLVersionB.csv,"ITEM SPECIFIC Version B",OLD,CREDIT,CARD,ON,F,23,63,JOL,User,-,"How likely are you to correctly recall the second item in the pair?|Type your response on a scale from 0-100 and then press Enter.",Study/JOL,"Study Phase2",3029,,,2113,2704,,,,100,1
5d5dc214a4dd6a0018af21da,wz3i7ckf4t,Emily_Honors_Thesis_Part_2,1,216,2020-08-29T11:43:51-07:00,18.274459838867,6,versionA_stim.csv,IS_JOLVersionB.csv,"ITEM SPECIFIC Version B",OLD,BALL,RACKET,ON,B,38,84,JOL,User,-,"How likely are you to correctly recall the second item in the pair?|Type your response on a scale from 0-100 and then press Enter.",Study/JOL,"Study Phase2",3255,,,2483,2669,,,,50,1
5d5dc214a4dd6a0018af21da,wz3i7ckf4t,Emily_Honors_Thesis_Part_2,1,217,2020-08-29T11:44:18-07:00,26.533019065857,6,versionA_stim.csv,IS_JOLVersionB.csv,"ITEM SPECIFIC Version B",OLD,ART,LION,ON,U,79,69,JOL,User,-,"How likely are you to correctly recall the second item in the pair?|Type your response on a scale from 0-100 and then press Enter.",Study/JOL,"Study Phase2",20033,,,13059,13059,,,,0,0.823
5d5dc214a4dd6a0018af21da,wz3i7ckf4t,Emily_Honors_Thesis_Part_2,1,218,2020-08-29T11:44:24-07:00,6.4660189151764,6,versionA_stim.csv,IS_JOLVersionB.csv,"ITEM SPECIFIC Version B",OLD,HOT,CHILI,ON,B,37,64,JOL,User,-,"How likely are you to correctly recall the second item in the pair?|Type your response on a scale from 0-100 and then press Enter.",Study/JOL,"Study Phase2",5785,,,4337,4462,,,,50,1
5d5dc214a4dd6a0018af21da,wz3i7ckf4t,Emily_Honors_Thesis_Part_2,1,219,2020-08-29T11:44:28-07:00,3.6007151603699,6,versionA_stim.csv,IS_JOLVersionB.csv,"ITEM SPECIFIC Version B",OLD,BLOW,WIND,ON,S,55,45,JOL,User,-,"How likely are you to correctly recall the second item in the pair?|Type your response on a scale from 0-100 and then press Enter.",Study/JOL,"Study Phase2",3086,,,2228,2374,,,,60,1
5d5dc214a4dd6a0018af21da,wz3i7ckf4t,Emily_Honors_Thesis_Part_2,1,220,2020-08-29T11:44:32-07:00,4.2451078891754,6,versionA_stim.csv,IS_JOLVersionB.csv,"ITEM SPECIFIC Version B",OLD,HUNGER,FAMINE,ON,B,40,56,JOL,User,-,"How likely are you to correctly recall the second item in the pair?|Type your response on a scale from 0-100 and then press Enter.",Study/JOL,"Study Phase2",3733,,,3075,3231,,,,80,1
5d5dc214a4dd6a0018af21da,wz3i7ckf4t,Emily_Honors_Thesis_Part_2,1,221,2020-08-29T11:44:57-07:00,24.883751153946,6,versionA_stim.csv,IS_JOLVersionB.csv,"ITEM SPECIFIC Version B",OLD,LOCATION,SITE,ON,S,48,21,JOL,User,-,"How likely are you to correctly recall the second item in the pair?|Type your response on a scale from 0-100 and then press Enter.",Study/JOL,"Study Phase2",4025,,,3297,3412,,,,90,1
5d5dc214a4dd6a0018af21da,wz3i7ckf4t,Emily_Honors_Thesis_Part_2,1,222,2020-08-29T11:45:02-07:00,4.4761078357697,6,versionA_stim.csv,IS_JOLVersionB.csv,"ITEM SPECIFIC Version B",OLD,ALLOW,TUCK,ON,U,78,47,JOL,User,-,"How likely are you to correctly recall the second item in the pair?|Type your response on a scale from 0-100 and then press Enter.",Study/JOL,"Study Phase2",3859,,,2389,2389,,,,0,1
5d5dc214a4dd6a0018af21da,wz3i7ckf4t,Emily_Honors_Thesis_Part_2,1,223,2020-08-29T11:45:26-07:00,24.633634090424,6,versionA_stim.csv,IS_JOLVersionB.csv,"ITEM SPECIFIC Version B",OLD,PUSHER,CLUTTER,ON,U,66,71,JOL,User,-,"How likely are you to correctly recall the second item in the pair?|Type your response on a scale from 0-100 and then press Enter.",Study/JOL,"Study Phase2",3746,,,3272,3272,,,,0,1
5d5dc214a4dd6a0018af21da,wz3i7ckf4t,Emily_Honors_Thesis_Part_2,1,224,2020-08-29T11:45:34-07:00,8.0346078872681,6,versionA_stim.csv,IS_JOLVersionB.csv,"ITEM SPECIFIC Version B",OLD,CASH,WOULD,ON,U,83,75,JOL,User,-,"How likely are you to correctly recall the second item in the pair?|Type your response on a scale from 0-100 and then press Enter.",Study/JOL,"Study Phase2",7272,,,3192,3192,,,,0,1
5d5dc214a4dd6a0018af21da,wz3i7ckf4t,Emily_Honors_Thesis_Part_2,1,225,2020-08-29T11:45:38-07:00,4.198783159256,6,versionA_stim.csv,IS_JOLVersionB.csv,"ITEM SPECIFIC Version B",OLD,BITTER,COLD,ON,F,12,52,JOL,User,-,"How likely are you to correctly recall the second item in the pair?|Type your response on a scale from 0-100 and then press Enter.",Study/JOL,"Study Phase2",3675,,,2458,2458,,,,5,1
5d5dc214a4dd6a0018af21da,wz3i7ckf4t,Emily_Honors_Thesis_Part_2,1,226,2020-08-29T11:45:46-07:00,7.6401569843292,6,versionA_stim.csv,IS_JOLVersionB.csv,"ITEM SPECIFIC Version B",OLD,DUE,ASSIGNMENT,ON,S,46,8,JOL,User,-,"How likely are you to correctly recall the second item in the pair?|Type your response on a scale from 0-100 and then press Enter.",Study/JOL,"Study Phase2",7139,,,6557,6557,,,,4,1
5d5dc214a4dd6a0018af21da,wz3i7ckf4t,Emily_Honors_Thesis_Part_2,1,227,2020-08-29T11:45:51-07:00,5.3710389137268,6,versionA_stim.csv,IS_JOLVersionB.csv,"ITEM SPECIFIC Version B",OLD,EDITOR,NEWS,ON,F,10,24,JOL,User,-,"How likely are you to correctly recall the second item in the pair?|Type your response on a scale from 0-100 and then press Enter.",Study/JOL,"Study Phase2",4852,,,3803,4232,,,,60,1
5d5dc214a4dd6a0018af21da,wz3i7ckf4t,Emily_Honors_Thesis_Part_2,1,228,2020-08-29T11:45:55-07:00,3.3378329277039,6,versionA_stim.csv,IS_JOLVersionB.csv,"ITEM SPECIFIC Version B",OLD,HYGIENE,CLEAN,ON,F,17,80,JOL,User,-,"How likely are you to correctly recall the second item in the pair?|Type your response on a scale from 0-100 and then press Enter.",Study/JOL,"Study Phase2",2691,,,2019,2161,,,,80,1
5d5dc214a4dd6a0018af21da,wz3i7ckf4t,Emily_Honors_Thesis_Part_2,1,229,2020-08-29T11:45:59-07:00,3.8562891483307,6,versionA_stim.csv,IS_JOLVersionB.csv,"ITEM SPECIFIC Version B",OLD,BATHROOM,TOILET,ON,S,58,59,JOL,User,-,"How likely are you to correctly recall the second item in the pair?|Type your response on a scale from 0-100 and then press Enter.",Study/JOL,"Study Phase2",3362,,,2543,2954,,,,100,1
5d5dc214a4dd6a0018af21da,wz3i7ckf4t,Emily_Honors_Thesis_Part_2,1,230,2020-08-29T11:46:03-07:00,3.9955439567566,6,versionA_stim.csv,IS_JOLVersionB.csv,"ITEM SPECIFIC Version B",OLD,FULL,ENOUGH,ON,B,26,78,JOL,User,-,"How likely are you to correctly recall the second item in the pair?|Type your response on a scale from 0-100 and then press Enter.",Study/JOL,"Study Phase2",3520,,,2829,2982,,,,50,1
5d5dc214a4dd6a0018af21da,wz3i7ckf4t,Emily_Honors_Thesis_Part_2,1,231,2020-08-29T11:46:31-07:00,27.962951898575,6,versionA_stim.csv,IS_JOLVersionB.csv,"ITEM SPECIFIC Version B",OLD,GEOLOGY,ROCK,ON,F,19,37,JOL,User,-,"How likely are you to correctly recall the second item in the pair?|Type your response on a scale from 0-100 and then press Enter.",Study/JOL,"Study Phase2",8122,,,3376,7821,,,,95,1
5d5dc214a4dd6a0018af21da,wz3i7ckf4t,Emily_Honors_Thesis_Part_2,1,232,2020-08-29T11:46:38-07:00,7.8008980751038,6,versionA_stim.csv,IS_JOLVersionB.csv,"ITEM SPECIFIC Version B",OLD,PARK,HUNGRY,ON,U,68,16,JOL,User,-,"How likely are you to correctly recall the second item in the pair?|Type your response on a scale from 0-100 and then press Enter.",Study/JOL,"Study Phase2",2331,,,1981,1981,,,,0,1
5d5dc214a4dd6a0018af21da,wz3i7ckf4t,Emily_Honors_Thesis_Part_2,1,233,2020-08-29T11:46:47-07:00,8.3653750419617,6,versionA_stim.csv,IS_JOLVersionB.csv,"ITEM SPECIFIC Version B",OLD,SLEEP,DROWSY,ON,B,41,67,JOL,User,-,"How likely are you to correctly recall the second item in the pair?|Type your response on a scale from 0-100 and then press Enter.",Study/JOL,"Study Phase2",7845,,,7058,7241,,,,15,1
5d5dc214a4dd6a0018af21da,wz3i7ckf4t,Emily_Honors_Thesis_Part_2,1,234,2020-08-29T11:46:52-07:00,4.9585449695587,6,versionA_stim.csv,IS_JOLVersionB.csv,"ITEM SPECIFIC Version B",OLD,ARCHITECTURE,DESIGN,ON,S,51,49,JOL,User,-,"How likely are you to correctly recall the second item in the pair?|Type your response on a scale from 0-100 and then press Enter.",Study/JOL,"Study Phase2",4303,,,3835,3980,,,,40,1
5d5dc214a4dd6a0018af21da,wz3i7ckf4t,Emily_Honors_Thesis_Part_2,1,235,2020-08-29T11:46:58-07:00,6.4970920085907,6,versionA_stim.csv,IS_JOLVersionB.csv,"ITEM SPECIFIC Version B",OLD,POP,SODA,ON,S,56,50,JOL,User,-,"How likely are you to correctly recall the second item in the pair?|Type your response on a scale from 0-100 and then press Enter.",Study/JOL,"Study Phase2",5987,,,4992,5301,,,,20,1
5d5dc214a4dd6a0018af21da,wz3i7ckf4t,Emily_Honors_Thesis_Part_2,1,236,2020-08-29T11:47:01-07:00,3.2741100788116,6,versionA_stim.csv,IS_JOLVersionB.csv,"ITEM SPECIFIC Version B",OLD,HAPPY,CAR,ON,U,77,61,JOL,User,-,"How likely are you to correctly recall the second item in the pair?|Type your response on a scale from 0-100 and then press Enter.",Study/JOL,"Study Phase2",2772,,,2110,2110,,,,0,1
5d5dc214a4dd6a0018af21da,wz3i7ckf4t,Emily_Honors_Thesis_Part_2,1,237,2020-08-29T11:47:27-07:00,25.112916946411,6,versionA_stim.csv,IS_JOLVersionB.csv,"ITEM SPECIFIC Version B",OLD,DRINK,SIP,ON,B,27,55,JOL,User,-,"How likely are you to correctly recall the second item in the pair?|Type your response on a scale from 0-100 and then press Enter.",Study/JOL,"Study Phase2",5183,,,2675,3074,,,,15,1
5d5dc214a4dd6a0018af21da,wz3i7ckf4t,Emily_Honors_Thesis_Part_2,1,238,2020-08-29T11:47:34-07:00,7.3748159408569,6,versionA_stim.csv,IS_JOLVersionB.csv,"ITEM SPECIFIC Version B",OLD,CLOTHES,ATTIRE,ON,B,43,46,JOL,User,-,"How likely are you to correctly recall the second item in the pair?|Type your response on a scale from 0-100 and then press Enter.",Study/JOL,"Study Phase2",6162,,,5455,5614,,,,50,0.8
5d5dc214a4dd6a0018af21da,wz3i7ckf4t,Emily_Honors_Thesis_Part_2,1,239,2020-08-29T11:47:42-07:00,8.4403021335602,6,versionA_stim.csv,IS_JOLVersionB.csv,"ITEM SPECIFIC Version B",OLD,SUGAR,RIDDLE,ON,U,81,17,JOL,User,-,"How likely are you to correctly recall the second item in the pair?|Type your response on a scale from 0-100 and then press Enter.",Study/JOL,"Study Phase2",2526,,,2097,2097,,,,0,1
5d5dc214a4dd6a0018af21da,wz3i7ckf4t,Emily_Honors_Thesis_Part_2,1,240,2020-08-29T11:47:52-07:00,9.167995929718,6,versionA_stim.csv,IS_JOLVersionB.csv,"ITEM SPECIFIC Version B",OLD,,,,,,0,Instruct,-,3,"Remember to focus on how the two items are unique while you study and make your ratings!",,CHECK5,7968,,,-1,-1,,,,,0.852
5d5dc214a4dd6a0018af21da,wz3i7ckf4t,Emily_Honors_Thesis_Part_2,1,241,2020-08-29T11:48:01-07:00,9.1955440044403,6,versionA_stim.csv,IS_JOLVersionB.csv,"ITEM SPECIFIC Version B",OLD,BRIDGE,WATER,ON,F,18,28,JOL,User,-,"How likely are you to correctly recall the second item in the pair?|Type your response on a scale from 0-100 and then press Enter.",Study/JOL,"Study Phase2",8667,,,7871,8082,,,,70,1
5d5dc214a4dd6a0018af21da,wz3i7ckf4t,Emily_Honors_Thesis_Part_2,1,242,2020-08-29T11:48:03-07:00,2.6387140750885,6,versionA_stim.csv,IS_JOLVersionB.csv,"ITEM SPECIFIC Version B",OLD,FIX,HAND,ON,U,75,27,JOL,User,-,"How likely are you to correctly recall the second item in the pair?|Type your response on a scale from 0-100 and then press Enter.",Study/JOL,"Study Phase2",2072,,,1751,1751,,,,0,1
5d5dc214a4dd6a0018af21da,wz3i7ckf4t,Emily_Honors_Thesis_Part_2,1,243,2020-08-29T11:48:18-07:00,14.436365842819,6,versionA_stim.csv,IS_JOLVersionB.csv,"ITEM SPECIFIC Version B",OLD,SMELL,STENCH,ON,B,42,39,JOL,User,-,"How likely are you to correctly recall the second item in the pair?|Type your response on a scale from 0-100 and then press Enter.",Study/JOL,"Study Phase2",3474,,,2609,2783,,,,60,1
5d5dc214a4dd6a0018af21da,wz3i7ckf4t,Emily_Honors_Thesis_Part_2,1,244,2020-08-29T11:48:23-07:00,4.7223961353302,6,versionA_stim.csv,IS_JOLVersionB.csv,"ITEM SPECIFIC Version B",OLD,HEIGHT,GROWTH,ON,B,30,31,JOL,User,-,"How likely are you to correctly recall the second item in the pair?|Type your response on a scale from 0-100 and then press Enter.",Study/JOL,"Study Phase2",3953,,,3098,3359,,,,20,1
5d5dc214a4dd6a0018af21da,wz3i7ckf4t,Emily_Honors_Thesis_Part_2,1,245,2020-08-29T11:48:26-07:00,3.5615799427032,6,versionA_stim.csv,IS_JOLVersionB.csv,"ITEM SPECIFIC Version B",OLD,WINE,CHEESE,ON,S,57,36,JOL,User,-,"How likely are you to correctly recall the second item in the pair?|Type your response on a scale from 0-100 and then press Enter.",Study/JOL,"Study Phase2",3001,,,2175,2400,,,,10,1
5d5dc214a4dd6a0018af21da,wz3i7ckf4t,Emily_Honors_Thesis_Part_2,1,246,2020-08-29T11:48:33-07:00,7.3758969306946,6,versionA_stim.csv,IS_JOLVersionB.csv,"ITEM SPECIFIC Version B",OLD,PLANE,PILOT,ON,B,44,26,JOL,User,-,"How likely are you to correctly recall the second item in the pair?|Type your response on a scale from 0-100 and then press Enter.",Study/JOL,"Study Phase2",6828,,,6019,6221,,,,50,1
5d5dc214a4dd6a0018af21da,wz3i7ckf4t,Emily_Honors_Thesis_Part_2,1,247,2020-08-29T11:48:57-07:00,23.747859954834,6,versionA_stim.csv,IS_JOLVersionB.csv,"ITEM SPECIFIC Version B",OLD,KEY,LATCH,ON,B,36,10,JOL,User,-,"How likely are you to correctly recall the second item in the pair?|Type your response on a scale from 0-100 and then press Enter.",Study/JOL,"Study Phase2",3734,,,2433,2587,,,,10,1
5d5dc214a4dd6a0018af21da,wz3i7ckf4t,Emily_Honors_Thesis_Part_2,1,248,2020-08-29T11:49:00-07:00,2.703339099884,6,versionA_stim.csv,IS_JOLVersionB.csv,"ITEM SPECIFIC Version B",OLD,STRONG,ACCIDENT,ON,U,80,85,JOL,User,-,"How likely are you to correctly recall the second item in the pair?|Type your response on a scale from 0-100 and then press Enter.",Study/JOL,"Study Phase2",2062,,,1649,1649,,,,0,1
5d5dc214a4dd6a0018af21da,wz3i7ckf4t,Emily_Honors_Thesis_Part_2,1,249,2020-08-29T11:49:03-07:00,3.3258628845215,6,versionA_stim.csv,IS_JOLVersionB.csv,"ITEM SPECIFIC Version B",OLD,TUNA,FISH,ON,F,25,9,JOL,User,-,"How likely are you to correctly recall the second item in the pair?|Type your response on a scale from 0-100 and then press Enter.",Study/JOL,"Study Phase2",2794,,,2025,2194,,,,50,1
5d5dc214a4dd6a0018af21da,wz3i7ckf4t,Emily_Honors_Thesis_Part_2,1,250,2020-08-29T11:49:27-07:00,23.630104064941,6,versionA_stim.csv,IS_JOLVersionB.csv,"ITEM SPECIFIC Version B",OLD,DEBATE,SIGHT,ON,U,73,73,JOL,User,-,"How likely are you to correctly recall the second item in the pair?|Type your response on a scale from 0-100 and then press Enter.",Study/JOL,"Study Phase2",3805,,,2854,2854,,,,0,1
5d5dc214a4dd6a0018af21da,wz3i7ckf4t,Emily_Honors_Thesis_Part_2,1,251,2020-08-29T11:49:33-07:00,6.0338959693909,6,versionA_stim.csv,IS_JOLVersionB.csv,"ITEM SPECIFIC Version B",OLD,CIRCLE,ROUND,ON,S,65,58,JOL,User,-,"How likely are you to correctly recall the second item in the pair?|Type your response on a scale from 0-100 and then press Enter.",Study/JOL,"Study Phase2",5279,,,4626,4756,,,,70,1
5d5dc214a4dd6a0018af21da,wz3i7ckf4t,Emily_Honors_Thesis_Part_2,1,252,2020-08-29T11:49:41-07:00,7.9297480583191,6,versionA_stim.csv,IS_JOLVersionB.csv,"ITEM SPECIFIC Version B",OLD,PAW,DOG,ON,F,15,35,JOL,User,-,"How likely are you to correctly recall the second item in the pair?|Type your response on a scale from 0-100 and then press Enter.",Study/JOL,"Study Phase2",1955,,,1508,1599,,,,10,1
5d5dc214a4dd6a0018af21da,wz3i7ckf4t,Emily_Honors_Thesis_Part_2,1,253,2020-08-29T11:49:44-07:00,3.1258339881897,6,versionA_stim.csv,IS_JOLVersionB.csv,"ITEM SPECIFIC Version B",OLD,NUMBER,AMOUNT,ON,S,47,18,JOL,User,-,"How likely are you to correctly recall the second item in the pair?|Type your response on a scale from 0-100 and then press Enter.",Study/JOL,"Study Phase2",2512,,,2137,2138,,,,0,1
5d5dc214a4dd6a0018af21da,wz3i7ckf4t,Emily_Honors_Thesis_Part_2,1,254,2020-08-29T11:49:48-07:00,3.6144831180573,6,versionA_stim.csv,IS_JOLVersionB.csv,"ITEM SPECIFIC Version B",OLD,WORK,CHORE,ON,B,39,38,JOL,User,-,"How likely are you to correctly recall the second item in the pair?|Type your response on a scale from 0-100 and then press Enter.",Study/JOL,"Study Phase2",3105,,,2703,2703,,,,0,1
5d5dc214a4dd6a0018af21da,wz3i7ckf4t,Emily_Honors_Thesis_Part_2,1,255,2020-08-29T11:49:50-07:00,2.2971649169922,6,versionA_stim.csv,IS_JOLVersionB.csv,"ITEM SPECIFIC Version B",OLD,DISCOVER,FLOOR,ON,U,71,14,JOL,User,-,"How likely are you to correctly recall the second item in the pair?|Type your response on a scale from 0-100 and then press Enter.",Study/JOL,"Study Phase2",1743,,,1346,1346,,,,0,1
5d5dc214a4dd6a0018af21da,wz3i7ckf4t,Emily_Honors_Thesis_Part_2,1,256,2020-08-29T11:49:53-07:00,3.5841100215912,6,versionA_stim.csv,IS_JOLVersionB.csv,"ITEM SPECIFIC Version B",OLD,WAY,OUT,ON,F,16,48,JOL,User,-,"How likely are you to correctly recall the second item in the pair?|Type your response on a scale from 0-100 and then press Enter.",Study/JOL,"Study Phase2",3077,,,2532,2647,,,,50,1
5d5dc214a4dd6a0018af21da,wz3i7ckf4t,Emily_Honors_Thesis_Part_2,1,257,2020-08-29T11:49:59-07:00,5.4361438751221,6,versionA_stim.csv,IS_JOLVersionB.csv,"ITEM SPECIFIC Version B",OLD,SHOE,FOOT,ON,S,60,70,JOL,User,-,"How likely are you to correctly recall the second item in the pair?|Type your response on a scale from 0-100 and then press Enter.",Study/JOL,"Study Phase2",4916,,,4504,4638,,,,80,1
5d5dc214a4dd6a0018af21da,wz3i7ckf4t,Emily_Honors_Thesis_Part_2,1,258,2020-08-29T11:50:02-07:00,3.4258110523224,6,versionA_stim.csv,IS_JOLVersionB.csv,"ITEM SPECIFIC Version B",OLD,LAW,ATTORNEY,ON,B,34,43,JOL,User,-,"How likely are you to correctly recall the second item in the pair?|Type your response on a scale from 0-100 and then press Enter.",Study/JOL,"Study Phase2",2901,,,2287,2430,,,,40,1
5d5dc214a4dd6a0018af21da,wz3i7ckf4t,Emily_Honors_Thesis_Part_2,1,259,2020-08-29T11:50:20-07:00,18.109455108643,6,versionA_stim.csv,IS_JOLVersionB.csv,"ITEM SPECIFIC Version B",OLD,CHISEL,HAMMER,ON,F,9,86,JOL,User,-,"How likely are you to correctly recall the second item in the pair?|Type your response on a scale from 0-100 and then press Enter.",Study/JOL,"Study Phase2",2380,,,1883,2001,,,,50,1
5d5dc214a4dd6a0018af21da,wz3i7ckf4t,Emily_Honors_Thesis_Part_2,1,260,2020-08-29T11:50:24-07:00,3.612154006958,6,versionA_stim.csv,IS_JOLVersionB.csv,"ITEM SPECIFIC Version B",OLD,DIETARY,SACKING,ON,U,67,44,JOL,User,-,"How likely are you to correctly recall the second item in the pair?|Type your response on a scale from 0-100 and then press Enter.",Study/JOL,"Study Phase2",2991,,,2454,2455,,,,0,1
5d5dc214a4dd6a0018af21da,wz3i7ckf4t,Emily_Honors_Thesis_Part_2,1,261,2020-08-29T11:50:27-07:00,3.3476338386536,6,versionA_stim.csv,IS_JOLVersionB.csv,"ITEM SPECIFIC Version B",OLD,HERD,COW,ON,F,22,76,JOL,User,-,"How likely are you to correctly recall the second item in the pair?|Type your response on a scale from 0-100 and then press Enter.",Study/JOL,"Study Phase2",2845,,,2116,2277,,,,70,1
5d5dc214a4dd6a0018af21da,wz3i7ckf4t,Emily_Honors_Thesis_Part_2,1,262,2020-08-29T11:50:33-07:00,5.462494134903,6,versionA_stim.csv,IS_JOLVersionB.csv,"ITEM SPECIFIC Version B",OLD,SOON,BELT,ON,U,70,29,JOL,User,-,"How likely are you to correctly recall the second item in the pair?|Type your response on a scale from 0-100 and then press Enter.",Study/JOL,"Study Phase2",4900,,,4238,4238,,,,0,1
5d5dc214a4dd6a0018af21da,wz3i7ckf4t,Emily_Honors_Thesis_Part_2,1,263,2020-08-29T11:50:35-07:00,2.0368800163269,6,versionA_stim.csv,IS_JOLVersionB.csv,"ITEM SPECIFIC Version B",OLD,DEATH,BUSINESS,ON,U,72,60,JOL,User,-,"How likely are you to correctly recall the second item in the pair?|Type your response on a scale from 0-100 and then press Enter.",Study/JOL,"Study Phase2",1521,,,1183,1183,,,,0,1
5d5dc214a4dd6a0018af21da,wz3i7ckf4t,Emily_Honors_Thesis_Part_2,1,264,2020-08-29T11:50:44-07:00,9.1019849777222,6,versionA_stim.csv,IS_JOLVersionB.csv,"ITEM SPECIFIC Version B",OLD,ORCHID,FLOWER,ON,F,24,41,JOL,User,-,"How likely are you to correctly recall the second item in the pair?|Type your response on a scale from 0-100 and then press Enter.",Study/JOL,"Study Phase2",3067,,,2475,2780,,,,50,1
5d5dc214a4dd6a0018af21da,wz3i7ckf4t,Emily_Honors_Thesis_Part_2,1,265,2020-08-29T11:50:48-07:00,3.9833719730377,6,versionA_stim.csv,IS_JOLVersionB.csv,"ITEM SPECIFIC Version B",OLD,LIFT,WOMAN,ON,U,69,25,JOL,User,-,"How likely are you to correctly recall the second item in the pair?|Type your response on a scale from 0-100 and then press Enter.",Study/JOL,"Study Phase2",2360,,,1684,1685,,,,0,1
5d5dc214a4dd6a0018af21da,wz3i7ckf4t,Emily_Honors_Thesis_Part_2,1,266,2020-08-29T11:50:52-07:00,3.8043429851532,6,versionA_stim.csv,IS_JOLVersionB.csv,"ITEM SPECIFIC Version B",OLD,MATH,DIVISION,ON,B,33,53,JOL,User,-,"How likely are you to correctly recall the second item in the pair?|Type your response on a scale from 0-100 and then press Enter.",Study/JOL,"Study Phase2",3227,,,2686,2931,,,,40,1
5d5dc214a4dd6a0018af21da,wz3i7ckf4t,Emily_Honors_Thesis_Part_2,1,267,2020-08-29T11:50:56-07:00,4.1742548942566,6,versionA_stim.csv,IS_JOLVersionB.csv,"ITEM SPECIFIC Version B",OLD,TAKE,SEIZE,ON,B,29,11,JOL,User,-,"How likely are you to correctly recall the second item in the pair?|Type your response on a scale from 0-100 and then press Enter.",Study/JOL,"Study Phase2",3668,,,2520,3069,,,,60,1
5d5dc214a4dd6a0018af21da,wz3i7ckf4t,Emily_Honors_Thesis_Part_2,1,268,2020-08-29T11:50:58-07:00,2.0431931018829,6,versionA_stim.csv,IS_JOLVersionB.csv,"ITEM SPECIFIC Version B",OLD,KING,VASE,ON,U,85,40,JOL,User,-,"How likely are you to correctly recall the second item in the pair?|Type your response on a scale from 0-100 and then press Enter.",Study/JOL,"Study Phase2",1541,,,1222,1222,,,,0,1
5d5dc214a4dd6a0018af21da,wz3i7ckf4t,Emily_Honors_Thesis_Part_2,1,269,2020-08-29T11:51:03-07:00,5.2523949146271,6,versionA_stim.csv,IS_JOLVersionB.csv,"ITEM SPECIFIC Version B",OLD,TRIAL,JURY,ON,S,50,23,JOL,User,-,"How likely are you to correctly recall the second item in the pair?|Type your response on a scale from 0-100 and then press Enter.",Study/JOL,"Study Phase2",4760,,,4037,4311,,,,70,1
5d5dc214a4dd6a0018af21da,wz3i7ckf4t,Emily_Honors_Thesis_Part_2,1,270,2020-08-29T11:51:17-07:00,14.008529186249,6,versionA_stim.csv,IS_JOLVersionB.csv,"ITEM SPECIFIC Version B",OLD,VALLEY,ADD,ON,U,82,65,JOL,User,-,"How likely are you to correctly recall the second item in the pair?|Type your response on a scale from 0-100 and then press Enter.",Study/JOL,"Study Phase2",1859,,,1009,1009,,,,0,1
5d5dc214a4dd6a0018af21da,wz3i7ckf4t,Emily_Honors_Thesis_Part_2,1,271,2020-08-29T11:51:24-07:00,7.1690599918365,6,versionA_stim.csv,IS_JOLVersionB.csv,"ITEM SPECIFIC Version B",OLD,GREAT,FANTASTIC,ON,B,35,20,JOL,User,-,"How likely are you to correctly recall the second item in the pair?|Type your response on a scale from 0-100 and then press Enter.",Study/JOL,"Study Phase2",6536,,,5849,6009,,,,40,0.875
5d5dc214a4dd6a0018af21da,wz3i7ckf4t,Emily_Honors_Thesis_Part_2,1,272,2020-08-29T11:51:32-07:00,7.2709000110626,6,versionA_stim.csv,IS_JOLVersionB.csv,"ITEM SPECIFIC Version B",OLD,HONEY,BEE,ON,S,63,33,JOL,User,-,"How likely are you to correctly recall the second item in the pair?|Type your response on a scale from 0-100 and then press Enter.",Study/JOL,"Study Phase2",6755,,,5902,6338,,,,100,1
5d5dc214a4dd6a0018af21da,wz3i7ckf4t,Emily_Honors_Thesis_Part_2,1,273,2020-08-29T11:51:36-07:00,4.4260718822479,6,versionA_stim.csv,IS_JOLVersionB.csv,"ITEM SPECIFIC Version B",OLD,MEANING,DEFINITION,ON,S,62,42,JOL,User,-,"How likely are you to correctly recall the second item in the pair?|Type your response on a scale from 0-100 and then press Enter.",Study/JOL,"Study Phase2",3761,,,2398,2564,,,,70,1
5d5dc214a4dd6a0018af21da,wz3i7ckf4t,Emily_Honors_Thesis_Part_2,1,274,2020-08-29T11:52:26-07:00,49.79661989212,6,versionA_stim.csv,IS_JOLVersionB.csv,"ITEM SPECIFIC Version B",OLD,ARTERY,BRONZE,ON,U,74,32,JOL,User,-,"How likely are you to correctly recall the second item in the pair?|Type your response on a scale from 0-100 and then press Enter.",Study/JOL,"Study Phase2",9713,,,9454,9454,,,,0,0.5
5d5dc214a4dd6a0018af21da,wz3i7ckf4t,Emily_Honors_Thesis_Part_2,1,275,2020-08-29T11:52:31-07:00,5.2937071323395,6,versionA_stim.csv,IS_JOLVersionB.csv,"ITEM SPECIFIC Version B",OLD,DELINQUENT,BAD,ON,F,6,30,JOL,User,-,"How likely are you to correctly recall the second item in the pair?|Type your response on a scale from 0-100 and then press Enter.",Study/JOL,"Study Phase2",4581,,,3722,3983,,,,60,1
