Username,ID,ExperimentName,Session,Trial,Date,TimeDif,"Condition Number","Stimuli File","Order File","Condition Description","Condition Notes",Stimuli*Cue,Stimuli*Answer,Stimuli*Shuffle,"Stimuli*Stimuli Notes",Stimuli*Value,Procedure*Item,"Procedure*Trial Type","Procedure*Max Time","Procedure*Min Time",Procedure*Text,"Procedure*Procedure Notes",Procedure*Shuffle,Response*RT,Response*Response,Response*Accuracy,Response*RTfirst,Response*RTlast,Response*strictAcc,Response*lenientAcc,Response*focus,Response*JOL,Response*Focus
5ded58a8217786000b2b2511,4pu90zmqsy,Emily_Honors_Thesis_Part_2,1,1,2020-07-17T14:16:03-07:00,453.35273313522,5,versionA_stim.csv,IS_JOLVersionA.csv,"ITEM SPECIFIC Version A",OLD,,,,,,0,Instruct,-,10,"In this section, you will be presented with a series of word pairs. As you study, you will be asked to rate your ability to remember the second item in the pair if you were only shown the first at test. You will make these ratings using a 0 to 100 Scale.",,Instruct13,452448,,,-1,-1,,,,,0.996
5ded58a8217786000b2b2511,4pu90zmqsy,Emily_Honors_Thesis_Part_2,1,2,2020-07-17T14:16:45-07:00,41.217189073563,5,versionA_stim.csv,IS_JOLVersionA.csv,"ITEM SPECIFIC Version A",OLD,,,,,,0,Instruct,-,10,"For example, if you are given the pair CAT - DOG, a rating of 0 indicates that you would not remember DOG at test, while a rating of 100 indicates full certainty that you would remember the word DOG at test.",,Instruct14,39993,,,-1,-1,,,,,1
5ded58a8217786000b2b2511,4pu90zmqsy,Emily_Honors_Thesis_Part_2,1,3,2020-07-17T14:16:57-07:00,12.678949832916,5,versionA_stim.csv,IS_JOLVersionA.csv,"ITEM SPECIFIC Version A",OLD,,,,,,0,Instruct,-,10,"When making these ratings, it is criticial that you use the full range of the scale. You will be disqualified for only giving ratings of 0 or 100! After making your rating, press Enter to advance to the next pair.",,Instruct15,11466,,,-1,-1,,,,,1
5ded58a8217786000b2b2511,4pu90zmqsy,Emily_Honors_Thesis_Part_2,1,4,2020-07-17T14:17:15-07:00,17.67734503746,5,versionA_stim.csv,IS_JOLVersionA.csv,"ITEM SPECIFIC Version A",OLD,,,,,,0,Instruct,-,15,"As you study and make your ratings, please think about the unique featues of each item and how the two concepts are DIFFERENT from each other. For example, if you see the pair TURTLE-CAT, think about how TURTLES have shells and are reptiles, while CATS are mammals and have fur.",,Instruct19,16490,,,-1,-1,,,,,1
5ded58a8217786000b2b2511,4pu90zmqsy,Emily_Honors_Thesis_Part_2,1,5,2020-07-17T14:19:04-07:00,109.26012706757,5,versionA_stim.csv,IS_JOLVersionA.csv,"ITEM SPECIFIC Version A",OLD,,,,,,0,FreeRecall,-,10,"What you should think about as you study each item pair? Type your response in the box below.",,CHECK1,108110,"How the two items compare to similarity whereby if they are quite relatable then your score would be nearer 100. Whereas if the two are somewhat obscure then you are less likely to remember then so a score of nearer 0 would be appropriate. ",0,16989,105700,0,0,,,1
5ded58a8217786000b2b2511,4pu90zmqsy,Emily_Honors_Thesis_Part_2,1,6,2020-07-17T14:19:12-07:00,7.2809069156647,5,versionA_stim.csv,IS_JOLVersionA.csv,"ITEM SPECIFIC Version A",OLD,,,,,,0,Instruct,-,5,"You will now complete a practice session. Please study the following items and rate your ability to remember them. Remember to think about how the two items are unique!",,Instruct17,6322,,,-1,-1,,,,,1
5ded58a8217786000b2b2511,4pu90zmqsy,Emily_Honors_Thesis_Part_2,1,7,2020-07-17T14:19:36-07:00,24.766122102737,5,versionA_stim.csv,IS_JOLVersionA.csv,"ITEM SPECIFIC Version A",OLD,HAM,BONE,PRACTICE,PRACTICE,183,190,JOL,User,-,"How likely are you to correctly recall the second item in the pair?|Type your response on a scale from 0-100 and then press Enter.",Study/JOL,PRACTICE,23734,,,18897,21227,,,,85,1
5ded58a8217786000b2b2511,4pu90zmqsy,Emily_Honors_Thesis_Part_2,1,8,2020-07-17T14:19:53-07:00,16.376657962799,5,versionA_stim.csv,IS_JOLVersionA.csv,"ITEM SPECIFIC Version A",OLD,HINGE,SWING,PRACTICE,PRACTICE,185,191,JOL,User,-,"How likely are you to correctly recall the second item in the pair?|Type your response on a scale from 0-100 and then press Enter.",Study/JOL,PRACTICE,15293,,,11150,12471,,,,65,1
5ded58a8217786000b2b2511,4pu90zmqsy,Emily_Honors_Thesis_Part_2,1,9,2020-07-17T14:20:02-07:00,9.1874890327454,5,versionA_stim.csv,IS_JOLVersionA.csv,"ITEM SPECIFIC Version A",OLD,DEAF,MUTE,PRACTICE,PRACTICE,182,189,JOL,User,-,"How likely are you to correctly recall the second item in the pair?|Type your response on a scale from 0-100 and then press Enter.",Study/JOL,PRACTICE,8164,,,6336,7004,,,,90,1
5ded58a8217786000b2b2511,4pu90zmqsy,Emily_Honors_Thesis_Part_2,1,10,2020-07-17T14:20:13-07:00,10.61763882637,5,versionA_stim.csv,IS_JOLVersionA.csv,"ITEM SPECIFIC Version A",OLD,DISBELIEVE,SKEPTIC,PRACTICE,PRACTICE,186,188,JOL,User,-,"How likely are you to correctly recall the second item in the pair?|Type your response on a scale from 0-100 and then press Enter.",Study/JOL,PRACTICE,9715,,,8411,8411,,,,8,1
5ded58a8217786000b2b2511,4pu90zmqsy,Emily_Honors_Thesis_Part_2,1,11,2020-07-17T14:20:19-07:00,6.3134291172028,5,versionA_stim.csv,IS_JOLVersionA.csv,"ITEM SPECIFIC Version A",OLD,CHOCOLATE,BAR,PRACTICE,PRACTICE,187,182,JOL,User,-,"How likely are you to correctly recall the second item in the pair?|Type your response on a scale from 0-100 and then press Enter.",Study/JOL,PRACTICE,5350,,,2760,3971,,,,93,1
5ded58a8217786000b2b2511,4pu90zmqsy,Emily_Honors_Thesis_Part_2,1,12,2020-07-17T14:20:26-07:00,7.2718749046326,5,versionA_stim.csv,IS_JOLVersionA.csv,"ITEM SPECIFIC Version A",OLD,CHIME,MUSIC,PRACTICE,PRACTICE,188,186,JOL,User,-,"How likely are you to correctly recall the second item in the pair?|Type your response on a scale from 0-100 and then press Enter.",Study/JOL,PRACTICE,6312,,,3618,4068,,,,68,1
5ded58a8217786000b2b2511,4pu90zmqsy,Emily_Honors_Thesis_Part_2,1,13,2020-07-17T14:20:32-07:00,5.9687201976776,5,versionA_stim.csv,IS_JOLVersionA.csv,"ITEM SPECIFIC Version A",OLD,PADDLE,ROW,PRACTICE,PRACTICE,184,187,JOL,User,-,"How likely are you to correctly recall the second item in the pair?|Type your response on a scale from 0-100 and then press Enter.",Study/JOL,PRACTICE,5023,,,3507,3507,,,,3,1
5ded58a8217786000b2b2511,4pu90zmqsy,Emily_Honors_Thesis_Part_2,1,14,2020-07-17T14:20:39-07:00,7.2755508422852,5,versionA_stim.csv,IS_JOLVersionA.csv,"ITEM SPECIFIC Version A",OLD,AARDVARK,ZOO,PRACTICE,PRACTICE,181,183,JOL,User,-,"How likely are you to correctly recall the second item in the pair?|Type your response on a scale from 0-100 and then press Enter.",Study/JOL,PRACTICE,6112,,,4258,4743,,,,68,1
5ded58a8217786000b2b2511,4pu90zmqsy,Emily_Honors_Thesis_Part_2,1,15,2020-07-17T14:20:45-07:00,5.8864099979401,5,versionA_stim.csv,IS_JOLVersionA.csv,"ITEM SPECIFIC Version A",OLD,FASHION,MODEL,PRACTICE,PRACTICE,190,185,JOL,User,-,"How likely are you to correctly recall the second item in the pair?|Type your response on a scale from 0-100 and then press Enter.",Study/JOL,PRACTICE,4971,,,3029,3620,,,,90,1
5ded58a8217786000b2b2511,4pu90zmqsy,Emily_Honors_Thesis_Part_2,1,16,2020-07-17T14:20:59-07:00,13.456001996994,5,versionA_stim.csv,IS_JOLVersionA.csv,"ITEM SPECIFIC Version A",OLD,BEHAVIOR,SOCIAL,PRACTICE,PRACTICE,189,184,JOL,User,-,"How likely are you to correctly recall the second item in the pair?|Type your response on a scale from 0-100 and then press Enter.",Study/JOL,PRACTICE,12466,,,11087,11366,,,,67,1
5ded58a8217786000b2b2511,4pu90zmqsy,Emily_Honors_Thesis_Part_2,1,17,2020-07-17T14:21:02-07:00,3.8011789321899,5,versionA_stim.csv,IS_JOLVersionA.csv,"ITEM SPECIFIC Version A",OLD,,,,,,0,Instruct,User,-,"You have completed this section. Please press Enter to continue.",,Instruct18,2750,,,-1,-1,,,,,1
5ded58a8217786000b2b2511,4pu90zmqsy,Emily_Honors_Thesis_Part_2,1,18,2020-07-17T14:21:07-07:00,4.6592881679535,5,versionA_stim.csv,IS_JOLVersionA.csv,"ITEM SPECIFIC Version A",OLD,,,,,,0,Instruct,User,-,"You will now begin the study. Press Enter when you are ready to begin.",,Instruct16,3334,,,-1,-1,,,,,1
5ded58a8217786000b2b2511,4pu90zmqsy,Emily_Honors_Thesis_Part_2,1,19,2020-07-17T14:21:16-07:00,8.9087688922882,5,versionA_stim.csv,IS_JOLVersionA.csv,"ITEM SPECIFIC Version A",OLD,PEANUT,BUTTER,Buffer,Buffer,3,4,JOL,User,-,"How likely are you to correctly recall the second item in the pair?|Type your response on a scale from 0-100 and then press Enter.",Study/JOL,BUFFER,7647,,,4543,6296,,,,95,1
5ded58a8217786000b2b2511,4pu90zmqsy,Emily_Honors_Thesis_Part_2,1,20,2020-07-17T14:21:24-07:00,8.4350790977478,5,versionA_stim.csv,IS_JOLVersionA.csv,"ITEM SPECIFIC Version A",OLD,TREES,GREEN,Buffer,Buffer,1,6,JOL,User,-,"How likely are you to correctly recall the second item in the pair?|Type your response on a scale from 0-100 and then press Enter.",Study/JOL,BUFFER,7461,,,6323,6574,,,,89,1
5ded58a8217786000b2b2511,4pu90zmqsy,Emily_Honors_Thesis_Part_2,1,21,2020-07-17T14:21:35-07:00,10.573325872421,5,versionA_stim.csv,IS_JOLVersionA.csv,"ITEM SPECIFIC Version A",OLD,SCARE,HIDE,Buffer,Buffer,4,2,JOL,User,-,"How likely are you to correctly recall the second item in the pair?|Type your response on a scale from 0-100 and then press Enter.",Study/JOL,BUFFER,9686,,,7305,8363,,,,54,1
5ded58a8217786000b2b2511,4pu90zmqsy,Emily_Honors_Thesis_Part_2,1,22,2020-07-17T14:21:43-07:00,8.0446531772614,5,versionA_stim.csv,IS_JOLVersionA.csv,"ITEM SPECIFIC Version A",OLD,SPACE,JAM,Buffer,Buffer,5,3,JOL,User,-,"How likely are you to correctly recall the second item in the pair?|Type your response on a scale from 0-100 and then press Enter.",Study/JOL,BUFFER,6980,,,5755,5755,,,,5,1
5ded58a8217786000b2b2511,4pu90zmqsy,Emily_Honors_Thesis_Part_2,1,23,2020-07-17T14:21:50-07:00,6.5586287975311,5,versionA_stim.csv,IS_JOLVersionA.csv,"ITEM SPECIFIC Version A",OLD,BASEBALL,CATCHER,Buffer,Buffer,2,5,JOL,User,-,"How likely are you to correctly recall the second item in the pair?|Type your response on a scale from 0-100 and then press Enter.",Study/JOL,BUFFER,5601,,,3749,4116,,,,78,1
5ded58a8217786000b2b2511,4pu90zmqsy,Emily_Honors_Thesis_Part_2,1,24,2020-07-17T14:21:56-07:00,5.9604802131653,5,versionA_stim.csv,IS_JOLVersionA.csv,"ITEM SPECIFIC Version A",OLD,ART,LION,ON,U,79,76,JOL,User,-,"How likely are you to correctly recall the second item in the pair?|Type your response on a scale from 0-100 and then press Enter.",Study/JOL,"Study Phase",4935,,,3874,3874,,,,4,1
5ded58a8217786000b2b2511,4pu90zmqsy,Emily_Honors_Thesis_Part_2,1,25,2020-07-17T14:22:03-07:00,7.3684189319611,5,versionA_stim.csv,IS_JOLVersionA.csv,"ITEM SPECIFIC Version A",OLD,FIX,HAND,ON,U,75,84,JOL,User,-,"How likely are you to correctly recall the second item in the pair?|Type your response on a scale from 0-100 and then press Enter.",Study/JOL,"Study Phase",6444,,,5578,5578,,,,3,1
5ded58a8217786000b2b2511,4pu90zmqsy,Emily_Honors_Thesis_Part_2,1,26,2020-07-17T14:22:12-07:00,8.9087100028992,5,versionA_stim.csv,IS_JOLVersionA.csv,"ITEM SPECIFIC Version A",OLD,WAY,OUT,ON,F,16,83,JOL,User,-,"How likely are you to correctly recall the second item in the pair?|Type your response on a scale from 0-100 and then press Enter.",Study/JOL,"Study Phase",7965,,,6171,6821,,,,69,1
5ded58a8217786000b2b2511,4pu90zmqsy,Emily_Honors_Thesis_Part_2,1,27,2020-07-17T14:22:24-07:00,12.006237983704,5,versionA_stim.csv,IS_JOLVersionA.csv,"ITEM SPECIFIC Version A",OLD,FIRE,BLAZE,ON,B,45,79,JOL,User,-,"How likely are you to correctly recall the second item in the pair?|Type your response on a scale from 0-100 and then press Enter.",Study/JOL,"Study Phase",10787,,,9253,9995,,,,86,1
5ded58a8217786000b2b2511,4pu90zmqsy,Emily_Honors_Thesis_Part_2,1,28,2020-07-17T14:22:31-07:00,7.3326990604401,5,versionA_stim.csv,IS_JOLVersionA.csv,"ITEM SPECIFIC Version A",OLD,PUSHER,CLUTTER,ON,U,66,52,JOL,User,-,"How likely are you to correctly recall the second item in the pair?|Type your response on a scale from 0-100 and then press Enter.",Study/JOL,"Study Phase",6276,,,5345,5345,,,,1,1
5ded58a8217786000b2b2511,4pu90zmqsy,Emily_Honors_Thesis_Part_2,1,29,2020-07-17T14:22:38-07:00,6.8309519290924,5,versionA_stim.csv,IS_JOLVersionA.csv,"ITEM SPECIFIC Version A",OLD,BATHROOM,TOILET,ON,S,58,67,JOL,User,-,"How likely are you to correctly recall the second item in the pair?|Type your response on a scale from 0-100 and then press Enter.",Study/JOL,"Study Phase",5687,,,2099,4665,,,,96,1
5ded58a8217786000b2b2511,4pu90zmqsy,Emily_Honors_Thesis_Part_2,1,30,2020-07-17T14:22:49-07:00,10.431796073914,5,versionA_stim.csv,IS_JOLVersionA.csv,"ITEM SPECIFIC Version A",OLD,BEGIN,END,ON,S,54,80,JOL,User,-,"How likely are you to correctly recall the second item in the pair?|Type your response on a scale from 0-100 and then press Enter.",Study/JOL,"Study Phase",9476,,,7596,8772,,,,84,1
5ded58a8217786000b2b2511,4pu90zmqsy,Emily_Honors_Thesis_Part_2,1,31,2020-07-17T14:22:56-07:00,7.1187160015106,5,versionA_stim.csv,IS_JOLVersionA.csv,"ITEM SPECIFIC Version A",OLD,CASH,WOULD,ON,U,83,32,JOL,User,-,"How likely are you to correctly recall the second item in the pair?|Type your response on a scale from 0-100 and then press Enter.",Study/JOL,"Study Phase",5966,,,3984,3984,,,,0,1
5ded58a8217786000b2b2511,4pu90zmqsy,Emily_Honors_Thesis_Part_2,1,32,2020-07-17T14:23:02-07:00,6.341490983963,5,versionA_stim.csv,IS_JOLVersionA.csv,"ITEM SPECIFIC Version A",OLD,EDITOR,NEWS,ON,F,10,62,JOL,User,-,"How likely are you to correctly recall the second item in the pair?|Type your response on a scale from 0-100 and then press Enter.",Study/JOL,"Study Phase",5396,,,3298,4342,,,,63,1
5ded58a8217786000b2b2511,4pu90zmqsy,Emily_Honors_Thesis_Part_2,1,33,2020-07-17T14:23:08-07:00,6.2853548526764,5,versionA_stim.csv,IS_JOLVersionA.csv,"ITEM SPECIFIC Version A",OLD,TAKE,SEIZE,ON,B,29,26,JOL,User,-,"How likely are you to correctly recall the second item in the pair?|Type your response on a scale from 0-100 and then press Enter.",Study/JOL,"Study Phase",5333,,,3498,4631,,,,28,1
5ded58a8217786000b2b2511,4pu90zmqsy,Emily_Honors_Thesis_Part_2,1,34,2020-07-17T14:23:15-07:00,6.4187290668488,5,versionA_stim.csv,IS_JOLVersionA.csv,"ITEM SPECIFIC Version A",OLD,DRINK,SIP,ON,B,27,51,JOL,User,-,"How likely are you to correctly recall the second item in the pair?|Type your response on a scale from 0-100 and then press Enter.",Study/JOL,"Study Phase",5475,,,3508,4619,,,,83,1
5ded58a8217786000b2b2511,4pu90zmqsy,Emily_Honors_Thesis_Part_2,1,35,2020-07-17T14:23:23-07:00,8.0523860454559,5,versionA_stim.csv,IS_JOLVersionA.csv,"ITEM SPECIFIC Version A",OLD,HIDE,SICK,ON,U,84,78,JOL,User,-,"How likely are you to correctly recall the second item in the pair?|Type your response on a scale from 0-100 and then press Enter.",Study/JOL,"Study Phase",7109,,,6028,6028,,,,2,1
5ded58a8217786000b2b2511,4pu90zmqsy,Emily_Honors_Thesis_Part_2,1,36,2020-07-17T14:23:30-07:00,6.9286348819733,5,versionA_stim.csv,IS_JOLVersionA.csv,"ITEM SPECIFIC Version A",OLD,HAPPY,CAR,ON,U,77,64,JOL,User,-,"How likely are you to correctly recall the second item in the pair?|Type your response on a scale from 0-100 and then press Enter.",Study/JOL,"Study Phase",6007,,,4900,4900,,,,7,1
5ded58a8217786000b2b2511,4pu90zmqsy,Emily_Honors_Thesis_Part_2,1,37,2020-07-17T14:23:38-07:00,8.6784482002258,5,versionA_stim.csv,IS_JOLVersionA.csv,"ITEM SPECIFIC Version A",OLD,HYGIENE,CLEAN,ON,F,17,70,JOL,User,-,"How likely are you to correctly recall the second item in the pair?|Type your response on a scale from 0-100 and then press Enter.",Study/JOL,"Study Phase",7701,,,4882,6968,,,,73,1
5ded58a8217786000b2b2511,4pu90zmqsy,Emily_Honors_Thesis_Part_2,1,38,2020-07-17T14:23:46-07:00,7.6460399627686,5,versionA_stim.csv,IS_JOLVersionA.csv,"ITEM SPECIFIC Version A",OLD,HORNET,STING,ON,F,11,61,JOL,User,-,"How likely are you to correctly recall the second item in the pair?|Type your response on a scale from 0-100 and then press Enter.",Study/JOL,"Study Phase",6702,,,4637,5787,,,,72,1
5ded58a8217786000b2b2511,4pu90zmqsy,Emily_Honors_Thesis_Part_2,1,39,2020-07-17T14:23:53-07:00,6.7059450149536,5,versionA_stim.csv,IS_JOLVersionA.csv,"ITEM SPECIFIC Version A",OLD,DEBATE,SIGHT,ON,U,73,65,JOL,User,-,"How likely are you to correctly recall the second item in the pair?|Type your response on a scale from 0-100 and then press Enter.",Study/JOL,"Study Phase",5737,,,4793,4794,,,,2,1
5ded58a8217786000b2b2511,4pu90zmqsy,Emily_Honors_Thesis_Part_2,1,40,2020-07-17T14:24:01-07:00,7.9673748016357,5,versionA_stim.csv,IS_JOLVersionA.csv,"ITEM SPECIFIC Version A",OLD,PAW,DOG,ON,F,15,21,JOL,User,-,"How likely are you to correctly recall the second item in the pair?|Type your response on a scale from 0-100 and then press Enter.",Study/JOL,"Study Phase",7009,,,5797,6151,,,,88,1
5ded58a8217786000b2b2511,4pu90zmqsy,Emily_Honors_Thesis_Part_2,1,41,2020-07-17T14:24:08-07:00,7.7959380149841,5,versionA_stim.csv,IS_JOLVersionA.csv,"ITEM SPECIFIC Version A",OLD,PLANE,PILOT,ON,B,44,11,JOL,User,-,"How likely are you to correctly recall the second item in the pair?|Type your response on a scale from 0-100 and then press Enter.",Study/JOL,"Study Phase",6859,,,4624,4846,,,,89,1
5ded58a8217786000b2b2511,4pu90zmqsy,Emily_Honors_Thesis_Part_2,1,42,2020-07-17T14:24:17-07:00,8.5904011726379,5,versionA_stim.csv,IS_JOLVersionA.csv,"ITEM SPECIFIC Version A",OLD,DISCOVER,FLOOR,ON,U,71,73,JOL,User,-,"How likely are you to correctly recall the second item in the pair?|Type your response on a scale from 0-100 and then press Enter.",Study/JOL,"Study Phase",6692,,,4424,4424,,,,0,1
5ded58a8217786000b2b2511,4pu90zmqsy,Emily_Honors_Thesis_Part_2,1,43,2020-07-17T14:24:24-07:00,7.1463558673859,5,versionA_stim.csv,IS_JOLVersionA.csv,"ITEM SPECIFIC Version A",OLD,ROOT,PLANT,ON,F,13,49,JOL,User,-,"How likely are you to correctly recall the second item in the pair?|Type your response on a scale from 0-100 and then press Enter.",Study/JOL,"Study Phase",6130,,,3919,4806,,,,77,1
5ded58a8217786000b2b2511,4pu90zmqsy,Emily_Honors_Thesis_Part_2,1,44,2020-07-17T14:24:30-07:00,5.870218038559,5,versionA_stim.csv,IS_JOLVersionA.csv,"ITEM SPECIFIC Version A",OLD,ARTERY,BRONZE,ON,U,74,17,JOL,User,-,"How likely are you to correctly recall the second item in the pair?|Type your response on a scale from 0-100 and then press Enter.",Study/JOL,"Study Phase",4907,,,3357,3357,,,,0,1
5ded58a8217786000b2b2511,4pu90zmqsy,Emily_Honors_Thesis_Part_2,1,45,2020-07-17T14:24:37-07:00,6.9262940883636,5,versionA_stim.csv,IS_JOLVersionA.csv,"ITEM SPECIFIC Version A",OLD,GEOLOGY,ROCK,ON,F,19,59,JOL,User,-,"How likely are you to correctly recall the second item in the pair?|Type your response on a scale from 0-100 and then press Enter.",Study/JOL,"Study Phase",6024,,,3249,5056,,,,84,1
5ded58a8217786000b2b2511,4pu90zmqsy,Emily_Honors_Thesis_Part_2,1,46,2020-07-17T14:24:44-07:00,6.9038329124451,5,versionA_stim.csv,IS_JOLVersionA.csv,"ITEM SPECIFIC Version A",OLD,LOCATION,SITE,ON,S,48,77,JOL,User,-,"How likely are you to correctly recall the second item in the pair?|Type your response on a scale from 0-100 and then press Enter.",Study/JOL,"Study Phase",5000,,,2958,4192,,,,27,1
5ded58a8217786000b2b2511,4pu90zmqsy,Emily_Honors_Thesis_Part_2,1,47,2020-07-17T14:24:48-07:00,4.1888520717621,5,versionA_stim.csv,IS_JOLVersionA.csv,"ITEM SPECIFIC Version A",OLD,SUGAR,RIDDLE,ON,U,81,85,JOL,User,-,"How likely are you to correctly recall the second item in the pair?|Type your response on a scale from 0-100 and then press Enter.",Study/JOL,"Study Phase",3275,,,2443,2443,,,,0,1
5ded58a8217786000b2b2511,4pu90zmqsy,Emily_Honors_Thesis_Part_2,1,48,2020-07-17T14:24:54-07:00,5.4614100456238,5,versionA_stim.csv,IS_JOLVersionA.csv,"ITEM SPECIFIC Version A",OLD,BUG,WASP,ON,B,32,15,JOL,User,-,"How likely are you to correctly recall the second item in the pair?|Type your response on a scale from 0-100 and then press Enter.",Study/JOL,"Study Phase",4505,,,2991,3730,,,,73,1
5ded58a8217786000b2b2511,4pu90zmqsy,Emily_Honors_Thesis_Part_2,1,49,2020-07-17T14:25:01-07:00,7.8114359378815,5,versionA_stim.csv,IS_JOLVersionA.csv,"ITEM SPECIFIC Version A",OLD,POP,SODA,ON,S,56,33,JOL,User,-,"How likely are you to correctly recall the second item in the pair?|Type your response on a scale from 0-100 and then press Enter.",Study/JOL,"Study Phase",5875,,,2519,5078,,,,78,1
5ded58a8217786000b2b2511,4pu90zmqsy,Emily_Honors_Thesis_Part_2,1,50,2020-07-17T14:25:08-07:00,6.5612149238586,5,versionA_stim.csv,IS_JOLVersionA.csv,"ITEM SPECIFIC Version A",OLD,DEATH,BUSINESS,ON,U,72,81,JOL,User,-,"How likely are you to correctly recall the second item in the pair?|Type your response on a scale from 0-100 and then press Enter.",Study/JOL,"Study Phase",5606,,,4917,4917,,,,1,1
5ded58a8217786000b2b2511,4pu90zmqsy,Emily_Honors_Thesis_Part_2,1,51,2020-07-17T14:25:14-07:00,6.2213110923767,5,versionA_stim.csv,IS_JOLVersionA.csv,"ITEM SPECIFIC Version A",OLD,SLEEP,DROWSY,ON,B,41,82,JOL,User,-,"How likely are you to correctly recall the second item in the pair?|Type your response on a scale from 0-100 and then press Enter.",Study/JOL,"Study Phase",5257,,,3753,4622,,,,84,1
5ded58a8217786000b2b2511,4pu90zmqsy,Emily_Honors_Thesis_Part_2,1,52,2020-07-17T14:25:20-07:00,6.2224688529968,5,versionA_stim.csv,IS_JOLVersionA.csv,"ITEM SPECIFIC Version A",OLD,LIFT,WOMAN,ON,U,69,9,JOL,User,-,"How likely are you to correctly recall the second item in the pair?|Type your response on a scale from 0-100 and then press Enter.",Study/JOL,"Study Phase",5310,,,4629,4630,,,,0,1
5ded58a8217786000b2b2511,4pu90zmqsy,Emily_Honors_Thesis_Part_2,1,53,2020-07-17T14:25:27-07:00,6.7042520046234,5,versionA_stim.csv,IS_JOLVersionA.csv,"ITEM SPECIFIC Version A",OLD,ARCHITECTURE,DESIGN,ON,S,51,37,JOL,User,-,"How likely are you to correctly recall the second item in the pair?|Type your response on a scale from 0-100 and then press Enter.",Study/JOL,"Study Phase",5770,,,3864,5133,,,,86,1
5ded58a8217786000b2b2511,4pu90zmqsy,Emily_Honors_Thesis_Part_2,1,54,2020-07-17T14:25:35-07:00,8.3784911632538,5,versionA_stim.csv,IS_JOLVersionA.csv,"ITEM SPECIFIC Version A",OLD,LETTUCE,SALAD,ON,S,59,24,JOL,User,-,"How likely are you to correctly recall the second item in the pair?|Type your response on a scale from 0-100 and then press Enter.",Study/JOL,"Study Phase",7423,,,6043,6838,,,,92,1
5ded58a8217786000b2b2511,4pu90zmqsy,Emily_Honors_Thesis_Part_2,1,55,2020-07-17T14:25:41-07:00,5.6024079322815,5,versionA_stim.csv,IS_JOLVersionA.csv,"ITEM SPECIFIC Version A",OLD,SOON,BELT,ON,U,70,34,JOL,User,-,"How likely are you to correctly recall the second item in the pair?|Type your response on a scale from 0-100 and then press Enter.",Study/JOL,"Study Phase",4693,,,2245,2245,,,,0,1
5ded58a8217786000b2b2511,4pu90zmqsy,Emily_Honors_Thesis_Part_2,1,56,2020-07-17T14:25:46-07:00,5.4201819896698,5,versionA_stim.csv,IS_JOLVersionA.csv,"ITEM SPECIFIC Version A",OLD,GREAT,FANTASTIC,ON,B,35,36,JOL,User,-,"How likely are you to correctly recall the second item in the pair?|Type your response on a scale from 0-100 and then press Enter.",Study/JOL,"Study Phase",4441,,,3052,3807,,,,73,1
5ded58a8217786000b2b2511,4pu90zmqsy,Emily_Honors_Thesis_Part_2,1,57,2020-07-17T14:25:55-07:00,8.1457669734955,5,versionA_stim.csv,IS_JOLVersionA.csv,"ITEM SPECIFIC Version A",OLD,TUNA,FISH,ON,F,25,86,JOL,User,-,"How likely are you to correctly recall the second item in the pair?|Type your response on a scale from 0-100 and then press Enter.",Study/JOL,"Study Phase",7207,,,4822,6527,,,,94,1
5ded58a8217786000b2b2511,4pu90zmqsy,Emily_Honors_Thesis_Part_2,1,58,2020-07-17T14:26:03-07:00,8.0233900547028,5,versionA_stim.csv,IS_JOLVersionA.csv,"ITEM SPECIFIC Version A",OLD,,,,,,0,Instruct,-,3,"Remember to focus on how the two items are unique while you study and make your ratings!",,CHECK2,6042,,,-1,-1,,,,,1
5ded58a8217786000b2b2511,4pu90zmqsy,Emily_Honors_Thesis_Part_2,1,59,2020-07-17T14:26:21-07:00,18.495070934296,5,versionA_stim.csv,IS_JOLVersionA.csv,"ITEM SPECIFIC Version A",OLD,HEIGHT,GROWTH,ON,B,30,44,JOL,User,-,"How likely are you to correctly recall the second item in the pair?|Type your response on a scale from 0-100 and then press Enter.",Study/JOL,"Study Phase",17548,,,15535,16083,,,,87,1
5ded58a8217786000b2b2511,4pu90zmqsy,Emily_Honors_Thesis_Part_2,1,60,2020-07-17T14:26:28-07:00,6.9093401432037,5,versionA_stim.csv,IS_JOLVersionA.csv,"ITEM SPECIFIC Version A",OLD,BALL,RACKET,ON,B,38,23,JOL,User,-,"How likely are you to correctly recall the second item in the pair?|Type your response on a scale from 0-100 and then press Enter.",Study/JOL,"Study Phase",5935,,,3322,4747,,,,91,1
5ded58a8217786000b2b2511,4pu90zmqsy,Emily_Honors_Thesis_Part_2,1,61,2020-07-17T14:26:35-07:00,6.9278519153595,5,versionA_stim.csv,IS_JOLVersionA.csv,"ITEM SPECIFIC Version A",OLD,KING,VASE,ON,U,85,55,JOL,User,-,"How likely are you to correctly recall the second item in the pair?|Type your response on a scale from 0-100 and then press Enter.",Study/JOL,"Study Phase",6021,,,3848,3849,,,,1,1
5ded58a8217786000b2b2511,4pu90zmqsy,Emily_Honors_Thesis_Part_2,1,62,2020-07-17T14:26:43-07:00,7.8400468826294,5,versionA_stim.csv,IS_JOLVersionA.csv,"ITEM SPECIFIC Version A",OLD,REVOLUTION,WAR,ON,F,20,68,JOL,User,-,"How likely are you to correctly recall the second item in the pair?|Type your response on a scale from 0-100 and then press Enter.",Study/JOL,"Study Phase",6861,,,2495,3004,,,,88,1
5ded58a8217786000b2b2511,4pu90zmqsy,Emily_Honors_Thesis_Part_2,1,63,2020-07-17T14:26:54-07:00,11.512436151505,5,versionA_stim.csv,IS_JOLVersionA.csv,"ITEM SPECIFIC Version A",OLD,SENTENCE,WORD,ON,B,31,30,JOL,User,-,"How likely are you to correctly recall the second item in the pair?|Type your response on a scale from 0-100 and then press Enter.",Study/JOL,"Study Phase",10572,,,7223,7855,,,,87,1
5ded58a8217786000b2b2511,4pu90zmqsy,Emily_Honors_Thesis_Part_2,1,64,2020-07-17T14:27:06-07:00,11.548306941986,5,versionA_stim.csv,IS_JOLVersionA.csv,"ITEM SPECIFIC Version A",OLD,MEANING,DEFINITION,ON,S,62,47,JOL,User,-,"How likely are you to correctly recall the second item in the pair?|Type your response on a scale from 0-100 and then press Enter.",Study/JOL,"Study Phase",10562,,,2816,7726,,,,91,1
5ded58a8217786000b2b2511,4pu90zmqsy,Emily_Honors_Thesis_Part_2,1,65,2020-07-17T14:27:14-07:00,8.4451138973236,5,versionA_stim.csv,IS_JOLVersionA.csv,"ITEM SPECIFIC Version A",OLD,WINE,CHEESE,ON,S,57,69,JOL,User,-,"How likely are you to correctly recall the second item in the pair?|Type your response on a scale from 0-100 and then press Enter.",Study/JOL,"Study Phase",7414,,,3003,3356,,,,95,1
5ded58a8217786000b2b2511,4pu90zmqsy,Emily_Honors_Thesis_Part_2,1,66,2020-07-17T14:27:20-07:00,6.1157221794128,5,versionA_stim.csv,IS_JOLVersionA.csv,"ITEM SPECIFIC Version A",OLD,DELINQUENT,BAD,ON,F,6,53,JOL,User,-,"How likely are you to correctly recall the second item in the pair?|Type your response on a scale from 0-100 and then press Enter.",Study/JOL,"Study Phase",4992,,,3218,3553,,,,78,1
5ded58a8217786000b2b2511,4pu90zmqsy,Emily_Honors_Thesis_Part_2,1,67,2020-07-17T14:27:28-07:00,7.5554518699646,5,versionA_stim.csv,IS_JOLVersionA.csv,"ITEM SPECIFIC Version A",OLD,WAGE,MONEY,ON,F,8,54,JOL,User,-,"How likely are you to correctly recall the second item in the pair?|Type your response on a scale from 0-100 and then press Enter.",Study/JOL,"Study Phase",6601,,,2965,3729,,,,93,1
5ded58a8217786000b2b2511,4pu90zmqsy,Emily_Honors_Thesis_Part_2,1,68,2020-07-17T14:27:37-07:00,9.4420371055603,5,versionA_stim.csv,IS_JOLVersionA.csv,"ITEM SPECIFIC Version A",OLD,WORK,CHORE,ON,B,39,63,JOL,User,-,"How likely are you to correctly recall the second item in the pair?|Type your response on a scale from 0-100 and then press Enter.",Study/JOL,"Study Phase",8426,,,6463,7697,,,,74,1
5ded58a8217786000b2b2511,4pu90zmqsy,Emily_Honors_Thesis_Part_2,1,69,2020-07-17T14:27:44-07:00,6.2314028739929,5,versionA_stim.csv,IS_JOLVersionA.csv,"ITEM SPECIFIC Version A",OLD,DUMP,WASTE,ON,S,49,14,JOL,User,-,"How likely are you to correctly recall the second item in the pair?|Type your response on a scale from 0-100 and then press Enter.",Study/JOL,"Study Phase",5246,,,3358,4391,,,,93,1
5ded58a8217786000b2b2511,4pu90zmqsy,Emily_Honors_Thesis_Part_2,1,70,2020-07-17T14:27:55-07:00,11.12880396843,5,versionA_stim.csv,IS_JOLVersionA.csv,"ITEM SPECIFIC Version A",OLD,HERD,COW,ON,F,22,19,JOL,User,-,"How likely are you to correctly recall the second item in the pair?|Type your response on a scale from 0-100 and then press Enter.",Study/JOL,"Study Phase",10165,,,2655,9259,,,,87,1
5ded58a8217786000b2b2511,4pu90zmqsy,Emily_Honors_Thesis_Part_2,1,71,2020-07-17T14:28:00-07:00,4.911926984787,5,versionA_stim.csv,IS_JOLVersionA.csv,"ITEM SPECIFIC Version A",OLD,PARK,HUNGRY,ON,U,68,40,JOL,User,-,"How likely are you to correctly recall the second item in the pair?|Type your response on a scale from 0-100 and then press Enter.",Study/JOL,"Study Phase",3926,,,2913,2914,,,,2,1
5ded58a8217786000b2b2511,4pu90zmqsy,Emily_Honors_Thesis_Part_2,1,72,2020-07-17T14:28:05-07:00,5.6939070224762,5,versionA_stim.csv,IS_JOLVersionA.csv,"ITEM SPECIFIC Version A",OLD,HONEY,BEE,ON,S,63,45,JOL,User,-,"How likely are you to correctly recall the second item in the pair?|Type your response on a scale from 0-100 and then press Enter.",Study/JOL,"Study Phase",4704,,,2010,3218,,,,97,1
5ded58a8217786000b2b2511,4pu90zmqsy,Emily_Honors_Thesis_Part_2,1,73,2020-07-17T14:28:12-07:00,6.7657990455627,5,versionA_stim.csv,IS_JOLVersionA.csv,"ITEM SPECIFIC Version A",OLD,GRILL,BAR,ON,S,52,66,JOL,User,-,"How likely are you to correctly recall the second item in the pair?|Type your response on a scale from 0-100 and then press Enter.",Study/JOL,"Study Phase",5813,,,3148,3739,,,,43,1
5ded58a8217786000b2b2511,4pu90zmqsy,Emily_Honors_Thesis_Part_2,1,74,2020-07-17T14:28:27-07:00,15.101782083511,5,versionA_stim.csv,IS_JOLVersionA.csv,"ITEM SPECIFIC Version A",OLD,ORCHID,FLOWER,ON,F,24,10,JOL,User,-,"How likely are you to correctly recall the second item in the pair?|Type your response on a scale from 0-100 and then press Enter.",Study/JOL,"Study Phase",13162,,,2322,12084,,,,96,1
5ded58a8217786000b2b2511,4pu90zmqsy,Emily_Honors_Thesis_Part_2,1,75,2020-07-17T14:28:35-07:00,7.4182760715485,5,versionA_stim.csv,IS_JOLVersionA.csv,"ITEM SPECIFIC Version A",OLD,BABY,CHILD,ON,S,64,27,JOL,User,-,"How likely are you to correctly recall the second item in the pair?|Type your response on a scale from 0-100 and then press Enter.",Study/JOL,"Study Phase",6289,,,5176,5371,,,,99,1
5ded58a8217786000b2b2511,4pu90zmqsy,Emily_Honors_Thesis_Part_2,1,76,2020-07-17T14:28:40-07:00,4.9479689598083,5,versionA_stim.csv,IS_JOLVersionA.csv,"ITEM SPECIFIC Version A",OLD,LAW,ATTORNEY,ON,B,34,8,JOL,User,-,"How likely are you to correctly recall the second item in the pair?|Type your response on a scale from 0-100 and then press Enter.",Study/JOL,"Study Phase",3875,,,2208,3159,,,,96,1
5ded58a8217786000b2b2511,4pu90zmqsy,Emily_Honors_Thesis_Part_2,1,77,2020-07-17T14:28:49-07:00,9.0160779953003,5,versionA_stim.csv,IS_JOLVersionA.csv,"ITEM SPECIFIC Version A",OLD,HUNGER,FAMINE,ON,B,40,12,JOL,User,-,"How likely are you to correctly recall the second item in the pair?|Type your response on a scale from 0-100 and then press Enter.",Study/JOL,"Study Phase",7990,,,6202,7176,,,,100,1
5ded58a8217786000b2b2511,4pu90zmqsy,Emily_Honors_Thesis_Part_2,1,78,2020-07-17T14:28:54-07:00,5.5088000297546,5,versionA_stim.csv,IS_JOLVersionA.csv,"ITEM SPECIFIC Version A",OLD,MATH,DIVISION,ON,B,33,60,JOL,User,-,"How likely are you to correctly recall the second item in the pair?|Type your response on a scale from 0-100 and then press Enter.",Study/JOL,"Study Phase",4576,,,2912,3151,,,,89,1
5ded58a8217786000b2b2511,4pu90zmqsy,Emily_Honors_Thesis_Part_2,1,79,2020-07-17T14:29:12-07:00,17.745872974396,5,versionA_stim.csv,IS_JOLVersionA.csv,"ITEM SPECIFIC Version A",OLD,SMELL,STENCH,ON,B,42,56,JOL,User,-,"How likely are you to correctly recall the second item in the pair?|Type your response on a scale from 0-100 and then press Enter.",Study/JOL,"Study Phase",16796,,,15095,16197,,,,75,1
5ded58a8217786000b2b2511,4pu90zmqsy,Emily_Honors_Thesis_Part_2,1,80,2020-07-17T14:29:46-07:00,33.616485834122,5,versionA_stim.csv,IS_JOLVersionA.csv,"ITEM SPECIFIC Version A",OLD,DUE,ASSIGNMENT,ON,S,46,50,JOL,User,-,"How likely are you to correctly recall the second item in the pair?|Type your response on a scale from 0-100 and then press Enter.",Study/JOL,"Study Phase",32417,,,28477,31853,,,,11,0.738
5ded58a8217786000b2b2511,4pu90zmqsy,Emily_Honors_Thesis_Part_2,1,81,2020-07-17T14:29:50-07:00,4.8546240329742,5,versionA_stim.csv,IS_JOLVersionA.csv,"ITEM SPECIFIC Version A",OLD,BITTER,COLD,ON,F,12,38,JOL,User,-,"How likely are you to correctly recall the second item in the pair?|Type your response on a scale from 0-100 and then press Enter.",Study/JOL,"Study Phase",3708,,,2226,3025,,,,92,1
5ded58a8217786000b2b2511,4pu90zmqsy,Emily_Honors_Thesis_Part_2,1,82,2020-07-17T14:29:55-07:00,5.0128710269928,5,versionA_stim.csv,IS_JOLVersionA.csv,"ITEM SPECIFIC Version A",OLD,DARK,CAVE,ON,B,28,75,JOL,User,-,"How likely are you to correctly recall the second item in the pair?|Type your response on a scale from 0-100 and then press Enter.",Study/JOL,"Study Phase",4043,,,2597,3431,,,,94,1
5ded58a8217786000b2b2511,4pu90zmqsy,Emily_Honors_Thesis_Part_2,1,83,2020-07-17T14:30:01-07:00,5.6612861156464,5,versionA_stim.csv,IS_JOLVersionA.csv,"ITEM SPECIFIC Version A",OLD,VALLEY,ADD,ON,U,82,22,JOL,User,-,"How likely are you to correctly recall the second item in the pair?|Type your response on a scale from 0-100 and then press Enter.",Study/JOL,"Study Phase",4741,,,3853,3853,,,,0,1
5ded58a8217786000b2b2511,4pu90zmqsy,Emily_Honors_Thesis_Part_2,1,84,2020-07-17T14:30:06-07:00,4.9881448745728,5,versionA_stim.csv,IS_JOLVersionA.csv,"ITEM SPECIFIC Version A",OLD,CREDIT,CARD,ON,F,23,20,JOL,User,-,"How likely are you to correctly recall the second item in the pair?|Type your response on a scale from 0-100 and then press Enter.",Study/JOL,"Study Phase",4112,,,2134,3111,,,,100,1
5ded58a8217786000b2b2511,4pu90zmqsy,Emily_Honors_Thesis_Part_2,1,85,2020-07-17T14:30:11-07:00,5.354602098465,5,versionA_stim.csv,IS_JOLVersionA.csv,"ITEM SPECIFIC Version A",OLD,BRIDGE,WATER,ON,F,18,29,JOL,User,-,"How likely are you to correctly recall the second item in the pair?|Type your response on a scale from 0-100 and then press Enter.",Study/JOL,"Study Phase",4429,,,2530,3887,,,,96,1
5ded58a8217786000b2b2511,4pu90zmqsy,Emily_Honors_Thesis_Part_2,1,86,2020-07-17T14:30:26-07:00,14.971317052841,5,versionA_stim.csv,IS_JOLVersionA.csv,"ITEM SPECIFIC Version A",OLD,SWAN,BIRD,ON,F,14,18,JOL,User,-,"How likely are you to correctly recall the second item in the pair?|Type your response on a scale from 0-100 and then press Enter.",Study/JOL,"Study Phase",14092,,,13412,13629,,,,78,1
5ded58a8217786000b2b2511,4pu90zmqsy,Emily_Honors_Thesis_Part_2,1,87,2020-07-17T14:30:32-07:00,5.5302879810333,5,versionA_stim.csv,IS_JOLVersionA.csv,"ITEM SPECIFIC Version A",OLD,CLOTHES,ATTIRE,ON,B,43,72,JOL,User,-,"How likely are you to correctly recall the second item in the pair?|Type your response on a scale from 0-100 and then press Enter.",Study/JOL,"Study Phase",4453,,,2779,3794,,,,94,1
5ded58a8217786000b2b2511,4pu90zmqsy,Emily_Honors_Thesis_Part_2,1,88,2020-07-17T14:30:37-07:00,5.0100588798523,5,versionA_stim.csv,IS_JOLVersionA.csv,"ITEM SPECIFIC Version A",OLD,SHOE,FOOT,ON,S,60,71,JOL,User,-,"How likely are you to correctly recall the second item in the pair?|Type your response on a scale from 0-100 and then press Enter.",Study/JOL,"Study Phase",4085,,,2991,3165,,,,99,1
5ded58a8217786000b2b2511,4pu90zmqsy,Emily_Honors_Thesis_Part_2,1,89,2020-07-17T14:30:42-07:00,4.7350919246674,5,versionA_stim.csv,IS_JOLVersionA.csv,"ITEM SPECIFIC Version A",OLD,TRIAL,JURY,ON,S,50,16,JOL,User,-,"How likely are you to correctly recall the second item in the pair?|Type your response on a scale from 0-100 and then press Enter.",Study/JOL,"Study Phase",3718,,,1973,2712,,,,97,1
5ded58a8217786000b2b2511,4pu90zmqsy,Emily_Honors_Thesis_Part_2,1,90,2020-07-17T14:30:48-07:00,5.9549062252045,5,versionA_stim.csv,IS_JOLVersionA.csv,"ITEM SPECIFIC Version A",OLD,DIETARY,SACKING,ON,U,67,74,JOL,User,-,"How likely are you to correctly recall the second item in the pair?|Type your response on a scale from 0-100 and then press Enter.",Study/JOL,"Study Phase",5076,,,4414,4414,,,,1,1
5ded58a8217786000b2b2511,4pu90zmqsy,Emily_Honors_Thesis_Part_2,1,91,2020-07-17T14:30:55-07:00,7.596076965332,5,versionA_stim.csv,IS_JOLVersionA.csv,"ITEM SPECIFIC Version A",OLD,STRONG,ACCIDENT,ON,U,80,31,JOL,User,-,"How likely are you to correctly recall the second item in the pair?|Type your response on a scale from 0-100 and then press Enter.",Study/JOL,"Study Phase",6651,,,5621,5621,,,,2,1
5ded58a8217786000b2b2511,4pu90zmqsy,Emily_Honors_Thesis_Part_2,1,92,2020-07-17T14:31:01-07:00,6.1072838306427,5,versionA_stim.csv,IS_JOLVersionA.csv,"ITEM SPECIFIC Version A",OLD,KIDNEY,LIVER,ON,S,53,35,JOL,User,-,"How likely are you to correctly recall the second item in the pair?|Type your response on a scale from 0-100 and then press Enter.",Study/JOL,"Study Phase",5165,,,2836,3613,,,,96,1
5ded58a8217786000b2b2511,4pu90zmqsy,Emily_Honors_Thesis_Part_2,1,93,2020-07-17T14:31:07-07:00,5.9149160385132,5,versionA_stim.csv,IS_JOLVersionA.csv,"ITEM SPECIFIC Version A",OLD,PAST,FUTURE,ON,S,61,46,JOL,User,-,"How likely are you to correctly recall the second item in the pair?|Type your response on a scale from 0-100 and then press Enter.",Study/JOL,"Study Phase",4946,,,2384,2568,,,,99,1
5ded58a8217786000b2b2511,4pu90zmqsy,Emily_Honors_Thesis_Part_2,1,94,2020-07-17T14:31:12-07:00,4.6312961578369,5,versionA_stim.csv,IS_JOLVersionA.csv,"ITEM SPECIFIC Version A",OLD,HOT,CHILI,ON,B,37,48,JOL,User,-,"How likely are you to correctly recall the second item in the pair?|Type your response on a scale from 0-100 and then press Enter.",Study/JOL,"Study Phase",3638,,,2328,3051,,,,96,1
5ded58a8217786000b2b2511,4pu90zmqsy,Emily_Honors_Thesis_Part_2,1,95,2020-07-17T14:31:16-07:00,4.3952798843384,5,versionA_stim.csv,IS_JOLVersionA.csv,"ITEM SPECIFIC Version A",OLD,BLOW,WIND,ON,S,55,58,JOL,User,-,"How likely are you to correctly recall the second item in the pair?|Type your response on a scale from 0-100 and then press Enter.",Study/JOL,"Study Phase",3425,,,1756,2821,,,,96,1
5ded58a8217786000b2b2511,4pu90zmqsy,Emily_Honors_Thesis_Part_2,1,96,2020-07-17T14:31:22-07:00,5.7187509536743,5,versionA_stim.csv,IS_JOLVersionA.csv,"ITEM SPECIFIC Version A",OLD,MACHINE,POSITION,ON,U,76,39,JOL,User,-,"How likely are you to correctly recall the second item in the pair?|Type your response on a scale from 0-100 and then press Enter.",Study/JOL,"Study Phase",4642,,,3556,3556,,,,2,1
5ded58a8217786000b2b2511,4pu90zmqsy,Emily_Honors_Thesis_Part_2,1,97,2020-07-17T14:31:26-07:00,4.2548961639404,5,versionA_stim.csv,IS_JOLVersionA.csv,"ITEM SPECIFIC Version A",OLD,CIRCLE,ROUND,ON,S,65,28,JOL,User,-,"How likely are you to correctly recall the second item in the pair?|Type your response on a scale from 0-100 and then press Enter.",Study/JOL,"Study Phase",3195,,,2306,2508,,,,99,1
5ded58a8217786000b2b2511,4pu90zmqsy,Emily_Honors_Thesis_Part_2,1,98,2020-07-17T14:31:36-07:00,9.6027948856354,5,versionA_stim.csv,IS_JOLVersionA.csv,"ITEM SPECIFIC Version A",OLD,KEY,LATCH,ON,B,36,7,JOL,User,-,"How likely are you to correctly recall the second item in the pair?|Type your response on a scale from 0-100 and then press Enter.",Study/JOL,"Study Phase",8730,,,8197,8197,,,,4,1
5ded58a8217786000b2b2511,4pu90zmqsy,Emily_Honors_Thesis_Part_2,1,99,2020-07-17T14:31:41-07:00,4.892767906189,5,versionA_stim.csv,IS_JOLVersionA.csv,"ITEM SPECIFIC Version A",OLD,FULL,ENOUGH,ON,B,26,25,JOL,User,-,"How likely are you to correctly recall the second item in the pair?|Type your response on a scale from 0-100 and then press Enter.",Study/JOL,"Study Phase",4015,,,3507,3507,,,,5,1
5ded58a8217786000b2b2511,4pu90zmqsy,Emily_Honors_Thesis_Part_2,1,100,2020-07-17T14:31:47-07:00,6.6811180114746,5,versionA_stim.csv,IS_JOLVersionA.csv,"ITEM SPECIFIC Version A",OLD,NUMBER,AMOUNT,ON,S,47,43,JOL,User,-,"How likely are you to correctly recall the second item in the pair?|Type your response on a scale from 0-100 and then press Enter.",Study/JOL,"Study Phase",5757,,,2968,3160,,,,56,1
5ded58a8217786000b2b2511,4pu90zmqsy,Emily_Honors_Thesis_Part_2,1,101,2020-07-17T14:31:55-07:00,7.4741280078888,5,versionA_stim.csv,IS_JOLVersionA.csv,"ITEM SPECIFIC Version A",OLD,ALLOW,TUCK,ON,U,78,41,JOL,User,-,"How likely are you to correctly recall the second item in the pair?|Type your response on a scale from 0-100 and then press Enter.",Study/JOL,"Study Phase",6542,,,5909,5909,,,,1,1
5ded58a8217786000b2b2511,4pu90zmqsy,Emily_Honors_Thesis_Part_2,1,102,2020-07-17T14:32:00-07:00,5.1017150878906,5,versionA_stim.csv,IS_JOLVersionA.csv,"ITEM SPECIFIC Version A",OLD,DIGESTION,STOMACH,ON,F,7,57,JOL,User,-,"How likely are you to correctly recall the second item in the pair?|Type your response on a scale from 0-100 and then press Enter.",Study/JOL,"Study Phase",4142,,,2649,3385,,,,92,1
5ded58a8217786000b2b2511,4pu90zmqsy,Emily_Honors_Thesis_Part_2,1,103,2020-07-17T14:32:06-07:00,6.0003099441528,5,versionA_stim.csv,IS_JOLVersionA.csv,"ITEM SPECIFIC Version A",OLD,CHISEL,HAMMER,ON,F,9,42,JOL,User,-,"How likely are you to correctly recall the second item in the pair?|Type your response on a scale from 0-100 and then press Enter.",Study/JOL,"Study Phase",5129,,,3895,4610,,,,86,1
5ded58a8217786000b2b2511,4pu90zmqsy,Emily_Honors_Thesis_Part_2,1,104,2020-07-17T14:32:12-07:00,6.0292301177979,5,versionA_stim.csv,IS_JOLVersionA.csv,"ITEM SPECIFIC Version A",OLD,DISCUSSION,TALK,ON,F,21,13,JOL,User,-,"How likely are you to correctly recall the second item in the pair?|Type your response on a scale from 0-100 and then press Enter.",Study/JOL,"Study Phase",4708,,,3390,4092,,,,93,1
5ded58a8217786000b2b2511,4pu90zmqsy,Emily_Honors_Thesis_Part_2,1,105,2020-07-17T14:32:18-07:00,5.9728798866272,5,versionA_stim.csv,IS_JOLVersionA.csv,"ITEM SPECIFIC Version A",OLD,SHERIFF,POLICE,Buffer2,Buffer,87,91,JOL,User,-,"How likely are you to correctly recall the second item in the pair?|Type your response on a scale from 0-100 and then press Enter.",Study/JOL,BUFFER2,4710,,,3223,4195,,,,95,1
5ded58a8217786000b2b2511,4pu90zmqsy,Emily_Honors_Thesis_Part_2,1,106,2020-07-17T14:32:24-07:00,5.9720799922943,5,versionA_stim.csv,IS_JOLVersionA.csv,"ITEM SPECIFIC Version A",OLD,THING,STUFF,Buffer2,Buffer,90,89,JOL,User,-,"How likely are you to correctly recall the second item in the pair?|Type your response on a scale from 0-100 and then press Enter.",Study/JOL,BUFFER2,4405,,,3882,3883,,,,7,1
5ded58a8217786000b2b2511,4pu90zmqsy,Emily_Honors_Thesis_Part_2,1,107,2020-07-17T14:32:31-07:00,6.7042660713196,5,versionA_stim.csv,IS_JOLVersionA.csv,"ITEM SPECIFIC Version A",OLD,MOON,SPACE,Buffer2,Buffer,89,87,JOL,User,-,"How likely are you to correctly recall the second item in the pair?|Type your response on a scale from 0-100 and then press Enter.",Study/JOL,BUFFER2,4826,,,3744,4203,,,,97,1
5ded58a8217786000b2b2511,4pu90zmqsy,Emily_Honors_Thesis_Part_2,1,108,2020-07-17T14:32:37-07:00,6.0209760665894,5,versionA_stim.csv,IS_JOLVersionA.csv,"ITEM SPECIFIC Version A",OLD,GEESE,GOOSE,Buffer2,Buffer,86,88,JOL,User,-,"How likely are you to correctly recall the second item in the pair?|Type your response on a scale from 0-100 and then press Enter.",Study/JOL,BUFFER2,4697,,,3133,4113,,,,100,1
5ded58a8217786000b2b2511,4pu90zmqsy,Emily_Honors_Thesis_Part_2,1,109,2020-07-17T14:32:44-07:00,7.5272448062897,5,versionA_stim.csv,IS_JOLVersionA.csv,"ITEM SPECIFIC Version A",OLD,MALT,CHOCOLATE,Buffer2,Buffer,88,90,JOL,User,-,"How likely are you to correctly recall the second item in the pair?|Type your response on a scale from 0-100 and then press Enter.",Study/JOL,BUFFER2,6460,,,4685,5272,,,,15,1
5ded58a8217786000b2b2511,4pu90zmqsy,Emily_Honors_Thesis_Part_2,1,110,2020-07-17T14:32:51-07:00,6.6723110675812,5,versionA_stim.csv,IS_JOLVersionA.csv,"ITEM SPECIFIC Version A",OLD,,,,,,0,Instruct,User,-,"You have completed this section. Please press Enter.",Filler_Instruction,Instruct5,3594,,,-1,-1,,,,,1
5ded58a8217786000b2b2511,4pu90zmqsy,Emily_Honors_Thesis_Part_2,1,111,2020-07-17T14:34:53-07:00,122.44770503044,5,versionA_stim.csv,IS_JOLVersionA.csv,"ITEM SPECIFIC Version A",OLD,,,,,,0,FreeRecall,-,10,"What were you supposed to focus on while you studied each pair? (Hint: Think back to the instructions). Type your answer in the space below.",,CHECK3,120901,"Looking at the two words shown as to how likely you would remember the second one when shown the first word later on a scale of 0-100 where 100 is highly likely to remember and 0 is no way would I remember. ",0,11310,102268,0,0,,,1
5ded58a8217786000b2b2511,4pu90zmqsy,Emily_Honors_Thesis_Part_2,1,112,2020-07-17T14:34:58-07:00,4.622358083725,5,versionA_stim.csv,IS_JOLVersionA.csv,"ITEM SPECIFIC Version A",OLD,,,,,,0,Instruct,User,-,"You have completed this section. Please press Enter.",Filler_Instruction,Instruct2,3454,,,-1,-1,,,,,1
5ded58a8217786000b2b2511,4pu90zmqsy,Emily_Honors_Thesis_Part_2,1,113,2020-07-17T14:36:59-07:00,120.98092699051,5,versionA_stim.csv,IS_JOLVersionA.csv,"ITEM SPECIFIC Version A",OLD,,,,,,0,FreeRecall,120,120,"Please list the 50 US states in alphabetical order. The task will automatically advance to the next screen after two minutes.",,Filler1,120005,"I'm from the UK so this is difficult but......Alaska, California, Kansas, Dallas,Oregon, Pennsylvania, Texas, Washington, ",0,13081,119156,0,0,,,1
5ded58a8217786000b2b2511,4pu90zmqsy,Emily_Honors_Thesis_Part_2,1,114,2020-07-17T14:37:13-07:00,14.435503005981,5,versionA_stim.csv,IS_JOLVersionA.csv,"ITEM SPECIFIC Version A",OLD,,,,,,0,Instruct,-,10,"You will now be presented with the first word from each of the previously studied item pairs. Please type the missing word. If you do not know the word, you may guess or press Enter to skip forward to the next pair.",,Instruct3,13234,,,-1,-1,,,,,1
5ded58a8217786000b2b2511,4pu90zmqsy,Emily_Honors_Thesis_Part_2,1,115,2020-07-17T14:37:23-07:00,9.7598738670349,5,versionA_stim.csv,IS_JOLVersionA.csv,"ITEM SPECIFIC Version A",OLD,SUGAR,RIDDLE,ON,U,81,85,Test,User,-,,Recall,Recall1,8587,SWEET,18.181818181818,4949,5891,0,0,,,1
5ded58a8217786000b2b2511,4pu90zmqsy,Emily_Honors_Thesis_Part_2,1,116,2020-07-17T14:37:34-07:00,10.499047994614,5,versionA_stim.csv,IS_JOLVersionA.csv,"ITEM SPECIFIC Version A",OLD,KEY,LATCH,ON,B,36,7,Test,User,-,,Recall,Recall1,9273,LOCK,44.444444444444,5807,7092,0,0,,,1
5ded58a8217786000b2b2511,4pu90zmqsy,Emily_Honors_Thesis_Part_2,1,117,2020-07-17T14:37:42-07:00,8.4962611198425,5,versionA_stim.csv,IS_JOLVersionA.csv,"ITEM SPECIFIC Version A",OLD,BUG,WASP,ON,B,32,15,Test,User,-,,Recall,Recall1,7125,BEE,0,2349,3183,0,0,,,1
5ded58a8217786000b2b2511,4pu90zmqsy,Emily_Honors_Thesis_Part_2,1,118,2020-07-17T14:37:53-07:00,10.917575836182,5,versionA_stim.csv,IS_JOLVersionA.csv,"ITEM SPECIFIC Version A",OLD,POP,SODA,ON,S,56,33,Test,User,-,,Recall,Recall1,9976,CORN,25,5726,6401,0,0,,,1
5ded58a8217786000b2b2511,4pu90zmqsy,Emily_Honors_Thesis_Part_2,1,119,2020-07-17T14:38:01-07:00,7.5135631561279,5,versionA_stim.csv,IS_JOLVersionA.csv,"ITEM SPECIFIC Version A",OLD,HEIGHT,GROWTH,ON,B,30,44,Test,User,-,,Recall,Recall1,5576,TALL,20,3113,4010,0,0,,,1
5ded58a8217786000b2b2511,4pu90zmqsy,Emily_Honors_Thesis_Part_2,1,120,2020-07-17T14:38:10-07:00,9.6736218929291,5,versionA_stim.csv,IS_JOLVersionA.csv,"ITEM SPECIFIC Version A",OLD,KING,VASE,ON,U,85,55,Test,User,-,,Recall,Recall1,8704,PAWN,25,6401,7305,0,0,,,1
5ded58a8217786000b2b2511,4pu90zmqsy,Emily_Honors_Thesis_Part_2,1,121,2020-07-17T14:38:40-07:00,30.255594015121,5,versionA_stim.csv,IS_JOLVersionA.csv,"ITEM SPECIFIC Version A",OLD,MATH,DIVISION,ON,B,33,60,Test,User,-,,Recall,Recall1,29248,MULTIPLY,12.5,22984,25502,0,0,,,1
5ded58a8217786000b2b2511,4pu90zmqsy,Emily_Honors_Thesis_Part_2,1,122,2020-07-17T14:38:48-07:00,7.4186661243439,5,versionA_stim.csv,IS_JOLVersionA.csv,"ITEM SPECIFIC Version A",OLD,CHISEL,HAMMER,ON,F,9,42,Test,User,-,,Recall,Recall1,6440,HAMMER,100,4144,5273,1,1,,,1
5ded58a8217786000b2b2511,4pu90zmqsy,Emily_Honors_Thesis_Part_2,1,123,2020-07-17T14:38:58-07:00,10.282178878784,5,versionA_stim.csv,IS_JOLVersionA.csv,"ITEM SPECIFIC Version A",OLD,ART,LION,ON,U,79,76,Test,User,-,,Recall,Recall1,9341,DESIGN,40,6051,7174,0,0,,,1
5ded58a8217786000b2b2511,4pu90zmqsy,Emily_Honors_Thesis_Part_2,1,124,2020-07-17T14:39:14-07:00,15.524527072906,5,versionA_stim.csv,IS_JOLVersionA.csv,"ITEM SPECIFIC Version A",OLD,DEATH,BUSINESS,ON,U,72,81,Test,User,-,,Recall,Recall1,14567,AUTOPSY,26.666666666667,11278,13180,0,0,,,1
5ded58a8217786000b2b2511,4pu90zmqsy,Emily_Honors_Thesis_Part_2,1,125,2020-07-17T14:39:30-07:00,16.716472864151,5,versionA_stim.csv,IS_JOLVersionA.csv,"ITEM SPECIFIC Version A",OLD,CLOTHES,ATTIRE,ON,B,43,72,Test,User,-,,Recall,Recall1,15773,,0,-1,-1,0,0,,,1
5ded58a8217786000b2b2511,4pu90zmqsy,Emily_Honors_Thesis_Part_2,1,126,2020-07-17T14:39:39-07:00,8.7639241218567,5,versionA_stim.csv,IS_JOLVersionA.csv,"ITEM SPECIFIC Version A",OLD,BABY,CHILD,ON,S,64,27,Test,User,-,,Recall,Recall1,7856,TODDLER,16.666666666667,3723,5204,0,0,,,1
5ded58a8217786000b2b2511,4pu90zmqsy,Emily_Honors_Thesis_Part_2,1,127,2020-07-17T14:39:51-07:00,11.411959886551,5,versionA_stim.csv,IS_JOLVersionA.csv,"ITEM SPECIFIC Version A",OLD,TAKE,SEIZE,ON,B,29,26,Test,User,-,,Recall,Recall1,10495,GIVE,44.444444444444,6602,9390,0,0,,,1
5ded58a8217786000b2b2511,4pu90zmqsy,Emily_Honors_Thesis_Part_2,1,128,2020-07-17T14:39:57-07:00,6.5613770484924,5,versionA_stim.csv,IS_JOLVersionA.csv,"ITEM SPECIFIC Version A",OLD,DUE,ASSIGNMENT,ON,S,46,50,Test,User,-,,Recall,Recall1,5659,AMOUNT,50,2834,4446,0,0,,,1
5ded58a8217786000b2b2511,4pu90zmqsy,Emily_Honors_Thesis_Part_2,1,129,2020-07-17T14:40:05-07:00,7.4360811710358,5,versionA_stim.csv,IS_JOLVersionA.csv,"ITEM SPECIFIC Version A",OLD,DISCOVER,FLOOR,ON,U,71,73,Test,User,-,,Recall,Recall1,6529,FIND,22.222222222222,2785,3683,0,0,,,1
5ded58a8217786000b2b2511,4pu90zmqsy,Emily_Honors_Thesis_Part_2,1,130,2020-07-17T14:40:15-07:00,10.125196933746,5,versionA_stim.csv,IS_JOLVersionA.csv,"ITEM SPECIFIC Version A",OLD,GREAT,FANTASTIC,ON,B,35,36,Test,User,-,,Recall,Recall1,9132,,0,-1,-1,0,0,,,1
5ded58a8217786000b2b2511,4pu90zmqsy,Emily_Honors_Thesis_Part_2,1,131,2020-07-17T14:40:26-07:00,11.64170384407,5,versionA_stim.csv,IS_JOLVersionA.csv,"ITEM SPECIFIC Version A",OLD,LIFT,WOMAN,ON,U,69,9,Test,User,-,,Recall,Recall1,10718,,0,-1,-1,0,0,,,1
5ded58a8217786000b2b2511,4pu90zmqsy,Emily_Honors_Thesis_Part_2,1,132,2020-07-17T14:40:35-07:00,8.7109701633453,5,versionA_stim.csv,IS_JOLVersionA.csv,"ITEM SPECIFIC Version A",OLD,DIETARY,SACKING,ON,U,67,74,Test,User,-,,Recall,Recall1,7790,NUTRITION,12.5,3233,5890,0,0,,,1
5ded58a8217786000b2b2511,4pu90zmqsy,Emily_Honors_Thesis_Part_2,1,133,2020-07-17T14:40:43-07:00,7.9418020248413,5,versionA_stim.csv,IS_JOLVersionA.csv,"ITEM SPECIFIC Version A",OLD,LETTUCE,SALAD,ON,S,59,24,Test,User,-,,Recall,Recall1,6990,SALAD,100,3074,4672,1,1,,,1
5ded58a8217786000b2b2511,4pu90zmqsy,Emily_Honors_Thesis_Part_2,1,134,2020-07-17T14:40:50-07:00,7.0636019706726,5,versionA_stim.csv,IS_JOLVersionA.csv,"ITEM SPECIFIC Version A",OLD,REVOLUTION,WAR,ON,F,20,68,Test,User,-,,Recall,Recall1,6125,WAR,100,3318,3962,1,1,,,1
5ded58a8217786000b2b2511,4pu90zmqsy,Emily_Honors_Thesis_Part_2,1,135,2020-07-17T14:40:59-07:00,8.7790749073029,5,versionA_stim.csv,IS_JOLVersionA.csv,"ITEM SPECIFIC Version A",OLD,ARTERY,BRONZE,ON,U,74,17,Test,User,-,,Recall,Recall1,7819,VESSEL,16.666666666667,5206,6505,0,0,,,1
5ded58a8217786000b2b2511,4pu90zmqsy,Emily_Honors_Thesis_Part_2,1,136,2020-07-17T14:41:05-07:00,6.1741139888763,5,versionA_stim.csv,IS_JOLVersionA.csv,"ITEM SPECIFIC Version A",OLD,DUMP,WASTE,ON,S,49,14,Test,User,-,,Recall,Recall1,5196,WASTE,100,2755,3726,1,1,,,1
5ded58a8217786000b2b2511,4pu90zmqsy,Emily_Honors_Thesis_Part_2,1,137,2020-07-17T14:41:13-07:00,7.5944199562073,5,versionA_stim.csv,IS_JOLVersionA.csv,"ITEM SPECIFIC Version A",OLD,FULL,ENOUGH,ON,B,26,25,Test,User,-,,Recall,Recall1,6660,,0,-1,-1,0,0,,,1
5ded58a8217786000b2b2511,4pu90zmqsy,Emily_Honors_Thesis_Part_2,1,138,2020-07-17T14:41:18-07:00,5.059109210968,5,versionA_stim.csv,IS_JOLVersionA.csv,"ITEM SPECIFIC Version A",OLD,TRIAL,JURY,ON,S,50,16,Test,User,-,,Recall,Recall1,4087,JURY,100,1722,2471,1,1,,,1
5ded58a8217786000b2b2511,4pu90zmqsy,Emily_Honors_Thesis_Part_2,1,139,2020-07-17T14:41:24-07:00,6.6122539043427,5,versionA_stim.csv,IS_JOLVersionA.csv,"ITEM SPECIFIC Version A",OLD,SWAN,BIRD,ON,F,14,18,Test,User,-,,Recall,Recall1,5626,NECK,0,2333,3213,0,0,,,1
5ded58a8217786000b2b2511,4pu90zmqsy,Emily_Honors_Thesis_Part_2,1,140,2020-07-17T14:41:32-07:00,8.0572688579559,5,versionA_stim.csv,IS_JOLVersionA.csv,"ITEM SPECIFIC Version A",OLD,SHOE,FOOT,ON,S,60,71,Test,User,-,,Recall,Recall1,7084,SIZE,0,4030,5096,0,0,,,1
5ded58a8217786000b2b2511,4pu90zmqsy,Emily_Honors_Thesis_Part_2,1,141,2020-07-17T14:41:41-07:00,8.4388151168823,5,versionA_stim.csv,IS_JOLVersionA.csv,"ITEM SPECIFIC Version A",OLD,SENTENCE,WORD,ON,B,31,30,Test,User,-,,Recall,Recall1,7483,WORD,100,4806,5506,1,1,,,1
5ded58a8217786000b2b2511,4pu90zmqsy,Emily_Honors_Thesis_Part_2,1,142,2020-07-17T14:41:50-07:00,9.463574886322,5,versionA_stim.csv,IS_JOLVersionA.csv,"ITEM SPECIFIC Version A",OLD,MEANING,DEFINITION,ON,S,62,47,Test,User,-,,Recall,Recall1,7272,DEFINITION,100,2942,5525,1,1,,,1
5ded58a8217786000b2b2511,4pu90zmqsy,Emily_Honors_Thesis_Part_2,1,143,2020-07-17T14:42:16-07:00,25.375999212265,5,versionA_stim.csv,IS_JOLVersionA.csv,"ITEM SPECIFIC Version A",OLD,WORK,CHORE,ON,B,39,63,Test,User,-,,Recall,Recall1,24475,JOB,25,21009,21985,0,0,,,1
5ded58a8217786000b2b2511,4pu90zmqsy,Emily_Honors_Thesis_Part_2,1,144,2020-07-17T14:42:28-07:00,12.10688495636,5,versionA_stim.csv,IS_JOLVersionA.csv,"ITEM SPECIFIC Version A",OLD,GRILL,BAR,ON,S,52,66,Test,User,-,,Recall,Recall1,10960,,0,-1,-1,0,0,,,1
5ded58a8217786000b2b2511,4pu90zmqsy,Emily_Honors_Thesis_Part_2,1,145,2020-07-17T14:43:00-07:00,32.552422046661,5,versionA_stim.csv,IS_JOLVersionA.csv,"ITEM SPECIFIC Version A",OLD,SMELL,STENCH,ON,B,42,56,Test,User,-,,Recall,Recall1,31610,FESTER,50,27623,29236,0,0,,,1
5ded58a8217786000b2b2511,4pu90zmqsy,Emily_Honors_Thesis_Part_2,1,146,2020-07-17T14:43:08-07:00,7.9127860069275,5,versionA_stim.csv,IS_JOLVersionA.csv,"ITEM SPECIFIC Version A",OLD,MACHINE,POSITION,ON,U,76,39,Test,User,-,,Recall,Recall1,6704,TOOLS,30.769230769231,2942,4629,0,0,,,1
5ded58a8217786000b2b2511,4pu90zmqsy,Emily_Honors_Thesis_Part_2,1,147,2020-07-17T14:43:19-07:00,10.41983294487,5,versionA_stim.csv,IS_JOLVersionA.csv,"ITEM SPECIFIC Version A",OLD,DISCUSSION,TALK,ON,F,21,13,Test,User,-,,Recall,Recall1,9440,FORUM,0,5177,7321,0,0,,,1
5ded58a8217786000b2b2511,4pu90zmqsy,Emily_Honors_Thesis_Part_2,1,148,2020-07-17T14:43:38-07:00,19.239384889603,5,versionA_stim.csv,IS_JOLVersionA.csv,"ITEM SPECIFIC Version A",OLD,DRINK,SIP,ON,B,27,51,Test,User,-,,Recall,Recall1,18117,APPETITE,18.181818181818,13627,15763,0,0,,,1
5ded58a8217786000b2b2511,4pu90zmqsy,Emily_Honors_Thesis_Part_2,1,149,2020-07-17T14:43:46-07:00,8.0170300006866,5,versionA_stim.csv,IS_JOLVersionA.csv,"ITEM SPECIFIC Version A",OLD,DEBATE,SIGHT,ON,U,73,65,Test,User,-,,Recall,Recall1,6867,DISCUSSION,26.666666666667,3094,5153,0,0,,,1
5ded58a8217786000b2b2511,4pu90zmqsy,Emily_Honors_Thesis_Part_2,1,150,2020-07-17T14:43:53-07:00,7.1592290401459,5,versionA_stim.csv,IS_JOLVersionA.csv,"ITEM SPECIFIC Version A",OLD,ALLOW,TUCK,ON,U,78,41,Test,User,-,,Recall,Recall1,6230,,0,-1,-1,0,0,,,1
5ded58a8217786000b2b2511,4pu90zmqsy,Emily_Honors_Thesis_Part_2,1,151,2020-07-17T14:44:03-07:00,9.8315780162811,5,versionA_stim.csv,IS_JOLVersionA.csv,"ITEM SPECIFIC Version A",OLD,BALL,RACKET,ON,B,38,23,Test,User,-,,Recall,Recall1,8817,ROUND,18.181818181818,6461,7526,0,0,,,1
5ded58a8217786000b2b2511,4pu90zmqsy,Emily_Honors_Thesis_Part_2,1,152,2020-07-17T14:44:12-07:00,9.1833989620209,5,versionA_stim.csv,IS_JOLVersionA.csv,"ITEM SPECIFIC Version A",OLD,SLEEP,DROWSY,ON,B,41,82,Test,User,-,,Recall,Recall1,8070,,0,-1,-1,0,0,,,1
5ded58a8217786000b2b2511,4pu90zmqsy,Emily_Honors_Thesis_Part_2,1,153,2020-07-17T14:44:19-07:00,6.7568259239197,5,versionA_stim.csv,IS_JOLVersionA.csv,"ITEM SPECIFIC Version A",OLD,HIDE,SICK,ON,U,84,78,Test,User,-,,Recall,Recall1,5768,SEEK,50,2235,2876,0,0,,,1
5ded58a8217786000b2b2511,4pu90zmqsy,Emily_Honors_Thesis_Part_2,1,154,2020-07-17T14:44:27-07:00,7.762344121933,5,versionA_stim.csv,IS_JOLVersionA.csv,"ITEM SPECIFIC Version A",OLD,ORCHID,FLOWER,ON,F,24,10,Test,User,-,,Recall,Recall1,6749,FLOWER,100,3388,4624,1,1,,,1
5ded58a8217786000b2b2511,4pu90zmqsy,Emily_Honors_Thesis_Part_2,1,155,2020-07-17T14:44:41-07:00,14.287154912949,5,versionA_stim.csv,IS_JOLVersionA.csv,"ITEM SPECIFIC Version A",OLD,PUSHER,CLUTTER,ON,U,66,52,Test,User,-,,Recall,Recall1,13339,PRAM,18.181818181818,10613,11808,0,0,,,1
5ded58a8217786000b2b2511,4pu90zmqsy,Emily_Honors_Thesis_Part_2,1,156,2020-07-17T14:44:53-07:00,11.882961988449,5,versionA_stim.csv,IS_JOLVersionA.csv,"ITEM SPECIFIC Version A",OLD,WAY,OUT,ON,F,16,83,Test,User,-,,Recall,Recall1,10649,OUT,100,5694,9140,1,1,,,1
5ded58a8217786000b2b2511,4pu90zmqsy,Emily_Honors_Thesis_Part_2,1,157,2020-07-17T14:45:01-07:00,7.8837502002716,5,versionA_stim.csv,IS_JOLVersionA.csv,"ITEM SPECIFIC Version A",OLD,STRONG,ACCIDENT,ON,U,80,31,Test,User,-,,Recall,Recall1,6862,,0,-1,-1,0,0,,,1
5ded58a8217786000b2b2511,4pu90zmqsy,Emily_Honors_Thesis_Part_2,1,158,2020-07-17T14:45:08-07:00,7.1486299037933,5,versionA_stim.csv,IS_JOLVersionA.csv,"ITEM SPECIFIC Version A",OLD,SOON,BELT,ON,U,70,34,Test,User,-,,Recall,Recall1,6083,BEFORE,40,2526,4025,0,0,,,1
5ded58a8217786000b2b2511,4pu90zmqsy,Emily_Honors_Thesis_Part_2,1,159,2020-07-17T14:45:17-07:00,9.0550870895386,5,versionA_stim.csv,IS_JOLVersionA.csv,"ITEM SPECIFIC Version A",OLD,BITTER,COLD,ON,F,12,38,Test,User,-,,Recall,Recall1,8120,STRONG,20,4546,6493,0,0,,,1
5ded58a8217786000b2b2511,4pu90zmqsy,Emily_Honors_Thesis_Part_2,1,160,2020-07-17T14:45:25-07:00,8.2148838043213,5,versionA_stim.csv,IS_JOLVersionA.csv,"ITEM SPECIFIC Version A",OLD,BRIDGE,WATER,ON,F,18,29,Test,User,-,,Recall,Recall1,7215,WATER,100,4491,5417,1,1,,,1
5ded58a8217786000b2b2511,4pu90zmqsy,Emily_Honors_Thesis_Part_2,1,161,2020-07-17T14:45:33-07:00,7.6210331916809,5,versionA_stim.csv,IS_JOLVersionA.csv,"ITEM SPECIFIC Version A",OLD,BLOW,WIND,ON,S,55,58,Test,User,-,,Recall,Recall1,6641,,0,-1,-1,0,0,,,1
5ded58a8217786000b2b2511,4pu90zmqsy,Emily_Honors_Thesis_Part_2,1,162,2020-07-17T14:45:55-07:00,22.591375827789,5,versionA_stim.csv,IS_JOLVersionA.csv,"ITEM SPECIFIC Version A",OLD,LAW,ATTORNEY,ON,B,34,8,Test,User,-,,Recall,Recall1,21623,,0,-1,-1,0,0,,,1
5ded58a8217786000b2b2511,4pu90zmqsy,Emily_Honors_Thesis_Part_2,1,163,2020-07-17T14:46:08-07:00,12.899536132812,5,versionA_stim.csv,IS_JOLVersionA.csv,"ITEM SPECIFIC Version A",OLD,BEGIN,END,ON,S,54,80,Test,User,-,,Recall,Recall1,11749,START,0,9645,10667,0,0,,,1
5ded58a8217786000b2b2511,4pu90zmqsy,Emily_Honors_Thesis_Part_2,1,164,2020-07-17T14:46:17-07:00,8.6537599563599,5,versionA_stim.csv,IS_JOLVersionA.csv,"ITEM SPECIFIC Version A",OLD,PLANE,PILOT,ON,B,44,11,Test,User,-,,Recall,Recall1,7706,TRAVEL,18.181818181818,4215,5867,0,0,,,1
5ded58a8217786000b2b2511,4pu90zmqsy,Emily_Honors_Thesis_Part_2,1,165,2020-07-17T14:46:26-07:00,9.7177090644836,5,versionA_stim.csv,IS_JOLVersionA.csv,"ITEM SPECIFIC Version A",OLD,ROOT,PLANT,ON,F,13,49,Test,User,-,,Recall,Recall1,8802,STABLE,18.181818181818,5725,7119,0,0,,,1
5ded58a8217786000b2b2511,4pu90zmqsy,Emily_Honors_Thesis_Part_2,1,166,2020-07-17T14:46:44-07:00,17.589916944504,5,versionA_stim.csv,IS_JOLVersionA.csv,"ITEM SPECIFIC Version A",OLD,HOT,CHILI,ON,B,37,48,Test,User,-,,Recall,Recall1,16649,,0,-1,-1,0,0,,,1
5ded58a8217786000b2b2511,4pu90zmqsy,Emily_Honors_Thesis_Part_2,1,167,2020-07-17T14:46:51-07:00,7.387619972229,5,versionA_stim.csv,IS_JOLVersionA.csv,"ITEM SPECIFIC Version A",OLD,HYGIENE,CLEAN,ON,F,17,70,Test,User,-,,Recall,Recall1,6352,CLEAN,100,3991,5163,1,1,,,1
5ded58a8217786000b2b2511,4pu90zmqsy,Emily_Honors_Thesis_Part_2,1,168,2020-07-17T14:46:58-07:00,6.0373930931091,5,versionA_stim.csv,IS_JOLVersionA.csv,"ITEM SPECIFIC Version A",OLD,KIDNEY,LIVER,ON,S,53,35,Test,User,-,,Recall,Recall1,5050,LIVER,100,2233,3414,1,1,,,1
5ded58a8217786000b2b2511,4pu90zmqsy,Emily_Honors_Thesis_Part_2,1,169,2020-07-17T14:47:09-07:00,11.557577848434,5,versionA_stim.csv,IS_JOLVersionA.csv,"ITEM SPECIFIC Version A",OLD,VALLEY,ADD,ON,U,82,22,Test,User,-,,Recall,Recall1,10583,,0,-1,-1,0,0,,,1
5ded58a8217786000b2b2511,4pu90zmqsy,Emily_Honors_Thesis_Part_2,1,170,2020-07-17T14:47:20-07:00,10.609502077103,5,versionA_stim.csv,IS_JOLVersionA.csv,"ITEM SPECIFIC Version A",OLD,GEOLOGY,ROCK,ON,F,19,59,Test,User,-,,Recall,Recall1,9598,STONE,22.222222222222,4460,7281,0,0,,,1
5ded58a8217786000b2b2511,4pu90zmqsy,Emily_Honors_Thesis_Part_2,1,171,2020-07-17T14:47:33-07:00,13.124922990799,5,versionA_stim.csv,IS_JOLVersionA.csv,"ITEM SPECIFIC Version A",OLD,NUMBER,AMOUNT,ON,S,47,43,Test,User,-,,Recall,Recall1,12091,DECIMAL,15.384615384615,9430,10996,0,0,,,1
5ded58a8217786000b2b2511,4pu90zmqsy,Emily_Honors_Thesis_Part_2,1,172,2020-07-17T14:47:51-07:00,17.705887079239,5,versionA_stim.csv,IS_JOLVersionA.csv,"ITEM SPECIFIC Version A",OLD,HERD,COW,ON,F,22,19,Test,User,-,,Recall,Recall1,16734,GATHER,0,6759,15576,0,0,,,1
5ded58a8217786000b2b2511,4pu90zmqsy,Emily_Honors_Thesis_Part_2,1,173,2020-07-17T14:48:08-07:00,17.122826814651,5,versionA_stim.csv,IS_JOLVersionA.csv,"ITEM SPECIFIC Version A",OLD,CASH,WOULD,ON,U,83,32,Test,User,-,,Recall,Recall1,16166,,0,-1,-1,0,0,,,1
5ded58a8217786000b2b2511,4pu90zmqsy,Emily_Honors_Thesis_Part_2,1,174,2020-07-17T14:48:14-07:00,6.8434000015259,5,versionA_stim.csv,IS_JOLVersionA.csv,"ITEM SPECIFIC Version A",OLD,ARCHITECTURE,DESIGN,ON,S,51,37,Test,User,-,,Recall,Recall1,5854,DESIGN,100,2688,3943,1,1,,,1
5ded58a8217786000b2b2511,4pu90zmqsy,Emily_Honors_Thesis_Part_2,1,175,2020-07-17T14:48:29-07:00,14.111285209656,5,versionA_stim.csv,IS_JOLVersionA.csv,"ITEM SPECIFIC Version A",OLD,PAST,FUTURE,ON,S,61,46,Test,User,-,,Recall,Recall1,13172,,0,-1,-1,0,0,,,1
5ded58a8217786000b2b2511,4pu90zmqsy,Emily_Honors_Thesis_Part_2,1,176,2020-07-17T14:48:35-07:00,5.9303498268127,5,versionA_stim.csv,IS_JOLVersionA.csv,"ITEM SPECIFIC Version A",OLD,TUNA,FISH,ON,F,25,86,Test,User,-,,Recall,Recall1,4812,FISH,100,2085,2962,1,1,,,1
5ded58a8217786000b2b2511,4pu90zmqsy,Emily_Honors_Thesis_Part_2,1,177,2020-07-17T14:48:43-07:00,8.4610450267792,5,versionA_stim.csv,IS_JOLVersionA.csv,"ITEM SPECIFIC Version A",OLD,FIX,HAND,ON,U,75,84,Test,User,-,,Recall,Recall1,7536,ALTER,22.222222222222,3801,4722,0,0,,,1
5ded58a8217786000b2b2511,4pu90zmqsy,Emily_Honors_Thesis_Part_2,1,178,2020-07-17T14:48:57-07:00,13.971583127975,5,versionA_stim.csv,IS_JOLVersionA.csv,"ITEM SPECIFIC Version A",OLD,BATHROOM,TOILET,ON,S,58,67,Test,User,-,,Recall,Recall1,11993,TOILET,100,8759,9998,1,1,,,1
5ded58a8217786000b2b2511,4pu90zmqsy,Emily_Honors_Thesis_Part_2,1,179,2020-07-17T14:49:14-07:00,17.138719797134,5,versionA_stim.csv,IS_JOLVersionA.csv,"ITEM SPECIFIC Version A",OLD,DARK,CAVE,ON,B,28,75,Test,User,-,,Recall,Recall1,16185,CAVE,100,14174,15098,1,1,,,1
5ded58a8217786000b2b2511,4pu90zmqsy,Emily_Honors_Thesis_Part_2,1,180,2020-07-17T14:49:27-07:00,12.476528167725,5,versionA_stim.csv,IS_JOLVersionA.csv,"ITEM SPECIFIC Version A",OLD,EDITOR,NEWS,ON,F,10,62,Test,User,-,,Recall,Recall1,11482,,0,-1,-1,0,0,,,1
5ded58a8217786000b2b2511,4pu90zmqsy,Emily_Honors_Thesis_Part_2,1,181,2020-07-17T14:49:36-07:00,9.0237529277802,5,versionA_stim.csv,IS_JOLVersionA.csv,"ITEM SPECIFIC Version A",OLD,HAPPY,CAR,ON,U,77,64,Test,User,-,,Recall,Recall1,7981,SMILE,0,5254,6397,0,0,,,1
5ded58a8217786000b2b2511,4pu90zmqsy,Emily_Honors_Thesis_Part_2,1,182,2020-07-17T14:49:48-07:00,12.801383972168,5,versionA_stim.csv,IS_JOLVersionA.csv,"ITEM SPECIFIC Version A",OLD,WINE,CHEESE,ON,S,57,69,Test,User,-,,Recall,Recall1,10103,TASTE,36.363636363636,7488,8273,0,0,,,1
5ded58a8217786000b2b2511,4pu90zmqsy,Emily_Honors_Thesis_Part_2,1,183,2020-07-17T14:50:01-07:00,12.54892706871,5,versionA_stim.csv,IS_JOLVersionA.csv,"ITEM SPECIFIC Version A",OLD,DELINQUENT,BAD,ON,F,6,53,Test,User,-,,Recall,Recall1,11625,,0,-1,-1,0,0,,,1
5ded58a8217786000b2b2511,4pu90zmqsy,Emily_Honors_Thesis_Part_2,1,184,2020-07-17T14:50:13-07:00,12.107842922211,5,versionA_stim.csv,IS_JOLVersionA.csv,"ITEM SPECIFIC Version A",OLD,HUNGER,FAMINE,ON,B,40,12,Test,User,-,,Recall,Recall1,11189,,0,-1,-1,0,0,,,1
5ded58a8217786000b2b2511,4pu90zmqsy,Emily_Honors_Thesis_Part_2,1,185,2020-07-17T14:50:29-07:00,15.707416057587,5,versionA_stim.csv,IS_JOLVersionA.csv,"ITEM SPECIFIC Version A",OLD,HORNET,STING,ON,F,11,61,Test,User,-,,Recall,Recall1,14705,WASP,22.222222222222,6416,13484,0,0,,,1
5ded58a8217786000b2b2511,4pu90zmqsy,Emily_Honors_Thesis_Part_2,1,186,2020-07-17T14:50:42-07:00,13.683918952942,5,versionA_stim.csv,IS_JOLVersionA.csv,"ITEM SPECIFIC Version A",OLD,LOCATION,SITE,ON,S,48,77,Test,User,-,,Recall,Recall1,12733,,0,-1,-1,0,0,,,1
5ded58a8217786000b2b2511,4pu90zmqsy,Emily_Honors_Thesis_Part_2,1,187,2020-07-17T14:50:49-07:00,6.6764800548553,5,versionA_stim.csv,IS_JOLVersionA.csv,"ITEM SPECIFIC Version A",OLD,HONEY,BEE,ON,S,63,45,Test,User,-,,Recall,Recall1,5687,BEES,85.714285714286,2020,3437,0,1,,,1
5ded58a8217786000b2b2511,4pu90zmqsy,Emily_Honors_Thesis_Part_2,1,188,2020-07-17T14:50:59-07:00,9.64857006073,5,versionA_stim.csv,IS_JOLVersionA.csv,"ITEM SPECIFIC Version A",OLD,WAGE,MONEY,ON,F,8,54,Test,User,-,,Recall,Recall1,8632,MONEY,100,5354,6940,1,1,,,1
5ded58a8217786000b2b2511,4pu90zmqsy,Emily_Honors_Thesis_Part_2,1,189,2020-07-17T14:51:04-07:00,5.2615878582001,5,versionA_stim.csv,IS_JOLVersionA.csv,"ITEM SPECIFIC Version A",OLD,CREDIT,CARD,ON,F,23,20,Test,User,-,,Recall,Recall1,4258,CARD,100,2079,2908,1,1,,,1
5ded58a8217786000b2b2511,4pu90zmqsy,Emily_Honors_Thesis_Part_2,1,190,2020-07-17T14:51:12-07:00,7.5956139564514,5,versionA_stim.csv,IS_JOLVersionA.csv,"ITEM SPECIFIC Version A",OLD,PAW,DOG,ON,F,15,21,Test,User,-,,Recall,Recall1,6615,FOOT,28.571428571429,3789,4473,0,0,,,1
5ded58a8217786000b2b2511,4pu90zmqsy,Emily_Honors_Thesis_Part_2,1,191,2020-07-17T14:51:22-07:00,10.790523052216,5,versionA_stim.csv,IS_JOLVersionA.csv,"ITEM SPECIFIC Version A",OLD,PARK,HUNGRY,ON,U,68,40,Test,User,-,,Recall,Recall1,9767,RIDE,20,6752,7446,0,0,,,1
5ded58a8217786000b2b2511,4pu90zmqsy,Emily_Honors_Thesis_Part_2,1,192,2020-07-17T14:51:29-07:00,6.818834066391,5,versionA_stim.csv,IS_JOLVersionA.csv,"ITEM SPECIFIC Version A",OLD,DIGESTION,STOMACH,ON,F,7,57,Test,User,-,,Recall,Recall1,5801,STOMACH,100,2475,4454,1,1,,,1
5ded58a8217786000b2b2511,4pu90zmqsy,Emily_Honors_Thesis_Part_2,1,193,2020-07-17T14:51:42-07:00,13.144031047821,5,versionA_stim.csv,IS_JOLVersionA.csv,"ITEM SPECIFIC Version A",OLD,FIRE,BLAZE,ON,B,45,79,Test,User,-,,Recall,Recall1,12032,ALERT,40,9767,10681,0,0,,,1
5ded58a8217786000b2b2511,4pu90zmqsy,Emily_Honors_Thesis_Part_2,1,194,2020-07-17T14:51:48-07:00,5.802001953125,5,versionA_stim.csv,IS_JOLVersionA.csv,"ITEM SPECIFIC Version A",OLD,CIRCLE,ROUND,ON,S,65,28,Test,User,-,,Recall,Recall1,4850,ROUND,100,2271,3563,1,1,,,1
5ded58a8217786000b2b2511,4pu90zmqsy,Emily_Honors_Thesis_Part_2,1,195,2020-07-17T14:52:00-07:00,12.021034002304,5,versionA_stim.csv,IS_JOLVersionA.csv,"ITEM SPECIFIC Version A",OLD,,,,,,0,Instruct,-,10,"You will now be presented with a new set of word pairs. Please study each pair. Remember that your memory will be tested! When finished, press Enter to move to the next pair.",Initial_Instruct,Instruct4,11095,,,-1,-1,,,,,1
5ded58a8217786000b2b2511,4pu90zmqsy,Emily_Honors_Thesis_Part_2,1,196,2020-07-17T14:52:13-07:00,12.35124206543,5,versionA_stim.csv,IS_JOLVersionA.csv,"ITEM SPECIFIC Version A",OLD,,,,,,0,Instruct,,10,"You will again be asked to rate your ability to remember these items using a 0 to 100 scale. Remember to use the full range of the scale!",,Instruct10,11412,,,-1,-1,,,,,1
5ded58a8217786000b2b2511,4pu90zmqsy,Emily_Honors_Thesis_Part_2,1,197,2020-07-17T14:52:30-07:00,17.602555036545,5,versionA_stim.csv,IS_JOLVersionA.csv,"ITEM SPECIFIC Version A",OLD,,,,,,0,Instruct,-,15,"As you study and make your ratings, please think about the unique featues of each item and how the two concepts are DIFFERENT from each other. For example, if you see the pair TURTLE-CAT, think about how TURTLES have shells and are reptiles, while CATS are mammals and have fur.",,Instruct20,16589,,,-1,-1,,,,,1
5ded58a8217786000b2b2511,4pu90zmqsy,Emily_Honors_Thesis_Part_2,1,198,2020-07-17T14:54:16-07:00,105.44206500053,5,versionA_stim.csv,IS_JOLVersionA.csv,"ITEM SPECIFIC Version A",OLD,,,,,,0,FreeRecall,-,10,"What you should think about as you study each item pair? Type your response in the box below.",,CHECK4,104142,"Compare each item to each other and think how alike or unalike they are then rate how easy or hard it will be to remember the second word when only shown the first word later on a scale of 0 to 100. ",0,3906,100425,0,0,,,1
5ded58a8217786000b2b2511,4pu90zmqsy,Emily_Honors_Thesis_Part_2,1,199,2020-07-17T14:54:19-07:00,3.6515829563141,5,versionA_stim.csv,IS_JOLVersionA.csv,"ITEM SPECIFIC Version A",OLD,,,,,,0,Instruct,User,-,"Press Enter when you are readty to begin",,Instruct11,2113,,,-1,-1,,,,,1
5ded58a8217786000b2b2511,4pu90zmqsy,Emily_Honors_Thesis_Part_2,1,200,2020-07-17T14:55:31-07:00,71.85226392746,5,versionA_stim.csv,IS_JOLVersionA.csv,"ITEM SPECIFIC Version A",OLD,TOOL,SHED,Buffer3,Buffer,178,96,JOL,User,-,"How likely are you to correctly recall the second item in the pair?|Type your response on a scale from 0-100 and then press Enter.",Study/JOL,BUFFER3,70668,,,68079,68260,,,,99,0.4
5ded58a8217786000b2b2511,4pu90zmqsy,Emily_Honors_Thesis_Part_2,1,201,2020-07-17T14:55:40-07:00,8.9423530101776,5,versionA_stim.csv,IS_JOLVersionA.csv,"ITEM SPECIFIC Version A",OLD,DAYS,WEAKS,Buffer3,Buffer,176,94,JOL,User,-,"How likely are you to correctly recall the second item in the pair?|Type your response on a scale from 0-100 and then press Enter.",Study/JOL,BUFFER3,7619,,,4049,6693,,,,94,1
5ded58a8217786000b2b2511,4pu90zmqsy,Emily_Honors_Thesis_Part_2,1,202,2020-07-17T14:55:47-07:00,6.975634098053,5,versionA_stim.csv,IS_JOLVersionA.csv,"ITEM SPECIFIC Version A",OLD,SPRING,MARCH,Buffer3,Buffer,179,92,JOL,User,-,"How likely are you to correctly recall the second item in the pair?|Type your response on a scale from 0-100 and then press Enter.",Study/JOL,BUFFER3,6031,,,4653,5416,,,,97,1
5ded58a8217786000b2b2511,4pu90zmqsy,Emily_Honors_Thesis_Part_2,1,203,2020-07-17T14:55:51-07:00,4.4434258937836,5,versionA_stim.csv,IS_JOLVersionA.csv,"ITEM SPECIFIC Version A",OLD,MONTH,YEAR,Buffer3,Buffer,177,95,JOL,User,-,"How likely are you to correctly recall the second item in the pair?|Type your response on a scale from 0-100 and then press Enter.",Study/JOL,BUFFER3,3494,,,1941,2875,,,,100,1
5ded58a8217786000b2b2511,4pu90zmqsy,Emily_Honors_Thesis_Part_2,1,204,2020-07-17T14:55:58-07:00,6.7440490722656,5,versionA_stim.csv,IS_JOLVersionA.csv,"ITEM SPECIFIC Version A",OLD,ICE,FROZEN,Buffer3,Buffer,94,93,JOL,User,-,"How likely are you to correctly recall the second item in the pair?|Type your response on a scale from 0-100 and then press Enter.",Study/JOL,BUFFER3,3943,,,2417,3371,,,,100,1
5ded58a8217786000b2b2511,4pu90zmqsy,Emily_Honors_Thesis_Part_2,1,205,2020-07-17T14:56:03-07:00,4.9528419971466,5,versionA_stim.csv,IS_JOLVersionA.csv,"ITEM SPECIFIC Version A",OLD,FURRY,DOG,ON2,F,102,153,JOL,User,-,"How likely are you to correctly recall the second item in the pair?|Type your response on a scale from 0-100 and then press Enter.",Study/JOL,"Study Phase2",4014,,,2532,3409,,,,96,1
5ded58a8217786000b2b2511,4pu90zmqsy,Emily_Honors_Thesis_Part_2,1,206,2020-07-17T14:56:08-07:00,4.8082368373871,5,versionA_stim.csv,IS_JOLVersionA.csv,"ITEM SPECIFIC Version A",OLD,CHILL,COLD,ON2,F,114,148,JOL,User,-,"How likely are you to correctly recall the second item in the pair?|Type your response on a scale from 0-100 and then press Enter.",Study/JOL,"Study Phase2",3833,,,2366,3310,,,,94,1
5ded58a8217786000b2b2511,4pu90zmqsy,Emily_Honors_Thesis_Part_2,1,207,2020-07-17T14:56:13-07:00,5.2473080158234,5,versionA_stim.csv,IS_JOLVersionA.csv,"ITEM SPECIFIC Version A",OLD,EVEN,REVENGE,ON2,B,122,115,JOL,User,-,"How likely are you to correctly recall the second item in the pair?|Type your response on a scale from 0-100 and then press Enter.",Study/JOL,"Study Phase2",4263,,,2666,3151,,,,87,1
5ded58a8217786000b2b2511,4pu90zmqsy,Emily_Honors_Thesis_Part_2,1,208,2020-07-17T14:56:18-07:00,4.6472141742706,5,versionA_stim.csv,IS_JOLVersionA.csv,"ITEM SPECIFIC Version A",OLD,MONEY,BANKER,ON2,B,132,111,JOL,User,-,"How likely are you to correctly recall the second item in the pair?|Type your response on a scale from 0-100 and then press Enter.",Study/JOL,"Study Phase2",3721,,,2124,3182,,,,93,1
5ded58a8217786000b2b2511,4pu90zmqsy,Emily_Honors_Thesis_Part_2,1,209,2020-07-17T14:56:22-07:00,4.3558218479156,5,versionA_stim.csv,IS_JOLVersionA.csv,"ITEM SPECIFIC Version A",OLD,FEUD,FIGHT,ON2,F,113,119,JOL,User,-,"How likely are you to correctly recall the second item in the pair?|Type your response on a scale from 0-100 and then press Enter.",Study/JOL,"Study Phase2",3486,,,1876,2890,,,,93,1
5ded58a8217786000b2b2511,4pu90zmqsy,Emily_Honors_Thesis_Part_2,1,210,2020-07-17T14:56:26-07:00,3.4866650104523,5,versionA_stim.csv,IS_JOLVersionA.csv,"ITEM SPECIFIC Version A",OLD,LOUD,NOISE,ON2,S,152,151,JOL,User,-,"How likely are you to correctly recall the second item in the pair?|Type your response on a scale from 0-100 and then press Enter.",Study/JOL,"Study Phase2",2582,,,1667,1870,,,,99,1
5ded58a8217786000b2b2511,4pu90zmqsy,Emily_Honors_Thesis_Part_2,1,211,2020-07-17T14:56:31-07:00,4.8693680763245,5,versionA_stim.csv,IS_JOLVersionA.csv,"ITEM SPECIFIC Version A",OLD,CAT,PANTHER,ON2,B,126,171,JOL,User,-,"How likely are you to correctly recall the second item in the pair?|Type your response on a scale from 0-100 and then press Enter.",Study/JOL,"Study Phase2",3908,,,2244,3421,,,,91,1
5ded58a8217786000b2b2511,4pu90zmqsy,Emily_Honors_Thesis_Part_2,1,212,2020-07-17T14:56:35-07:00,4.2288279533386,5,versionA_stim.csv,IS_JOLVersionA.csv,"ITEM SPECIFIC Version A",OLD,MULE,DONKEY,ON2,F,108,125,JOL,User,-,"How likely are you to correctly recall the second item in the pair?|Type your response on a scale from 0-100 and then press Enter.",Study/JOL,"Study Phase2",3251,,,2565,2758,,,,99,1
5ded58a8217786000b2b2511,4pu90zmqsy,Emily_Honors_Thesis_Part_2,1,213,2020-07-17T14:56:39-07:00,4.3867530822754,5,versionA_stim.csv,IS_JOLVersionA.csv,"ITEM SPECIFIC Version A",OLD,OWN,HAVE,ON2,S,153,99,JOL,User,-,"How likely are you to correctly recall the second item in the pair?|Type your response on a scale from 0-100 and then press Enter.",Study/JOL,"Study Phase2",3389,,,2001,2544,,,,97,1
5ded58a8217786000b2b2511,4pu90zmqsy,Emily_Honors_Thesis_Part_2,1,214,2020-07-17T14:56:46-07:00,6.7117948532104,5,versionA_stim.csv,IS_JOLVersionA.csv,"ITEM SPECIFIC Version A",OLD,STAR,ACTRESS,ON2,B,120,139,JOL,User,-,"How likely are you to correctly recall the second item in the pair?|Type your response on a scale from 0-100 and then press Enter.",Study/JOL,"Study Phase2",5746,,,4227,5183,,,,85,1
5ded58a8217786000b2b2511,4pu90zmqsy,Emily_Honors_Thesis_Part_2,1,215,2020-07-17T14:56:51-07:00,5.281553030014,5,versionA_stim.csv,IS_JOLVersionA.csv,"ITEM SPECIFIC Version A",OLD,SHOELACE,TIE,ON2,F,99,170,JOL,User,-,"How likely are you to correctly recall the second item in the pair?|Type your response on a scale from 0-100 and then press Enter.",Study/JOL,"Study Phase2",4247,,,3458,3680,,,,98,1
5ded58a8217786000b2b2511,4pu90zmqsy,Emily_Honors_Thesis_Part_2,1,216,2020-07-17T14:57:00-07:00,8.9311981201172,5,versionA_stim.csv,IS_JOLVersionA.csv,"ITEM SPECIFIC Version A",OLD,SHELL,SHAKE,ON2,U,163,122,JOL,User,-,"How likely are you to correctly recall the second item in the pair?|Type your response on a scale from 0-100 and then press Enter.",Study/JOL,"Study Phase2",7992,,,7444,7444,,,,7,1
5ded58a8217786000b2b2511,4pu90zmqsy,Emily_Honors_Thesis_Part_2,1,217,2020-07-17T14:57:04-07:00,4.2797858715057,5,versionA_stim.csv,IS_JOLVersionA.csv,"ITEM SPECIFIC Version A",OLD,GONE,AWAY,ON2,S,142,165,JOL,User,-,"How likely are you to correctly recall the second item in the pair?|Type your response on a scale from 0-100 and then press Enter.",Study/JOL,"Study Phase2",3298,,,2517,2751,,,,98,1
5ded58a8217786000b2b2511,4pu90zmqsy,Emily_Honors_Thesis_Part_2,1,218,2020-07-17T14:57:09-07:00,4.6366591453552,5,versionA_stim.csv,IS_JOLVersionA.csv,"ITEM SPECIFIC Version A",OLD,SUN,TAN,ON2,S,155,110,JOL,User,-,"How likely are you to correctly recall the second item in the pair?|Type your response on a scale from 0-100 and then press Enter.",Study/JOL,"Study Phase2",3679,,,2342,3196,,,,100,1
5ded58a8217786000b2b2511,4pu90zmqsy,Emily_Honors_Thesis_Part_2,1,219,2020-07-17T14:57:16-07:00,6.9861488342285,5,versionA_stim.csv,IS_JOLVersionA.csv,"ITEM SPECIFIC Version A",OLD,FUZZY,BANG,ON2,U,168,147,JOL,User,-,"How likely are you to correctly recall the second item in the pair?|Type your response on a scale from 0-100 and then press Enter.",Study/JOL,"Study Phase2",6069,,,5088,5476,,,,13,1
5ded58a8217786000b2b2511,4pu90zmqsy,Emily_Honors_Thesis_Part_2,1,220,2020-07-17T14:57:19-07:00,3.2672340869904,5,versionA_stim.csv,IS_JOLVersionA.csv,"ITEM SPECIFIC Version A",OLD,SLEEP,NAP,ON2,B,134,97,JOL,User,-,"How likely are you to correctly recall the second item in the pair?|Type your response on a scale from 0-100 and then press Enter.",Study/JOL,"Study Phase2",2345,,,1657,1869,,,,98,1
5ded58a8217786000b2b2511,4pu90zmqsy,Emily_Honors_Thesis_Part_2,1,221,2020-07-17T14:57:24-07:00,4.3854439258575,5,versionA_stim.csv,IS_JOLVersionA.csv,"ITEM SPECIFIC Version A",OLD,JUSTICE,MAROON,ON2,U,156,136,JOL,User,-,"How likely are you to correctly recall the second item in the pair?|Type your response on a scale from 0-100 and then press Enter.",Study/JOL,"Study Phase2",3499,,,2778,2778,,,,2,1
5ded58a8217786000b2b2511,4pu90zmqsy,Emily_Honors_Thesis_Part_2,1,222,2020-07-17T14:57:31-07:00,7.2568411827087,5,versionA_stim.csv,IS_JOLVersionA.csv,"ITEM SPECIFIC Version A",OLD,CAKE,CLOTHES,ON2,U,166,163,JOL,User,-,"How likely are you to correctly recall the second item in the pair?|Type your response on a scale from 0-100 and then press Enter.",Study/JOL,"Study Phase2",6228,,,3859,4180,,,,21,1
5ded58a8217786000b2b2511,4pu90zmqsy,Emily_Honors_Thesis_Part_2,1,223,2020-07-17T14:57:36-07:00,5.3814418315887,5,versionA_stim.csv,IS_JOLVersionA.csv,"ITEM SPECIFIC Version A",OLD,THREAD,THIMBLE,ON2,B,121,155,JOL,User,-,"How likely are you to correctly recall the second item in the pair?|Type your response on a scale from 0-100 and then press Enter.",Study/JOL,"Study Phase2",4338,,,3649,3898,,,,78,1
5ded58a8217786000b2b2511,4pu90zmqsy,Emily_Honors_Thesis_Part_2,1,224,2020-07-17T14:57:41-07:00,4.2243700027466,5,versionA_stim.csv,IS_JOLVersionA.csv,"ITEM SPECIFIC Version A",OLD,ELEMENT,CARBON,ON2,S,141,142,JOL,User,-,"How likely are you to correctly recall the second item in the pair?|Type your response on a scale from 0-100 and then press Enter.",Study/JOL,"Study Phase2",3392,,,2791,2791,,,,6,1
5ded58a8217786000b2b2511,4pu90zmqsy,Emily_Honors_Thesis_Part_2,1,225,2020-07-17T14:57:44-07:00,3.8057770729065,5,versionA_stim.csv,IS_JOLVersionA.csv,"ITEM SPECIFIC Version A",OLD,LEASE,TOIL,ON2,U,170,121,JOL,User,-,"How likely are you to correctly recall the second item in the pair?|Type your response on a scale from 0-100 and then press Enter.",Study/JOL,"Study Phase2",2936,,,2326,2326,,,,1,1
5ded58a8217786000b2b2511,4pu90zmqsy,Emily_Honors_Thesis_Part_2,1,226,2020-07-17T14:57:50-07:00,5.7345418930054,5,versionA_stim.csv,IS_JOLVersionA.csv,"ITEM SPECIFIC Version A",OLD,BAD,VILLAIN,ON2,B,118,169,JOL,User,-,"How likely are you to correctly recall the second item in the pair?|Type your response on a scale from 0-100 and then press Enter.",Study/JOL,"Study Phase2",3802,,,3074,3335,,,,89,1
5ded58a8217786000b2b2511,4pu90zmqsy,Emily_Honors_Thesis_Part_2,1,227,2020-07-17T14:57:55-07:00,5.1733210086823,5,versionA_stim.csv,IS_JOLVersionA.csv,"ITEM SPECIFIC Version A",OLD,MOAT,CLEAR,ON2,U,169,166,JOL,User,-,"How likely are you to correctly recall the second item in the pair?|Type your response on a scale from 0-100 and then press Enter.",Study/JOL,"Study Phase2",4252,,,3451,3451,,,,4,1
5ded58a8217786000b2b2511,4pu90zmqsy,Emily_Honors_Thesis_Part_2,1,228,2020-07-17T14:58:02-07:00,6.8238101005554,5,versionA_stim.csv,IS_JOLVersionA.csv,"ITEM SPECIFIC Version A",OLD,GIVE,STEAK,ON2,U,158,157,JOL,User,-,"How likely are you to correctly recall the second item in the pair?|Type your response on a scale from 0-100 and then press Enter.",Study/JOL,"Study Phase2",5881,,,5376,5376,,,,0,1
5ded58a8217786000b2b2511,4pu90zmqsy,Emily_Honors_Thesis_Part_2,1,229,2020-07-17T14:58:06-07:00,3.6942338943481,5,versionA_stim.csv,IS_JOLVersionA.csv,"ITEM SPECIFIC Version A",OLD,CLUE,GAME,ON2,F,97,105,JOL,User,-,"How likely are you to correctly recall the second item in the pair?|Type your response on a scale from 0-100 and then press Enter.",Study/JOL,"Study Phase2",2830,,,2083,2327,,,,78,1
5ded58a8217786000b2b2511,4pu90zmqsy,Emily_Honors_Thesis_Part_2,1,230,2020-07-17T14:58:10-07:00,4.1889371871948,5,versionA_stim.csv,IS_JOLVersionA.csv,"ITEM SPECIFIC Version A",OLD,EARTH,GROUND,ON2,S,144,137,JOL,User,-,"How likely are you to correctly recall the second item in the pair?|Type your response on a scale from 0-100 and then press Enter.",Study/JOL,"Study Phase2",3187,,,1899,2648,,,,94,1
5ded58a8217786000b2b2511,4pu90zmqsy,Emily_Honors_Thesis_Part_2,1,231,2020-07-17T14:58:17-07:00,7.1626498699188,5,versionA_stim.csv,IS_JOLVersionA.csv,"ITEM SPECIFIC Version A",OLD,VEHICLE,CHARM,ON2,U,160,167,JOL,User,-,"How likely are you to correctly recall the second item in the pair?|Type your response on a scale from 0-100 and then press Enter.",Study/JOL,"Study Phase2",6164,,,5726,5726,,,,0,1
5ded58a8217786000b2b2511,4pu90zmqsy,Emily_Honors_Thesis_Part_2,1,232,2020-07-17T14:58:21-07:00,3.5244550704956,5,versionA_stim.csv,IS_JOLVersionA.csv,"ITEM SPECIFIC Version A",OLD,NAME,HATE,ON2,U,167,141,JOL,User,-,"How likely are you to correctly recall the second item in the pair?|Type your response on a scale from 0-100 and then press Enter.",Study/JOL,"Study Phase2",2652,,,2096,2096,,,,1,1
5ded58a8217786000b2b2511,4pu90zmqsy,Emily_Honors_Thesis_Part_2,1,233,2020-07-17T14:58:25-07:00,4.3499569892883,5,versionA_stim.csv,IS_JOLVersionA.csv,"ITEM SPECIFIC Version A",OLD,PHONE,COMMUNICATION,ON2,S,149,144,JOL,User,-,"How likely are you to correctly recall the second item in the pair?|Type your response on a scale from 0-100 and then press Enter.",Study/JOL,"Study Phase2",3425,,,2102,2837,,,,93,1
5ded58a8217786000b2b2511,4pu90zmqsy,Emily_Honors_Thesis_Part_2,1,234,2020-07-17T14:58:29-07:00,4.264123916626,5,versionA_stim.csv,IS_JOLVersionA.csv,"ITEM SPECIFIC Version A",OLD,DINE,EAT,ON2,F,111,129,JOL,User,-,"How likely are you to correctly recall the second item in the pair?|Type your response on a scale from 0-100 and then press Enter.",Study/JOL,"Study Phase2",3320,,,1959,2761,,,,96,1
5ded58a8217786000b2b2511,4pu90zmqsy,Emily_Honors_Thesis_Part_2,1,235,2020-07-17T14:58:34-07:00,4.4028151035309,5,versionA_stim.csv,IS_JOLVersionA.csv,"ITEM SPECIFIC Version A",OLD,DETECTIVE,MYSTERY,ON2,F,100,100,JOL,User,-,"How likely are you to correctly recall the second item in the pair?|Type your response on a scale from 0-100 and then press Enter.",Study/JOL,"Study Phase2",3428,,,1888,2861,,,,97,1
5ded58a8217786000b2b2511,4pu90zmqsy,Emily_Honors_Thesis_Part_2,1,236,2020-07-17T14:58:39-07:00,5.0715088844299,5,versionA_stim.csv,IS_JOLVersionA.csv,"ITEM SPECIFIC Version A",OLD,ADJOURN,END,ON2,F,101,154,JOL,User,-,"How likely are you to correctly recall the second item in the pair?|Type your response on a scale from 0-100 and then press Enter.",Study/JOL,"Study Phase2",4103,,,2112,3517,,,,96,1
5ded58a8217786000b2b2511,4pu90zmqsy,Emily_Honors_Thesis_Part_2,1,237,2020-07-17T14:58:42-07:00,3.6012260913849,5,versionA_stim.csv,IS_JOLVersionA.csv,"ITEM SPECIFIC Version A",OLD,DRIVER,CAR,ON2,F,106,158,JOL,User,-,"How likely are you to correctly recall the second item in the pair?|Type your response on a scale from 0-100 and then press Enter.",Study/JOL,"Study Phase2",2517,,,1679,1931,,,,99,1
5ded58a8217786000b2b2511,4pu90zmqsy,Emily_Honors_Thesis_Part_2,1,238,2020-07-17T14:58:47-07:00,4.3600108623505,5,versionA_stim.csv,IS_JOLVersionA.csv,"ITEM SPECIFIC Version A",OLD,FISH,SARDINE,ON2,B,130,123,JOL,User,-,"How likely are you to correctly recall the second item in the pair?|Type your response on a scale from 0-100 and then press Enter.",Study/JOL,"Study Phase2",3430,,,1889,2794,,,,91,1
5ded58a8217786000b2b2511,4pu90zmqsy,Emily_Honors_Thesis_Part_2,1,239,2020-07-17T14:58:53-07:00,6.355654001236,5,versionA_stim.csv,IS_JOLVersionA.csv,"ITEM SPECIFIC Version A",OLD,,,,,,0,Instruct,-,3,"Remember to focus on how the two items are unique while you study and make your ratings!",,CHECK5,5418,,,-1,-1,,,,,1
5ded58a8217786000b2b2511,4pu90zmqsy,Emily_Honors_Thesis_Part_2,1,240,2020-07-17T14:58:59-07:00,5.7040050029755,5,versionA_stim.csv,IS_JOLVersionA.csv,"ITEM SPECIFIC Version A",OLD,LISTEN,FICTION,ON2,U,164,138,JOL,User,-,"How likely are you to correctly recall the second item in the pair?|Type your response on a scale from 0-100 and then press Enter.",Study/JOL,"Study Phase2",4769,,,3568,3569,,,,2,1
5ded58a8217786000b2b2511,4pu90zmqsy,Emily_Honors_Thesis_Part_2,1,241,2020-07-17T14:59:04-07:00,4.9930090904236,5,versionA_stim.csv,IS_JOLVersionA.csv,"ITEM SPECIFIC Version A",OLD,DEAD,COFFIN,ON2,B,128,162,JOL,User,-,"How likely are you to correctly recall the second item in the pair?|Type your response on a scale from 0-100 and then press Enter.",Study/JOL,"Study Phase2",4038,,,2396,3540,,,,97,1
5ded58a8217786000b2b2511,4pu90zmqsy,Emily_Honors_Thesis_Part_2,1,242,2020-07-17T14:59:09-07:00,5.1979570388794,5,versionA_stim.csv,IS_JOLVersionA.csv,"ITEM SPECIFIC Version A",OLD,STRETCH,CLOTH,ON2,U,157,101,JOL,User,-,"How likely are you to correctly recall the second item in the pair?|Type your response on a scale from 0-100 and then press Enter.",Study/JOL,"Study Phase2",4267,,,3391,3717,,,,43,1
5ded58a8217786000b2b2511,4pu90zmqsy,Emily_Honors_Thesis_Part_2,1,243,2020-07-17T14:59:13-07:00,4.1059629917145,5,versionA_stim.csv,IS_JOLVersionA.csv,"ITEM SPECIFIC Version A",OLD,AFFECTION,LOVE,ON2,F,115,106,JOL,User,-,"How likely are you to correctly recall the second item in the pair?|Type your response on a scale from 0-100 and then press Enter.",Study/JOL,"Study Phase2",3136,,,1811,2631,,,,96,1
5ded58a8217786000b2b2511,4pu90zmqsy,Emily_Honors_Thesis_Part_2,1,244,2020-07-17T14:59:17-07:00,4.3892669677734,5,versionA_stim.csv,IS_JOLVersionA.csv,"ITEM SPECIFIC Version A",OLD,DRY,WET,ON2,S,146,175,JOL,User,-,"How likely are you to correctly recall the second item in the pair?|Type your response on a scale from 0-100 and then press Enter.",Study/JOL,"Study Phase2",3468,,,2854,3052,,,,98,1
5ded58a8217786000b2b2511,4pu90zmqsy,Emily_Honors_Thesis_Part_2,1,245,2020-07-17T14:59:21-07:00,3.7592129707336,5,versionA_stim.csv,IS_JOLVersionA.csv,"ITEM SPECIFIC Version A",OLD,WRIST,BRACELET,ON2,S,140,149,JOL,User,-,"How likely are you to correctly recall the second item in the pair?|Type your response on a scale from 0-100 and then press Enter.",Study/JOL,"Study Phase2",2738,,,1942,2179,,,,99,1
5ded58a8217786000b2b2511,4pu90zmqsy,Emily_Honors_Thesis_Part_2,1,246,2020-07-17T14:59:26-07:00,4.4600999355316,5,versionA_stim.csv,IS_JOLVersionA.csv,"ITEM SPECIFIC Version A",OLD,SCALP,HEAD,ON2,F,105,168,JOL,User,-,"How likely are you to correctly recall the second item in the pair?|Type your response on a scale from 0-100 and then press Enter.",Study/JOL,"Study Phase2",3658,,,2351,3188,,,,100,1
5ded58a8217786000b2b2511,4pu90zmqsy,Emily_Honors_Thesis_Part_2,1,247,2020-07-17T14:59:31-07:00,5.049015045166,5,versionA_stim.csv,IS_JOLVersionA.csv,"ITEM SPECIFIC Version A",OLD,MIRROR,CHILDREN,ON2,U,174,107,JOL,User,-,"How likely are you to correctly recall the second item in the pair?|Type your response on a scale from 0-100 and then press Enter.",Study/JOL,"Study Phase2",4162,,,3584,3585,,,,3,1
5ded58a8217786000b2b2511,4pu90zmqsy,Emily_Honors_Thesis_Part_2,1,248,2020-07-17T14:59:36-07:00,5.4900250434875,5,versionA_stim.csv,IS_JOLVersionA.csv,"ITEM SPECIFIC Version A",OLD,TEMPERATURE,MORNING,ON2,U,173,98,JOL,User,-,"How likely are you to correctly recall the second item in the pair?|Type your response on a scale from 0-100 and then press Enter.",Study/JOL,"Study Phase2",4506,,,2947,2947,,,,5,1
5ded58a8217786000b2b2511,4pu90zmqsy,Emily_Honors_Thesis_Part_2,1,249,2020-07-17T14:59:41-07:00,4.9234619140625,5,versionA_stim.csv,IS_JOLVersionA.csv,"ITEM SPECIFIC Version A",OLD,RAZOR,SHAVE,ON2,S,136,152,JOL,User,-,"How likely are you to correctly recall the second item in the pair?|Type your response on a scale from 0-100 and then press Enter.",Study/JOL,"Study Phase2",3946,,,2687,3492,,,,100,1
5ded58a8217786000b2b2511,4pu90zmqsy,Emily_Honors_Thesis_Part_2,1,250,2020-07-17T14:59:45-07:00,4.011262178421,5,versionA_stim.csv,IS_JOLVersionA.csv,"ITEM SPECIFIC Version A",OLD,HONEST,TRUTHFUL,ON2,B,133,134,JOL,User,-,"How likely are you to correctly recall the second item in the pair?|Type your response on a scale from 0-100 and then press Enter.",Study/JOL,"Study Phase2",3220,,,2452,2647,,,,99,1
5ded58a8217786000b2b2511,4pu90zmqsy,Emily_Honors_Thesis_Part_2,1,251,2020-07-17T14:59:50-07:00,4.640487909317,5,versionA_stim.csv,IS_JOLVersionA.csv,"ITEM SPECIFIC Version A",OLD,TANTRUM,TEMPER,ON2,S,154,156,JOL,User,-,"How likely are you to correctly recall the second item in the pair?|Type your response on a scale from 0-100 and then press Enter.",Study/JOL,"Study Phase2",3787,,,3055,3268,,,,99,1
5ded58a8217786000b2b2511,4pu90zmqsy,Emily_Honors_Thesis_Part_2,1,252,2020-07-17T14:59:55-07:00,5.3635671138763,5,versionA_stim.csv,IS_JOLVersionA.csv,"ITEM SPECIFIC Version A",OLD,INCENSE,SMELL,ON2,F,110,113,JOL,User,-,"How likely are you to correctly recall the second item in the pair?|Type your response on a scale from 0-100 and then press Enter.",Study/JOL,"Study Phase2",4421,,,2581,3909,,,,85,1
5ded58a8217786000b2b2511,4pu90zmqsy,Emily_Honors_Thesis_Part_2,1,253,2020-07-17T15:00:00-07:00,5.3552939891815,5,versionA_stim.csv,IS_JOLVersionA.csv,"ITEM SPECIFIC Version A",OLD,MEAT,OBTAIN,ON2,U,161,128,JOL,User,-,"How likely are you to correctly recall the second item in the pair?|Type your response on a scale from 0-100 and then press Enter.",Study/JOL,"Study Phase2",3465,,,2754,2754,,,,2,1
5ded58a8217786000b2b2511,4pu90zmqsy,Emily_Honors_Thesis_Part_2,1,254,2020-07-17T15:00:06-07:00,5.6750729084015,5,versionA_stim.csv,IS_JOLVersionA.csv,"ITEM SPECIFIC Version A",OLD,DOCUMENT,PAPER,ON2,F,109,176,JOL,User,-,"How likely are you to correctly recall the second item in the pair?|Type your response on a scale from 0-100 and then press Enter.",Study/JOL,"Study Phase2",4702,,,3227,4147,,,,100,1
5ded58a8217786000b2b2511,4pu90zmqsy,Emily_Honors_Thesis_Part_2,1,255,2020-07-17T15:00:12-07:00,5.3916831016541,5,versionA_stim.csv,IS_JOLVersionA.csv,"ITEM SPECIFIC Version A",OLD,LOAN,SIGN,ON2,U,171,124,JOL,User,-,"How likely are you to correctly recall the second item in the pair?|Type your response on a scale from 0-100 and then press Enter.",Study/JOL,"Study Phase2",4421,,,3199,3944,,,,79,1
5ded58a8217786000b2b2511,4pu90zmqsy,Emily_Honors_Thesis_Part_2,1,256,2020-07-17T15:00:17-07:00,5.7583990097046,5,versionA_stim.csv,IS_JOLVersionA.csv,"ITEM SPECIFIC Version A",OLD,BOTH,OUNCE,ON2,U,172,118,JOL,User,-,"How likely are you to correctly recall the second item in the pair?|Type your response on a scale from 0-100 and then press Enter.",Study/JOL,"Study Phase2",4819,,,4230,4230,,,,0,1
5ded58a8217786000b2b2511,4pu90zmqsy,Emily_Honors_Thesis_Part_2,1,257,2020-07-17T15:00:21-07:00,3.9555878639221,5,versionA_stim.csv,IS_JOLVersionA.csv,"ITEM SPECIFIC Version A",OLD,LITTER,TRASH,ON2,F,103,112,JOL,User,-,"How likely are you to correctly recall the second item in the pair?|Type your response on a scale from 0-100 and then press Enter.",Study/JOL,"Study Phase2",3026,,,1887,2096,,,,99,1
5ded58a8217786000b2b2511,4pu90zmqsy,Emily_Honors_Thesis_Part_2,1,258,2020-07-17T15:00:25-07:00,3.9162130355835,5,versionA_stim.csv,IS_JOLVersionA.csv,"ITEM SPECIFIC Version A",OLD,FLEA,TICK,ON2,S,151,161,JOL,User,-,"How likely are you to correctly recall the second item in the pair?|Type your response on a scale from 0-100 and then press Enter.",Study/JOL,"Study Phase2",3130,,,1869,2548,,,,93,1
5ded58a8217786000b2b2511,4pu90zmqsy,Emily_Honors_Thesis_Part_2,1,259,2020-07-17T15:00:31-07:00,5.7527029514313,5,versionA_stim.csv,IS_JOLVersionA.csv,"ITEM SPECIFIC Version A",OLD,BASEBALL,LEAGUE,ON2,B,131,135,JOL,User,-,"How likely are you to correctly recall the second item in the pair?|Type your response on a scale from 0-100 and then press Enter.",Study/JOL,"Study Phase2",3786,,,2560,3296,,,,73,1
5ded58a8217786000b2b2511,4pu90zmqsy,Emily_Honors_Thesis_Part_2,1,260,2020-07-17T15:00:35-07:00,4.2418370246887,5,versionA_stim.csv,IS_JOLVersionA.csv,"ITEM SPECIFIC Version A",OLD,WATER,DRINK,ON2,S,143,172,JOL,User,-,"How likely are you to correctly recall the second item in the pair?|Type your response on a scale from 0-100 and then press Enter.",Study/JOL,"Study Phase2",3326,,,1986,2879,,,,100,1
5ded58a8217786000b2b2511,4pu90zmqsy,Emily_Honors_Thesis_Part_2,1,261,2020-07-17T15:00:39-07:00,4.1163280010223,5,versionA_stim.csv,IS_JOLVersionA.csv,"ITEM SPECIFIC Version A",OLD,PLANE,AIRCRAFT,ON2,B,129,164,JOL,User,-,"How likely are you to correctly recall the second item in the pair?|Type your response on a scale from 0-100 and then press Enter.",Study/JOL,"Study Phase2",3229,,,2000,2257,,,,99,1
5ded58a8217786000b2b2511,4pu90zmqsy,Emily_Honors_Thesis_Part_2,1,262,2020-07-17T15:00:44-07:00,4.7714600563049,5,versionA_stim.csv,IS_JOLVersionA.csv,"ITEM SPECIFIC Version A",OLD,CAR,WINDSHIELD,ON2,B,117,145,JOL,User,-,"How likely are you to correctly recall the second item in the pair?|Type your response on a scale from 0-100 and then press Enter.",Study/JOL,"Study Phase2",3801,,,2740,2979,,,,89,1
5ded58a8217786000b2b2511,4pu90zmqsy,Emily_Honors_Thesis_Part_2,1,263,2020-07-17T15:00:49-07:00,4.4720330238342,5,versionA_stim.csv,IS_JOLVersionA.csv,"ITEM SPECIFIC Version A",OLD,SAFETY,SEATBELT,ON2,S,147,173,JOL,User,-,"How likely are you to correctly recall the second item in the pair?|Type your response on a scale from 0-100 and then press Enter.",Study/JOL,"Study Phase2",3532,,,2787,3016,,,,99,1
5ded58a8217786000b2b2511,4pu90zmqsy,Emily_Honors_Thesis_Part_2,1,264,2020-07-17T15:00:53-07:00,4.8403458595276,5,versionA_stim.csv,IS_JOLVersionA.csv,"ITEM SPECIFIC Version A",OLD,KEYS,JOKE,ON2,U,165,146,JOL,User,-,"How likely are you to correctly recall the second item in the pair?|Type your response on a scale from 0-100 and then press Enter.",Study/JOL,"Study Phase2",3918,,,3258,3258,,,,1,1
5ded58a8217786000b2b2511,4pu90zmqsy,Emily_Honors_Thesis_Part_2,1,265,2020-07-17T15:00:58-07:00,4.4375560283661,5,versionA_stim.csv,IS_JOLVersionA.csv,"ITEM SPECIFIC Version A",OLD,FRUIT,STRAWBERRY,ON2,B,124,159,JOL,User,-,"How likely are you to correctly recall the second item in the pair?|Type your response on a scale from 0-100 and then press Enter.",Study/JOL,"Study Phase2",3494,,,1984,2744,,,,94,1
5ded58a8217786000b2b2511,4pu90zmqsy,Emily_Honors_Thesis_Part_2,1,266,2020-07-17T15:01:04-07:00,6.6518931388855,5,versionA_stim.csv,IS_JOLVersionA.csv,"ITEM SPECIFIC Version A",OLD,CRACKLE,ABLE,ON2,U,162,108,JOL,User,-,"How likely are you to correctly recall the second item in the pair?|Type your response on a scale from 0-100 and then press Enter.",Study/JOL,"Study Phase2",5760,,,4917,4918,,,,0,1
5ded58a8217786000b2b2511,4pu90zmqsy,Emily_Honors_Thesis_Part_2,1,267,2020-07-17T15:01:10-07:00,5.4159419536591,5,versionA_stim.csv,IS_JOLVersionA.csv,"ITEM SPECIFIC Version A",OLD,FIGHT,BRAWL,ON2,B,135,174,JOL,User,-,"How likely are you to correctly recall the second item in the pair?|Type your response on a scale from 0-100 and then press Enter.",Study/JOL,"Study Phase2",4417,,,2760,3804,,,,96,1
5ded58a8217786000b2b2511,4pu90zmqsy,Emily_Honors_Thesis_Part_2,1,268,2020-07-17T15:01:14-07:00,4.3057570457458,5,versionA_stim.csv,IS_JOLVersionA.csv,"ITEM SPECIFIC Version A",OLD,RIGHTS,EQUAL,ON2,S,137,109,JOL,User,-,"How likely are you to correctly recall the second item in the pair?|Type your response on a scale from 0-100 and then press Enter.",Study/JOL,"Study Phase2",3386,,,2681,2930,,,,23,1
5ded58a8217786000b2b2511,4pu90zmqsy,Emily_Honors_Thesis_Part_2,1,269,2020-07-17T15:01:19-07:00,5.0197207927704,5,versionA_stim.csv,IS_JOLVersionA.csv,"ITEM SPECIFIC Version A",OLD,TURN,FLIP,ON2,B,116,130,JOL,User,-,"How likely are you to correctly recall the second item in the pair?|Type your response on a scale from 0-100 and then press Enter.",Study/JOL,"Study Phase2",4122,,,3355,3601,,,,89,1
5ded58a8217786000b2b2511,4pu90zmqsy,Emily_Honors_Thesis_Part_2,1,270,2020-07-17T15:01:28-07:00,8.6665821075439,5,versionA_stim.csv,IS_JOLVersionA.csv,"ITEM SPECIFIC Version A",OLD,CHOP,CUT,ON2,F,107,117,JOL,User,-,"How likely are you to correctly recall the second item in the pair?|Type your response on a scale from 0-100 and then press Enter.",Study/JOL,"Study Phase2",7783,,,2605,3108,,,,86,1
5ded58a8217786000b2b2511,4pu90zmqsy,Emily_Honors_Thesis_Part_2,1,271,2020-07-17T15:01:33-07:00,5.0592920780182,5,versionA_stim.csv,IS_JOLVersionA.csv,"ITEM SPECIFIC Version A",OLD,GLASS,BREAKABLE,ON2,B,127,126,JOL,User,-,"How likely are you to correctly recall the second item in the pair?|Type your response on a scale from 0-100 and then press Enter.",Study/JOL,"Study Phase2",4073,,,2973,3568,,,,69,1
5ded58a8217786000b2b2511,4pu90zmqsy,Emily_Honors_Thesis_Part_2,1,272,2020-07-17T15:01:37-07:00,3.8221559524536,5,versionA_stim.csv,IS_JOLVersionA.csv,"ITEM SPECIFIC Version A",OLD,CANDLE,WAX,ON2,S,139,104,JOL,User,-,"How likely are you to correctly recall the second item in the pair?|Type your response on a scale from 0-100 and then press Enter.",Study/JOL,"Study Phase2",2831,,,1922,2204,,,,98,1
5ded58a8217786000b2b2511,4pu90zmqsy,Emily_Honors_Thesis_Part_2,1,273,2020-07-17T15:01:40-07:00,3.6721029281616,5,versionA_stim.csv,IS_JOLVersionA.csv,"ITEM SPECIFIC Version A",OLD,MAIN,SCAR,ON2,U,175,140,JOL,User,-,"How likely are you to correctly recall the second item in the pair?|Type your response on a scale from 0-100 and then press Enter.",Study/JOL,"Study Phase2",2835,,,2275,2275,,,,3,1
5ded58a8217786000b2b2511,4pu90zmqsy,Emily_Honors_Thesis_Part_2,1,274,2020-07-17T15:01:49-07:00,8.5895700454712,5,versionA_stim.csv,IS_JOLVersionA.csv,"ITEM SPECIFIC Version A",OLD,TRUTH,LIE,ON2,S,148,120,JOL,User,-,"How likely are you to correctly recall the second item in the pair?|Type your response on a scale from 0-100 and then press Enter.",Study/JOL,"Study Phase2",6315,,,2542,3620,,,,100,1
5ded58a8217786000b2b2511,4pu90zmqsy,Emily_Honors_Thesis_Part_2,1,275,2020-07-17T15:01:54-07:00,4.9283630847931,5,versionA_stim.csv,IS_JOLVersionA.csv,"ITEM SPECIFIC Version A",OLD,MASON,JAR,ON2,S,138,132,JOL,User,-,"How likely are you to correctly recall the second item in the pair?|Type your response on a scale from 0-100 and then press Enter.",Study/JOL,"Study Phase2",4021,,,3562,3562,,,,0,1
