Username,ID,ExperimentName,Session,Trial,Date,TimeDif,"Condition Number","Stimuli File","Order File","Condition Description","Condition Notes",Stimuli*Cue,Stimuli*Answer,Stimuli*Shuffle,"Stimuli*Stimuli Notes",Stimuli*Value,Procedure*Item,"Procedure*Trial Type","Procedure*Max Time","Procedure*Min Time",Procedure*Text,"Procedure*Procedure Notes",Procedure*Shuffle,Response*RT,Response*Response,Response*Accuracy,Response*RTfirst,Response*RTlast,Response*strictAcc,Response*lenientAcc,Response*focus,Response*JOL,Response*Focus
54545,5k56002zyz,Emily_Honors_Thesis_Part_2,1,1,2020-03-25T13:57:43+00:00,13.460464000702,1,versionA_stim.csv,READ_JOLVersionA.csv,"JOL Version A","Dissertation, JOL version A",,,,,,0,Instruct,-,10,"In this section, you will be presented with a series of word pairs. As you study, you will be asked to rate your ability to remember the second item in the pair if you were only shown the first at test. You will make these ratings using a 0 to 100 Scale.",,Instruct13,13301,,,-1,-1,,,,,1
54545,5k56002zyz,Emily_Honors_Thesis_Part_2,1,2,2020-03-25T13:58:03+00:00,19.449322938919,1,versionA_stim.csv,READ_JOLVersionA.csv,"JOL Version A","Dissertation, JOL version A",,,,,,0,Instruct,-,10,"For example, if you are given the pair CAT - DOG, a rating of 0 indicates that you would not remember DOG at test, while a rating of 100 indicates full certainty that you would remember the word DOG at test.",,Instruct14,19187,,,-1,-1,,,,,1
54545,5k56002zyz,Emily_Honors_Thesis_Part_2,1,3,2020-03-25T13:58:14+00:00,11.548645019531,1,versionA_stim.csv,READ_JOLVersionA.csv,"JOL Version A","Dissertation, JOL version A",,,,,,0,Instruct,-,10,"When making your ratings, it is criticial that you use the full range of the scale. You will be disqualified for only giving ratings of 0 or 100! After making your rating, press Enter to advance to the next pair.",,Instruct15,11360,,,-1,-1,,,,,1
54545,5k56002zyz,Emily_Honors_Thesis_Part_2,1,4,2020-03-25T13:58:21+00:00,6.602343082428,1,versionA_stim.csv,READ_JOLVersionA.csv,"JOL Version A","Dissertation, JOL version A",,,,,,0,Instruct,-,5,"You will now complete a practice session. Please study the following items and rate your ability to remember them.",,Instruct17,6394,,,-1,-1,,,,,1
54545,5k56002zyz,Emily_Honors_Thesis_Part_2,1,5,2020-03-25T13:58:25+00:00,4.3137340545654,1,versionA_stim.csv,READ_JOLVersionA.csv,"JOL Version A","Dissertation, JOL version A",BABY,CHILD,ON,S,64,182,JOL,User,-,"How likely are you to correctly recall the items below?|Type your response on a scale from 0-100 and then press Enter.",Study/JOL,PRACTICE,4132,,,-1,-1,,,,,1
54545,5k56002zyz,Emily_Honors_Thesis_Part_2,1,6,2020-03-25T13:58:30+00:00,5.0244960784912,1,versionA_stim.csv,READ_JOLVersionA.csv,"JOL Version A","Dissertation, JOL version A",CAT,PANTHER,ON,B,126,186,JOL,User,-,"How likely are you to correctly recall the items below?|Type your response on a scale from 0-100 and then press Enter.",Study/JOL,PRACTICE,4832,,,-1,-1,,,,,1
54545,5k56002zyz,Emily_Honors_Thesis_Part_2,1,7,2020-03-25T13:58:31+00:00,0.50430679321289,1,versionA_stim.csv,READ_JOLVersionA.csv,"JOL Version A","Dissertation, JOL version A",PHONE,COMMUNICATION,ON,S,149,188,JOL,User,-,"How likely are you to correctly recall the items below?|Type your response on a scale from 0-100 and then press Enter.",Study/JOL,PRACTICE,317,,,-1,-1,,,,,1
54545,5k56002zyz,Emily_Honors_Thesis_Part_2,1,8,2020-03-25T13:58:31+00:00,0.5184211730957,1,versionA_stim.csv,READ_JOLVersionA.csv,"JOL Version A","Dissertation, JOL version A",BIRD,PENGUIN,ON,B,119,191,JOL,User,-,"How likely are you to correctly recall the items below?|Type your response on a scale from 0-100 and then press Enter.",Study/JOL,PRACTICE,346,,,-1,-1,,,,,1
54545,5k56002zyz,Emily_Honors_Thesis_Part_2,1,9,2020-03-25T13:58:32+00:00,0.57205581665039,1,versionA_stim.csv,READ_JOLVersionA.csv,"JOL Version A","Dissertation, JOL version A",CHOP,CUT,ON,F,107,190,JOL,User,-,"How likely are you to correctly recall the items below?|Type your response on a scale from 0-100 and then press Enter.",Study/JOL,PRACTICE,392,,,-1,-1,,,,,1
54545,5k56002zyz,Emily_Honors_Thesis_Part_2,1,10,2020-03-25T13:58:32+00:00,0.44260716438293,1,versionA_stim.csv,READ_JOLVersionA.csv,"JOL Version A","Dissertation, JOL version A",ELEMENT,CARBON,ON,S,141,185,JOL,User,-,"How likely are you to correctly recall the items below?|Type your response on a scale from 0-100 and then press Enter.",Study/JOL,PRACTICE,266,,,-1,-1,,,,,1
54545,5k56002zyz,Emily_Honors_Thesis_Part_2,1,11,2020-03-25T13:58:33+00:00,0.48494601249695,1,versionA_stim.csv,READ_JOLVersionA.csv,"JOL Version A","Dissertation, JOL version A",EARTH,GROUND,ON,S,144,183,JOL,User,-,"How likely are you to correctly recall the items below?|Type your response on a scale from 0-100 and then press Enter.",Study/JOL,PRACTICE,306,,,-1,-1,,,,,1
54545,5k56002zyz,Emily_Honors_Thesis_Part_2,1,12,2020-03-25T13:58:33+00:00,0.45365190505981,1,versionA_stim.csv,READ_JOLVersionA.csv,"JOL Version A","Dissertation, JOL version A",STRONG,ACCIDENT,ON,U,80,189,JOL,User,-,"How likely are you to correctly recall the items below?|Type your response on a scale from 0-100 and then press Enter.",Study/JOL,PRACTICE,289,,,-1,-1,,,,,1
54545,5k56002zyz,Emily_Honors_Thesis_Part_2,1,13,2020-03-25T13:58:34+00:00,0.42844104766846,1,versionA_stim.csv,READ_JOLVersionA.csv,"JOL Version A","Dissertation, JOL version A",STAR,ACTRESS,ON,B,120,187,JOL,User,-,"How likely are you to correctly recall the items below?|Type your response on a scale from 0-100 and then press Enter.",Study/JOL,PRACTICE,257,,,-1,-1,,,,,1
54545,5k56002zyz,Emily_Honors_Thesis_Part_2,1,14,2020-03-25T13:58:34+00:00,0.45191407203674,1,versionA_stim.csv,READ_JOLVersionA.csv,"JOL Version A","Dissertation, JOL version A",EVEN,REVENGE,ON,B,122,184,JOL,User,-,"How likely are you to correctly recall the items below?|Type your response on a scale from 0-100 and then press Enter.",Study/JOL,PRACTICE,283,,,-1,-1,,,,,1
54545,5k56002zyz,Emily_Honors_Thesis_Part_2,1,15,2020-03-25T13:58:36+00:00,1.7348148822784,1,versionA_stim.csv,READ_JOLVersionA.csv,"JOL Version A","Dissertation, JOL version A",,,,,,0,Instruct,User,-,"You have completed this section. Please press Enter to continue.",,Instruct18,1568,,,-1,-1,,,,,1
54545,5k56002zyz,Emily_Honors_Thesis_Part_2,1,16,2020-03-25T13:58:39+00:00,2.7705409526825,1,versionA_stim.csv,READ_JOLVersionA.csv,"JOL Version A","Dissertation, JOL version A",,,,,,0,Instruct,User,-,"You will now begin the study. Press Enter when you are ready to begin.",,Instruct16,2593,,,-1,-1,,,,,1
54545,5k56002zyz,Emily_Honors_Thesis_Part_2,1,17,2020-03-25T13:58:41+00:00,2.3853659629822,1,versionA_stim.csv,READ_JOLVersionA.csv,"JOL Version A","Dissertation, JOL version A",SPACE,JAM,OFF,Buffer,5,6,JOL,User,-,"How likely are you to correctly recall the items below?|Type your response on a scale from 0-100 and then press Enter.",Study/JOL,BUFFER,2213,,,-1,-1,,,,,1
54545,5k56002zyz,Emily_Honors_Thesis_Part_2,1,18,2020-03-25T13:58:42+00:00,0.5943751335144,1,versionA_stim.csv,READ_JOLVersionA.csv,"JOL Version A","Dissertation, JOL version A",BASEBALL,CATCHER,OFF,Buffer,2,3,JOL,User,-,"How likely are you to correctly recall the items below?|Type your response on a scale from 0-100 and then press Enter.",Study/JOL,BUFFER,417,,,-1,-1,,,,,1
54545,5k56002zyz,Emily_Honors_Thesis_Part_2,1,19,2020-03-25T13:58:42+00:00,0.42109990119934,1,versionA_stim.csv,READ_JOLVersionA.csv,"JOL Version A","Dissertation, JOL version A",TREES,GREEN,OFF,Buffer,1,2,JOL,User,-,"How likely are you to correctly recall the items below?|Type your response on a scale from 0-100 and then press Enter.",Study/JOL,BUFFER,259,,,-1,-1,,,,,1
54545,5k56002zyz,Emily_Honors_Thesis_Part_2,1,20,2020-03-25T13:58:42+00:00,0.31399011611938,1,versionA_stim.csv,READ_JOLVersionA.csv,"JOL Version A","Dissertation, JOL version A",PEANUT,BUTTER,OFF,Buffer,3,4,JOL,User,-,"How likely are you to correctly recall the items below?|Type your response on a scale from 0-100 and then press Enter.",Study/JOL,BUFFER,153,,,-1,-1,,,,,1
54545,5k56002zyz,Emily_Honors_Thesis_Part_2,1,21,2020-03-25T13:58:43+00:00,0.33297395706177,1,versionA_stim.csv,READ_JOLVersionA.csv,"JOL Version A","Dissertation, JOL version A",SCARE,HIDE,OFF,Buffer,4,5,JOL,User,-,"How likely are you to correctly recall the items below?|Type your response on a scale from 0-100 and then press Enter.",Study/JOL,BUFFER,155,,,-1,-1,,,,,1
54545,5k56002zyz,Emily_Honors_Thesis_Part_2,1,22,2020-03-25T13:58:43+00:00,0.34570407867432,1,versionA_stim.csv,READ_JOLVersionA.csv,"JOL Version A","Dissertation, JOL version A",JUSTICE,MAROON,ON,U,156,81,JOL,User,-,"How likely are you to correctly recall the items below?|Type your response on a scale from 0-100 and then press Enter.",Study/JOL,"Study Phase",177,,,-1,-1,,,,,1
54545,5k56002zyz,Emily_Honors_Thesis_Part_2,1,23,2020-03-25T13:58:43+00:00,0.35524797439575,1,versionA_stim.csv,READ_JOLVersionA.csv,"JOL Version A","Dissertation, JOL version A",TURN,FLIP,ON,B,116,42,JOL,User,-,"How likely are you to correctly recall the items below?|Type your response on a scale from 0-100 and then press Enter.",Study/JOL,"Study Phase",180,,,-1,-1,,,,,1
54545,5k56002zyz,Emily_Honors_Thesis_Part_2,1,24,2020-03-25T13:58:44+00:00,0.29987788200378,1,versionA_stim.csv,READ_JOLVersionA.csv,"JOL Version A","Dissertation, JOL version A",SOON,BELT,ON,U,70,58,JOL,User,-,"How likely are you to correctly recall the items below?|Type your response on a scale from 0-100 and then press Enter.",Study/JOL,"Study Phase",117,,,-1,-1,,,,,1
54545,5k56002zyz,Emily_Honors_Thesis_Part_2,1,25,2020-03-25T13:58:44+00:00,0.34230899810791,1,versionA_stim.csv,READ_JOLVersionA.csv,"JOL Version A","Dissertation, JOL version A",SHEARS,SCISSORS,ON,F,112,62,JOL,User,-,"How likely are you to correctly recall the items below?|Type your response on a scale from 0-100 and then press Enter.",Study/JOL,"Study Phase",180,,,-1,-1,,,,,1
54545,5k56002zyz,Emily_Honors_Thesis_Part_2,1,26,2020-03-25T13:58:44+00:00,0.33356094360352,1,versionA_stim.csv,READ_JOLVersionA.csv,"JOL Version A","Dissertation, JOL version A",CLUE,GAME,ON,F,97,20,JOL,User,-,"How likely are you to correctly recall the items below?|Type your response on a scale from 0-100 and then press Enter.",Study/JOL,"Study Phase",159,,,-1,-1,,,,,1
54545,5k56002zyz,Emily_Honors_Thesis_Part_2,1,27,2020-03-25T13:58:45+00:00,0.3139750957489,1,versionA_stim.csv,READ_JOLVersionA.csv,"JOL Version A","Dissertation, JOL version A",CAR,WINDSHIELD,ON,B,117,56,JOL,User,-,"How likely are you to correctly recall the items below?|Type your response on a scale from 0-100 and then press Enter.",Study/JOL,"Study Phase",131,,,-1,-1,,,,,1
54545,5k56002zyz,Emily_Honors_Thesis_Part_2,1,28,2020-03-25T13:58:45+00:00,0.3398609161377,1,versionA_stim.csv,READ_JOLVersionA.csv,"JOL Version A","Dissertation, JOL version A",KEYS,JOKE,ON,U,165,18,JOL,User,-,"How likely are you to correctly recall the items below?|Type your response on a scale from 0-100 and then press Enter.",Study/JOL,"Study Phase",165,,,-1,-1,,,,,1
54545,5k56002zyz,Emily_Honors_Thesis_Part_2,1,29,2020-03-25T13:58:45+00:00,0.3469409942627,1,versionA_stim.csv,READ_JOLVersionA.csv,"JOL Version A","Dissertation, JOL version A",PARK,HUNGRY,ON,U,68,49,JOL,User,-,"How likely are you to correctly recall the items below?|Type your response on a scale from 0-100 and then press Enter.",Study/JOL,"Study Phase",175,,,-1,-1,,,,,1
54545,5k56002zyz,Emily_Honors_Thesis_Part_2,1,30,2020-03-25T13:58:46+00:00,0.34917402267456,1,versionA_stim.csv,READ_JOLVersionA.csv,"JOL Version A","Dissertation, JOL version A",PLANE,AIRCRAFT,ON,B,129,22,JOL,User,-,"How likely are you to correctly recall the items below?|Type your response on a scale from 0-100 and then press Enter.",Study/JOL,"Study Phase",155,,,-1,-1,,,,,1
54545,5k56002zyz,Emily_Honors_Thesis_Part_2,1,31,2020-03-25T13:58:46+00:00,0.31689620018005,1,versionA_stim.csv,READ_JOLVersionA.csv,"JOL Version A","Dissertation, JOL version A",MAIN,SCAR,ON,U,175,19,JOL,User,-,"How likely are you to correctly recall the items below?|Type your response on a scale from 0-100 and then press Enter.",Study/JOL,"Study Phase",127,,,-1,-1,,,,,1
