"ExperimentName","Subject","Block","list","Procedure.Block.","cue_target","Direction","ListNum","JOL","RT","Procedure.Trial.","Type","Procedure.Block..1","cue_target.1","ListNum.1","Response","Procedure.Trial..1","Type.1"
"RL_JOL D",90,1,3,"BlockProc1","Long - Extension","B",1,100,20398,"StudyProc3","JOL","BlockProc1","Long - ?",1,"extenstion","recallproc1","recall"
"RL_JOL D",90,1,3,"BlockProc1","Game - Clue","B",2,25,19598,"StudyProc3","JOL","BlockProc1","Game - ?",2,"clue","recallproc1","recall"
"RL_JOL D",90,1,3,"BlockProc1","Plant - Cactus","B",3,95,23194,"StudyProc3","JOL","BlockProc1","Plant - ?",3,"tree","recallproc1","recall"
"RL_JOL D",90,1,3,"BlockProc1","Tie - Shoelace","B",4,90,24567,"StudyProc3","JOL","BlockProc1","Tie - ?",4,"shoelace","recallproc1","recall"
"RL_JOL D",90,1,3,"BlockProc1","Mystery - Detective","B",5,99,33545,"StudyProc3","JOL","BlockProc1","Mystery - ?",5,"detective3","recallproc1","recall"
"RL_JOL D",90,1,3,"BlockProc1","End - Adjourn","B",6,90,44167,"StudyProc3","JOL","BlockProc1","End - ?",6,"adjourn","recallproc1","recall"
"RL_JOL D",90,1,3,"BlockProc1","Dog - Furry","B",7,35,13147,"StudyProc3","JOL","BlockProc1","Dog - ?",7,"furry","recallproc1","recall"
"RL_JOL D",90,1,3,"BlockProc1","Trash - Litter","B",8,98,18311,"StudyProc3","JOL","BlockProc1","Trash - ?",8,"litter","recallproc1","recall"
"RL_JOL D",90,1,3,"BlockProc1","Red - Cherry","B",9,20,22019,"StudyProc3","JOL","BlockProc1","Red - ?",9,"cherry","recallproc1","recall"
"RL_JOL D",90,1,3,"BlockProc1","Head - Scalp","B",10,99,20213,"StudyProc3","JOL","BlockProc1","Head - ?",10,"scalp","recallproc1","recall"
"RL_JOL D",90,1,3,"BlockProc1","Car - Driver","B",11,90,17178,"StudyProc3","JOL","BlockProc1","Car - ?",11,"windsheild","recallproc1","recall"
"RL_JOL D",90,1,3,"BlockProc1","Cut - Chop","B",12,5,28734,"StudyProc3","JOL","BlockProc1","Cut - ?",12,"chop","recallproc1","recall"
"RL_JOL D",90,1,3,"BlockProc1","Donkey - Mule","B",13,65,16975,"StudyProc3","JOL","BlockProc1","Donkey - ?",13,"mule","recallproc1","recall"
"RL_JOL D",90,1,3,"BlockProc1","Paper - Document","B",14,45,27794,"StudyProc3","JOL","BlockProc1","Paper - ?",14,"document","recallproc1","recall"
"RL_JOL D",90,1,3,"BlockProc1","Smell - Incense","B",15,10,19210,"StudyProc3","JOL","BlockProc1","Smell - ?",15,"sense","recallproc1","recall"
"RL_JOL D",90,1,3,"BlockProc1","Eat - Dine","B",16,23,26345,"StudyProc3","JOL","BlockProc1","Eat - ?",16,"dine","recallproc1","recall"
"RL_JOL D",90,1,3,"BlockProc1","Scissors - Shears","B",17,50,18543,"StudyProc3","JOL","BlockProc1","Scissors - ?",17,"shears","recallproc1","recall"
"RL_JOL D",90,1,3,"BlockProc1","Fight - Feud","B",18,97,21726,"StudyProc3","JOL","BlockProc1","Fight - ?",18,"brawl","recallproc1","recall"
"RL_JOL D",90,1,3,"BlockProc1","Cold - Chill","B",19,34,35743,"StudyProc3","JOL","BlockProc1","Cold - ?",19,"chill","recallproc1","recall"
"RL_JOL D",90,1,3,"BlockProc1","Love - Affection","B",20,98,14089,"StudyProc3","JOL","BlockProc1","Love - ?",20,"most","recallproc1","recall"
"RL_JOL D",90,1,3,"BlockProc1","Flip - Turn","F",21,34,38541,"StudyProc3","JOL","BlockProc1","Flip - ?",21,"turn","recallproc1","recall"
"RL_JOL D",90,1,3,"BlockProc1","Windshield - Car","F",22,100,18376,"StudyProc3","JOL","BlockProc1","Windshield - ?",22,"car","recallproc1","recall"
"RL_JOL D",90,1,3,"BlockProc1","Villain - Bad","F",23,100,11208,"StudyProc3","JOL","BlockProc1","Villain - ?",23,"bad","recallproc1","recall"
"RL_JOL D",90,1,3,"BlockProc1","Penguin - Bird","F",24,10,41102,"StudyProc3","JOL","BlockProc1","Penguin - ?",24,"bird","recallproc1","recall"
"RL_JOL D",90,1,3,"BlockProc1","Actress - Star","F",25,67,38539,"StudyProc3","JOL","BlockProc1","Actress - ?",25,"star","recallproc1","recall"
"RL_JOL D",90,1,3,"BlockProc1","Thimble - Thread","F",26,30,22451,"StudyProc3","JOL","BlockProc1","Thimble - ?",26,"thread","recallproc1","recall"
"RL_JOL D",90,1,3,"BlockProc1","Revenge - Even","F",27,100,9864,"StudyProc3","JOL","BlockProc1","Revenge - ?",27,"even","recallproc1","recall"
"RL_JOL D",90,1,3,"BlockProc1","Balloon - Pop","F",28,98,17376,"StudyProc3","JOL","BlockProc1","Balloon - ?",28,"pop","recallproc1","recall"
"RL_JOL D",90,1,3,"BlockProc1","Strawberry - Fruit","F",29,10,20270,"StudyProc3","JOL","BlockProc1","Strawberry - ?",29,"fruit","recallproc1","recall"
"RL_JOL D",90,1,3,"BlockProc1","Favorite - Best","F",30,85,17585,"StudyProc3","JOL","BlockProc1","Favorite - ?",30,"best","recallproc1","recall"
"RL_JOL D",90,1,3,"BlockProc1","Panther - Cat","F",31,40,23668,"StudyProc3","JOL","BlockProc1","Panther - ?",31,"cat","recallproc1","recall"
"RL_JOL D",90,1,3,"BlockProc1","Breakable - Glass","F",32,25,30232,"StudyProc3","JOL","BlockProc1","Breakable - ?",32,"glass","recallproc1","recall"
"RL_JOL D",90,1,3,"BlockProc1","Coffin - Dead","F",33,100,11127,"StudyProc3","JOL","BlockProc1","Coffin - ?",33,"dead","recallproc1","recall"
"RL_JOL D",90,1,3,"BlockProc1","Aircraft - Plane","F",34,90,17199,"StudyProc3","JOL","BlockProc1","Aircraft - ?",34,"plane","recallproc1","recall"
"RL_JOL D",90,1,3,"BlockProc1","Sardine - Fish","F",35,25,20730,"StudyProc3","JOL","BlockProc1","Sardine - ?",35,"fish","recallproc1","recall"
"RL_JOL D",90,1,3,"BlockProc1","League - Baseball","F",36,11,21671,"StudyProc3","JOL","BlockProc1","League - ?",36,"baseball","recallproc1","recall"
"RL_JOL D",90,1,3,"BlockProc1","Banker - Money","F",37,30,37191,"StudyProc3","JOL","BlockProc1","Banker - ?",37,"money","recallproc1","recall"
"RL_JOL D",90,1,3,"BlockProc1","Truthful - Honest","F",38,95,22098,"StudyProc3","JOL","BlockProc1","Truthful - ?",38,"hones","recallproc1","recall"
"RL_JOL D",90,1,3,"BlockProc1","Nap - Sleep","F",39,84,21041,"StudyProc3","JOL","BlockProc1","Nap - ?",39,"sleep","recallproc1","recall"
"RL_JOL D",90,1,3,"BlockProc1","Brawl - Fight","F",40,98,31666,"StudyProc3","JOL","BlockProc1","Brawl - ?",40,"fight","recallproc1","recall"
"RL_JOL D",90,1,3,"BlockProc1","Shave - Razor","S",41,87,18130,"StudyProc7","JOL","BlockProc1","Shave - ?",41,"hai","recallproc1","recall"
"RL_JOL D",90,1,3,"BlockProc1","Equal - Rights","S",42,99,30167,"StudyProc7","JOL","BlockProc1","Equal - ?",42,"rights","recallproc1","recall"
"RL_JOL D",90,1,3,"BlockProc1","Jar - Mason","S",43,80,22433,"StudyProc7","JOL","BlockProc1","Jar - ?",43,"mason","recallproc1","recall"
"RL_JOL D",90,1,3,"BlockProc1","Wax - Candle","S",44,99,13184,"StudyProc7","JOL","BlockProc1","Wax - ?",44,"candle","recallproc1","recall"
"RL_JOL D",90,1,3,"BlockProc1","Bracelet - Wrist","S",45,85,11192,"StudyProc7","JOL","BlockProc1","Bracelet - ?",45,"wrist","recallproc1","recall"
"RL_JOL D",90,1,3,"BlockProc1","Carbon - Element","S",46,85,27797,"StudyProc7","JOL","BlockProc1","Carbon - ?",46,"element","recallproc1","recall"
"RL_JOL D",90,1,3,"BlockProc1","Away - Gone","S",47,76,10781,"StudyProc7","JOL","BlockProc1","Away - ?",47,"gone","recallproc1","recall"
"RL_JOL D",90,1,3,"BlockProc1","Drink - Water","S",48,85,26773,"StudyProc7","JOL","BlockProc1","Drink - ?",48,"water","recallproc1","recall"
"RL_JOL D",90,1,3,"BlockProc1","Ground - Earth","S",49,25,36113,"StudyProc7","JOL","BlockProc1","Ground - ?",49,"earth","recallproc1","recall"
"RL_JOL D",90,1,3,"BlockProc1","Lonely - Alone","S",50,85,21331,"StudyProc7","JOL","BlockProc1","Lonely - ?",50,"alone","recallproc1","recall"
"RL_JOL D",90,1,3,"BlockProc1","Wet - Dry","S",51,95,17110,"StudyProc7","JOL","BlockProc1","Wet - ?",51,"dry","recallproc1","recall"
"RL_JOL D",90,1,3,"BlockProc1","Seatbelt - Safety","S",52,98,14405,"StudyProc7","JOL","BlockProc1","Seatbelt - ?",52,"safety","recallproc1","recall"
"RL_JOL D",90,1,3,"BlockProc1","Lie - Truth","S",53,80,11042,"StudyProc7","JOL","BlockProc1","Lie - ?",53,"truthfull","recallproc1","recall"
"RL_JOL D",90,1,3,"BlockProc1","Communication - Phone","S",54,85,10057,"StudyProc7","JOL","BlockProc1","Communication - ?",54,"phone","recallproc1","recall"
"RL_JOL D",90,1,3,"BlockProc1","Reel - Rod","S",55,85,23243,"StudyProc7","JOL","BlockProc1","Reel - ?",55,"rod","recallproc1","recall"
"RL_JOL D",90,1,3,"BlockProc1","Tick - Flea","S",56,85,24938,"StudyProc7","JOL","BlockProc1","Tick - ?",56,"flea","recallproc1","recall"
"RL_JOL D",90,1,3,"BlockProc1","Noise - Loud","S",57,95,10775,"StudyProc7","JOL","BlockProc1","Noise - ?",57,"loud","recallproc1","recall"
"RL_JOL D",90,1,3,"BlockProc1","Have - Own","S",58,87,20523,"StudyProc7","JOL","BlockProc1","Have - ?",58,"meat","recallproc1","recall"
"RL_JOL D",90,1,3,"BlockProc1","Temper - Tantrum","S",59,94,7917,"StudyProc7","JOL","BlockProc1","Temper - ?",59,"tantrum","recallproc1","recall"
"RL_JOL D",90,1,3,"BlockProc1","Tan - Sun","S",60,100,14772,"StudyProc7","JOL","BlockProc1","Tan - ?",60,"sun","recallproc1","recall"
"RL_JOL D",90,1,3,"BlockProc1","Maroon - Justice","U",61,0,15924,"StudyProc7","JOL","BlockProc1","Maroon - ?",61,"five","recallproc1","recall"
"RL_JOL D",90,1,3,"BlockProc1","Cloth - Stretch","U",62,85,15374,"StudyProc7","JOL","BlockProc1","Cloth - ?",62,"stretch","recallproc1","recall"
"RL_JOL D",90,1,3,"BlockProc1","Steak - Give","U",63,0,20098,"StudyProc7","JOL","BlockProc1","Steak - ?",63,"give","recallproc1","recall"
"RL_JOL D",90,1,3,"BlockProc1","Election - Maze","U",64,75,29414,"StudyProc7","JOL","BlockProc1","Election - ?",64,"maze","recallproc1","recall"
"RL_JOL D",90,1,3,"BlockProc1","Charm - Vehicle","U",65,0,37335,"StudyProc7","JOL","BlockProc1","Charm - ?",65,"lucky","recallproc1","recall"
"RL_JOL D",90,1,3,"BlockProc1","Obtain - Meat","U",66,0,35526,"StudyProc7","JOL","BlockProc1","Obtain - ?",66,"meat","recallproc1","recall"
"RL_JOL D",90,1,3,"BlockProc1","Able - Crackle","U",67,70,47834,"StudyProc7","JOL","BlockProc1","Able - ?",67,"body","recallproc1","recall"
"RL_JOL D",90,1,3,"BlockProc1","Shake - Shell","U",68,20,39376,"StudyProc7","JOL","BlockProc1","Shake - ?",68,"hold","recallproc1","recall"
"RL_JOL D",90,1,3,"BlockProc1","Fiction - Listen","U",69,25,36468,"StudyProc7","JOL","BlockProc1","Fiction - ?",69,"listen","recallproc1","recall"
"RL_JOL D",90,1,3,"BlockProc1","Joke - Keys","U",70,0,24637,"StudyProc7","JOL","BlockProc1","Joke - ?",70,"keys","recallproc1","recall"
"RL_JOL D",90,1,3,"BlockProc1","Clothes - Cake","U",71,9,23625,"StudyProc7","JOL","BlockProc1","Clothes - ?",71,"stretch","recallproc1","recall"
"RL_JOL D",90,1,3,"BlockProc1","Hate - Name","U",72,25,34042,"StudyProc7","JOL","BlockProc1","Hate - ?",72,"name","recallproc1","recall"
"RL_JOL D",90,1,3,"BlockProc1","Bang - Fuzzy","U",73,0,14402,"StudyProc7","JOL","BlockProc1","Bang - ?",73,"fuzzy","recallproc1","recall"
"RL_JOL D",90,1,3,"BlockProc1","Clear - Moat","U",74,35,23251,"StudyProc7","JOL","BlockProc1","Clear - ?",74,"moat","recallproc1","recall"
"RL_JOL D",90,1,3,"BlockProc1","Toil - Lease","U",75,2,17000,"StudyProc7","JOL","BlockProc1","Toil - ?",75,"lost","recallproc1","recall"
"RL_JOL D",90,1,3,"BlockProc1","Sign - Loan","U",76,75,13168,"StudyProc7","JOL","BlockProc1","Sign - ?",76,"up","recallproc1","recall"
"RL_JOL D",90,1,3,"BlockProc1","Ounce - Both","U",77,0,15753,"StudyProc7","JOL","BlockProc1","Ounce - ?",77,"bite","recallproc1","recall"
"RL_JOL D",90,1,3,"BlockProc1","Morning - Temperature","U",78,65,23321,"StudyProc7","JOL","BlockProc1","Morning - ?",78,"temperature","recallproc1","recall"
"RL_JOL D",90,1,3,"BlockProc1","Children - Mirror","U",79,0,18174,"StudyProc7","JOL","BlockProc1","Children - ?",79,"mirror","recallproc1","recall"
"RL_JOL D",90,1,3,"BlockProc1","Scar - Main","U",80,0,9954,"StudyProc7","JOL","BlockProc1","Scar - ?",80,"face","recallproc1","recall"
"RL_JOL D",91,1,3,"BlockProc1","Long - Extension","B",1,90,12877,"StudyProc3","JOL","BlockProc1","Long - ?",1,"Extension","recallproc1","recall"
"RL_JOL D",91,1,3,"BlockProc1","Game - Clue","B",2,95,10611,"StudyProc3","JOL","BlockProc1","Game - ?",2,"Clue","recallproc1","recall"
"RL_JOL D",91,1,3,"BlockProc1","Plant - Cactus","B",3,100,4534,"StudyProc3","JOL","BlockProc1","Plant - ?",3,"Cactus","recallproc1","recall"
"RL_JOL D",91,1,3,"BlockProc1","Tie - Shoelace","B",4,100,5857,"StudyProc3","JOL","BlockProc1","Tie - ?",4,"Shoelace","recallproc1","recall"
"RL_JOL D",91,1,3,"BlockProc1","Mystery - Detective","B",5,100,5124,"StudyProc3","JOL","BlockProc1","Mystery - ?",5,"Detective","recallproc1","recall"
"RL_JOL D",91,1,3,"BlockProc1","End - Adjourn","B",6,92,6090,"StudyProc3","JOL","BlockProc1","End - ?",6,"Adjourn","recallproc1","recall"
"RL_JOL D",91,1,3,"BlockProc1","Dog - Furry","B",7,100,2514,"StudyProc3","JOL","BlockProc1","Dog - ?",7,"Furry","recallproc1","recall"
"RL_JOL D",91,1,3,"BlockProc1","Trash - Litter","B",8,95,8776,"StudyProc3","JOL","BlockProc1","Trash - ?",8,"Litter","recallproc1","recall"
"RL_JOL D",91,1,3,"BlockProc1","Red - Cherry","B",9,100,2614,"StudyProc3","JOL","BlockProc1","Red - ?",9,"Cherry","recallproc1","recall"
"RL_JOL D",91,1,3,"BlockProc1","Head - Scalp","B",10,100,7056,"StudyProc3","JOL","BlockProc1","Head - ?",10,"Scalp","recallproc1","recall"
"RL_JOL D",91,1,3,"BlockProc1","Car - Driver","B",11,100,8709,"StudyProc3","JOL","BlockProc1","Car - ?",11,"Driver","recallproc1","recall"
"RL_JOL D",91,1,3,"BlockProc1","Cut - Chop","B",12,97,9485,"StudyProc3","JOL","BlockProc1","Cut - ?",12,"Chop","recallproc1","recall"
"RL_JOL D",91,1,3,"BlockProc1","Donkey - Mule","B",13,95,5616,"StudyProc3","JOL","BlockProc1","Donkey - ?",13,"Mule","recallproc1","recall"
"RL_JOL D",91,1,3,"BlockProc1","Paper - Document","B",14,95,7446,"StudyProc3","JOL","BlockProc1","Paper - ?",14,"Document","recallproc1","recall"
"RL_JOL D",91,1,3,"BlockProc1","Smell - Incense","B",15,98,5464,"StudyProc3","JOL","BlockProc1","Smell - ?",15,"Strong","recallproc1","recall"
"RL_JOL D",91,1,3,"BlockProc1","Eat - Dine","B",16,95,9382,"StudyProc3","JOL","BlockProc1","Eat - ?",16,"Dine","recallproc1","recall"
"RL_JOL D",91,1,3,"BlockProc1","Scissors - Shears","B",17,97,6130,"StudyProc3","JOL","BlockProc1","Scissors - ?",17,"Shears","recallproc1","recall"
"RL_JOL D",91,1,3,"BlockProc1","Fight - Feud","B",18,90,11068,"StudyProc3","JOL","BlockProc1","Fight - ?",18,"Feud","recallproc1","recall"
"RL_JOL D",91,1,3,"BlockProc1","Cold - Chill","B",19,97,10646,"StudyProc3","JOL","BlockProc1","Cold - ?",19,"Chill","recallproc1","recall"
"RL_JOL D",91,1,3,"BlockProc1","Love - Affection","B",20,100,13191,"StudyProc3","JOL","BlockProc1","Love - ?",20,"Affectio","recallproc1","recall"
"RL_JOL D",91,1,3,"BlockProc1","Flip - Turn","F",21,98,7233,"StudyProc3","JOL","BlockProc1","Flip - ?",21,"Turn","recallproc1","recall"
"RL_JOL D",91,1,3,"BlockProc1","Windshield - Car","F",22,90,4295,"StudyProc3","JOL","BlockProc1","Windshield - ?",22,"Car","recallproc1","recall"
"RL_JOL D",91,1,3,"BlockProc1","Villain - Bad","F",23,98,8957,"StudyProc3","JOL","BlockProc1","Villain - ?",23,"Bad","recallproc1","recall"
"RL_JOL D",91,1,3,"BlockProc1","Penguin - Bird","F",24,100,7014,"StudyProc3","JOL","BlockProc1","Penguin - ?",24,"Bird","recallproc1","recall"
"RL_JOL D",91,1,3,"BlockProc1","Actress - Star","F",25,98,9679,"StudyProc3","JOL","BlockProc1","Actress - ?",25,"Star","recallproc1","recall"
"RL_JOL D",91,1,3,"BlockProc1","Thimble - Thread","F",26,50,16555,"StudyProc3","JOL","BlockProc1","Thimble - ?",26,"Thread","recallproc1","recall"
"RL_JOL D",91,1,3,"BlockProc1","Revenge - Even","F",27,100,5613,"StudyProc3","JOL","BlockProc1","Revenge - ?",27,"Even","recallproc1","recall"
"RL_JOL D",91,1,3,"BlockProc1","Balloon - Pop","F",28,100,3833,"StudyProc3","JOL","BlockProc1","Balloon - ?",28,"Pop","recallproc1","recall"
"RL_JOL D",91,1,3,"BlockProc1","Strawberry - Fruit","F",29,100,3271,"StudyProc3","JOL","BlockProc1","Strawberry - ?",29,"Fruit","recallproc1","recall"
"RL_JOL D",91,1,3,"BlockProc1","Favorite - Best","F",30,80,14965,"StudyProc3","JOL","BlockProc1","Favorite - ?",30,"Best","recallproc1","recall"
"RL_JOL D",91,1,3,"BlockProc1","Panther - Cat","F",31,100,2896,"StudyProc3","JOL","BlockProc1","Panther - ?",31,"Cat","recallproc1","recall"
"RL_JOL D",91,1,3,"BlockProc1","Breakable - Glass","F",32,99,3766,"StudyProc3","JOL","BlockProc1","Breakable - ?",32,"Glass","recallproc1","recall"
"RL_JOL D",91,1,3,"BlockProc1","Coffin - Dead","F",33,100,4399,"StudyProc3","JOL","BlockProc1","Coffin - ?",33,"Dead","recallproc1","recall"
"RL_JOL D",91,1,3,"BlockProc1","Aircraft - Plane","F",34,98,6043,"StudyProc3","JOL","BlockProc1","Aircraft - ?",34,"Plane","recallproc1","recall"
"RL_JOL D",91,1,3,"BlockProc1","Sardine - Fish","F",35,96,5162,"StudyProc3","JOL","BlockProc1","Sardine - ?",35,"Fish","recallproc1","recall"
"RL_JOL D",91,1,3,"BlockProc1","League - Baseball","F",36,96,18616,"StudyProc3","JOL","BlockProc1","League - ?",36,"Baseball","recallproc1","recall"
"RL_JOL D",91,1,3,"BlockProc1","Banker - Money","F",37,78,8745,"StudyProc3","JOL","BlockProc1","Banker - ?",37,"Money","recallproc1","recall"
"RL_JOL D",91,1,3,"BlockProc1","Truthful - Honest","F",38,98,8039,"StudyProc3","JOL","BlockProc1","Truthful - ?",38,"Honest","recallproc1","recall"
"RL_JOL D",91,1,3,"BlockProc1","Nap - Sleep","F",39,99,9283,"StudyProc3","JOL","BlockProc1","Nap - ?",39,"Sleep","recallproc1","recall"
"RL_JOL D",91,1,3,"BlockProc1","Brawl - Fight","F",40,95,6650,"StudyProc3","JOL","BlockProc1","Brawl - ?",40,"Fight","recallproc1","recall"
"RL_JOL D",91,1,3,"BlockProc1","Shave - Razor","S",41,90,5455,"StudyProc7","JOL","BlockProc1","Shave - ?",41,"RaZOR","recallproc1","recall"
"RL_JOL D",91,1,3,"BlockProc1","Equal - Rights","S",42,87,10931,"StudyProc7","JOL","BlockProc1","Equal - ?",42,"Rights","recallproc1","recall"
"RL_JOL D",91,1,3,"BlockProc1","Jar - Mason","S",43,70,7978,"StudyProc7","JOL","BlockProc1","Jar - ?",43,"Mason","recallproc1","recall"
"RL_JOL D",91,1,3,"BlockProc1","Wax - Candle","S",44,100,4295,"StudyProc7","JOL","BlockProc1","Wax - ?",44,"Cande","recallproc1","recall"
"RL_JOL D",91,1,3,"BlockProc1","Bracelet - Wrist","S",45,90,5617,"StudyProc7","JOL","BlockProc1","Bracelet - ?",45,"Wrist","recallproc1","recall"
"RL_JOL D",91,1,3,"BlockProc1","Carbon - Element","S",46,90,3996,"StudyProc7","JOL","BlockProc1","Carbon - ?",46,"Element","recallproc1","recall"
"RL_JOL D",91,1,3,"BlockProc1","Away - Gone","S",47,80,10914,"StudyProc7","JOL","BlockProc1","Away - ?",47,"Gone","recallproc1","recall"
"RL_JOL D",91,1,3,"BlockProc1","Drink - Water","S",48,100,5407,"StudyProc7","JOL","BlockProc1","Drink - ?",48,"Water","recallproc1","recall"
"RL_JOL D",91,1,3,"BlockProc1","Ground - Earth","S",49,75,16128,"StudyProc7","JOL","BlockProc1","Ground - ?",49,"Earth","recallproc1","recall"
"RL_JOL D",91,1,3,"BlockProc1","Lonely - Alone","S",50,90,5799,"StudyProc7","JOL","BlockProc1","Lonely - ?",50,"Alone","recallproc1","recall"
"RL_JOL D",91,1,3,"BlockProc1","Wet - Dry","S",51,100,4337,"StudyProc7","JOL","BlockProc1","Wet - ?",51,"Dry","recallproc1","recall"
"RL_JOL D",91,1,3,"BlockProc1","Seatbelt - Safety","S",52,97,10814,"StudyProc7","JOL","BlockProc1","Seatbelt - ?",52,"Safety","recallproc1","recall"
"RL_JOL D",91,1,3,"BlockProc1","Lie - Truth","S",53,90,5165,"StudyProc7","JOL","BlockProc1","Lie - ?",53,"Truth","recallproc1","recall"
"RL_JOL D",91,1,3,"BlockProc1","Communication - Phone","S",54,93,14198,"StudyProc7","JOL","BlockProc1","Communication - ?",54,"Phone","recallproc1","recall"
"RL_JOL D",91,1,3,"BlockProc1","Reel - Rod","S",55,94,10732,"StudyProc7","JOL","BlockProc1","Reel - ?",55,"Rod","recallproc1","recall"
"RL_JOL D",91,1,3,"BlockProc1","Tick - Flea","S",56,88,10113,"StudyProc7","JOL","BlockProc1","Tick - ?",56,"Flea","recallproc1","recall"
"RL_JOL D",91,1,3,"BlockProc1","Noise - Loud","S",57,70,9010,"StudyProc7","JOL","BlockProc1","Noise - ?",57,"Loud","recallproc1","recall"
"RL_JOL D",91,1,3,"BlockProc1","Have - Own","S",58,90,4991,"StudyProc7","JOL","BlockProc1","Have - ?",58,"Own","recallproc1","recall"
"RL_JOL D",91,1,3,"BlockProc1","Temper - Tantrum","S",59,88,12130,"StudyProc7","JOL","BlockProc1","Temper - ?",59,"Tantrum","recallproc1","recall"
"RL_JOL D",91,1,3,"BlockProc1","Tan - Sun","S",60,90,5384,"StudyProc7","JOL","BlockProc1","Tan - ?",60,"Sun","recallproc1","recall"
"RL_JOL D",91,1,3,"BlockProc1","Maroon - Justice","U",61,76,17024,"StudyProc7","JOL","BlockProc1","Maroon - ?",61,"Justice","recallproc1","recall"
"RL_JOL D",91,1,3,"BlockProc1","Cloth - Stretch","U",62,3,25725,"StudyProc7","JOL","BlockProc1","Cloth - ?",62,"Stretch","recallproc1","recall"
"RL_JOL D",91,1,3,"BlockProc1","Steak - Give","U",63,67,8345,"StudyProc7","JOL","BlockProc1","Steak - ?",63,"Give","recallproc1","recall"
"RL_JOL D",91,1,3,"BlockProc1","Election - Maze","U",64,46,12337,"StudyProc7","JOL","BlockProc1","Election - ?",64,"Maze","recallproc1","recall"
"RL_JOL D",91,1,3,"BlockProc1","Charm - Vehicle","U",65,40,10289,"StudyProc7","JOL","BlockProc1","Charm - ?",65,"Vehicle","recallproc1","recall"
"RL_JOL D",91,1,3,"BlockProc1","Obtain - Meat","U",66,56,6774,"StudyProc7","JOL","BlockProc1","Obtain - ?",66,"Meat","recallproc1","recall"
"RL_JOL D",91,1,3,"BlockProc1","Able - Crackle","U",67,1,6131,"StudyProc7","JOL","BlockProc1","Able - ?",67,"Tickle","recallproc1","recall"
"RL_JOL D",91,1,3,"BlockProc1","Shake - Shell","U",68,48,11867,"StudyProc7","JOL","BlockProc1","Shake - ?",68,"Shell","recallproc1","recall"
"RL_JOL D",91,1,3,"BlockProc1","Fiction - Listen","U",69,3,7351,"StudyProc7","JOL","BlockProc1","Fiction - ?",69,"Listen","recallproc1","recall"
"RL_JOL D",91,1,3,"BlockProc1","Joke - Keys","U",70,2,14623,"StudyProc7","JOL","BlockProc1","Joke - ?",70,"Keys","recallproc1","recall"
"RL_JOL D",91,1,3,"BlockProc1","Clothes - Cake","U",71,58,19122,"StudyProc7","JOL","BlockProc1","Clothes - ?",71,"Cake","recallproc1","recall"
"RL_JOL D",91,1,3,"BlockProc1","Hate - Name","U",72,1,11695,"StudyProc7","JOL","BlockProc1","Hate - ?",72,"Name","recallproc1","recall"
"RL_JOL D",91,1,3,"BlockProc1","Bang - Fuzzy","U",73,2,8830,"StudyProc7","JOL","BlockProc1","Bang - ?",73,"Furry","recallproc1","recall"
"RL_JOL D",91,1,3,"BlockProc1","Clear - Moat","U",74,1,5054,"StudyProc7","JOL","BlockProc1","Clear - ?",74,"Window","recallproc1","recall"
"RL_JOL D",91,1,3,"BlockProc1","Toil - Lease","U",75,1,7722,"StudyProc7","JOL","BlockProc1","Toil - ?",75,"Lease","recallproc1","recall"
"RL_JOL D",91,1,3,"BlockProc1","Sign - Loan","U",76,3,24871,"StudyProc7","JOL","BlockProc1","Sign - ?",76,"Loan","recallproc1","recall"
"RL_JOL D",91,1,3,"BlockProc1","Ounce - Both","U",77,1,14154,"StudyProc7","JOL","BlockProc1","Ounce - ?",77,"Both","recallproc1","recall"
"RL_JOL D",91,1,3,"BlockProc1","Morning - Temperature","U",78,90,5122,"StudyProc7","JOL","BlockProc1","Morning - ?",78,"Temperature","recallproc1","recall"
"RL_JOL D",91,1,3,"BlockProc1","Children - Mirror","U",79,30,15263,"StudyProc7","JOL","BlockProc1","Children - ?",79,"Mirror","recallproc1","recall"
"RL_JOL D",91,1,3,"BlockProc1","Scar - Main","U",80,1,10995,"StudyProc7","JOL","BlockProc1","Scar - ?",80,"Main","recallproc1","recall"
"RL_JOL D",92,1,3,"BlockProc1","Long - Extension","B",1,80,2938,"StudyProc3","JOL","BlockProc1","Long - ?",1,"SHORT","recallproc1","recall"
"RL_JOL D",92,1,3,"BlockProc1","Game - Clue","B",2,90,3811,"StudyProc3","JOL","BlockProc1","Game - ?",2,"PLAYER","recallproc1","recall"
"RL_JOL D",92,1,3,"BlockProc1","Plant - Cactus","B",3,70,2892,"StudyProc3","JOL","BlockProc1","Plant - ?",3,"NATURE","recallproc1","recall"
"RL_JOL D",92,1,3,"BlockProc1","Tie - Shoelace","B",4,70,4239,"StudyProc3","JOL","BlockProc1","Tie - ?",4,"KNOT","recallproc1","recall"
"RL_JOL D",92,1,3,"BlockProc1","Mystery - Detective","B",5,100,3228,"StudyProc3","JOL","BlockProc1","Mystery - ?",5,"DETECTIVE","recallproc1","recall"
"RL_JOL D",92,1,3,"BlockProc1","End - Adjourn","B",6,100,3875,"StudyProc3","JOL","BlockProc1","End - ?",6,"FINISHED","recallproc1","recall"
"RL_JOL D",92,1,3,"BlockProc1","Dog - Furry","B",7,100,3106,"StudyProc3","JOL","BlockProc1","Dog - ?",7,"CAT","recallproc1","recall"
"RL_JOL D",92,1,3,"BlockProc1","Trash - Litter","B",8,90,2377,"StudyProc3","JOL","BlockProc1","Trash - ?",8,"GARBAGE","recallproc1","recall"
"RL_JOL D",92,1,3,"BlockProc1","Red - Cherry","B",9,90,2258,"StudyProc3","JOL","BlockProc1","Red - ?",9,"WHITE","recallproc1","recall"
"RL_JOL D",92,1,3,"BlockProc1","Head - Scalp","B",10,100,2546,"StudyProc3","JOL","BlockProc1","Head - ?",10,"scalp","recallproc1","recall"
"RL_JOL D",92,1,3,"BlockProc1","Car - Driver","B",11,90,2156,"StudyProc3","JOL","BlockProc1","Car - ?",11,"RIDE","recallproc1","recall"
"RL_JOL D",92,1,3,"BlockProc1","Cut - Chop","B",12,90,4838,"StudyProc3","JOL","BlockProc1","Cut - ?",12,"scissors","recallproc1","recall"
"RL_JOL D",92,1,3,"BlockProc1","Donkey - Mule","B",13,70,3199,"StudyProc3","JOL","BlockProc1","Donkey - ?",13,"mule","recallproc1","recall"
"RL_JOL D",92,1,3,"BlockProc1","Paper - Document","B",14,100,4171,"StudyProc3","JOL","BlockProc1","Paper - ?",14,"PENCIL","recallproc1","recall"
"RL_JOL D",92,1,3,"BlockProc1","Smell - Incense","B",15,100,3199,"StudyProc3","JOL","BlockProc1","Smell - ?",15,"STINK","recallproc1","recall"
"RL_JOL D",92,1,3,"BlockProc1","Eat - Dine","B",16,100,2165,"StudyProc3","JOL","BlockProc1","Eat - ?",16,"FOOS","recallproc1","recall"
"RL_JOL D",92,1,3,"BlockProc1","Scissors - Shears","B",17,60,3836,"StudyProc3","JOL","BlockProc1","Scissors - ?",17,"CUT","recallproc1","recall"
"RL_JOL D",92,1,3,"BlockProc1","Fight - Feud","B",18,90,2659,"StudyProc3","JOL","BlockProc1","Fight - ?",18,"BRAWL","recallproc1","recall"
"RL_JOL D",92,1,3,"BlockProc1","Cold - Chill","B",19,100,3338,"StudyProc3","JOL","BlockProc1","Cold - ?",19,"WET","recallproc1","recall"
"RL_JOL D",92,1,3,"BlockProc1","Love - Affection","B",20,100,3023,"StudyProc3","JOL","BlockProc1","Love - ?",20,"HATE","recallproc1","recall"
"RL_JOL D",92,1,3,"BlockProc1","Flip - Turn","F",21,100,2966,"StudyProc3","JOL","BlockProc1","Flip - ?",21,"TURN","recallproc1","recall"
"RL_JOL D",92,1,3,"BlockProc1","Windshield - Car","F",22,90,2694,"StudyProc3","JOL","BlockProc1","Windshield - ?",22,"VEHICLE","recallproc1","recall"
"RL_JOL D",92,1,3,"BlockProc1","Villain - Bad","F",23,90,6107,"StudyProc3","JOL","BlockProc1","Villain - ?",23,"criminal","recallproc1","recall"
"RL_JOL D",92,1,3,"BlockProc1","Penguin - Bird","F",24,100,3011,"StudyProc3","JOL","BlockProc1","Penguin - ?",24,"FISH","recallproc1","recall"
"RL_JOL D",92,1,3,"BlockProc1","Actress - Star","F",25,70,2871,"StudyProc3","JOL","BlockProc1","Actress - ?",25,"STAR","recallproc1","recall"
"RL_JOL D",92,1,3,"BlockProc1","Thimble - Thread","F",26,100,4065,"StudyProc3","JOL","BlockProc1","Thimble - ?",26,"THREAD","recallproc1","recall"
"RL_JOL D",92,1,3,"BlockProc1","Revenge - Even","F",27,80,4944,"StudyProc3","JOL","BlockProc1","Revenge - ?",27,"EVEN","recallproc1","recall"
"RL_JOL D",92,1,3,"BlockProc1","Balloon - Pop","F",28,70,3990,"StudyProc3","JOL","BlockProc1","Balloon - ?",28,"POP","recallproc1","recall"
"RL_JOL D",92,1,3,"BlockProc1","Strawberry - Fruit","F",29,100,3159,"StudyProc3","JOL","BlockProc1","Strawberry - ?",29,"FRUIT","recallproc1","recall"
"RL_JOL D",92,1,3,"BlockProc1","Favorite - Best","F",30,80,3516,"StudyProc3","JOL","BlockProc1","Favorite - ?",30,"LIKE","recallproc1","recall"
"RL_JOL D",92,1,3,"BlockProc1","Panther - Cat","F",31,100,2472,"StudyProc3","JOL","BlockProc1","Panther - ?",31,"CAT","recallproc1","recall"
"RL_JOL D",92,1,3,"BlockProc1","Breakable - Glass","F",32,100,3537,"StudyProc3","JOL","BlockProc1","Breakable - ?",32,"GLASS","recallproc1","recall"
"RL_JOL D",92,1,3,"BlockProc1","Coffin - Dead","F",33,100,6188,"StudyProc3","JOL","BlockProc1","Coffin - ?",33,"DEATH","recallproc1","recall"
"RL_JOL D",92,1,3,"BlockProc1","Aircraft - Plane","F",34,100,2815,"StudyProc3","JOL","BlockProc1","Aircraft - ?",34,"plane","recallproc1","recall"
"RL_JOL D",92,1,3,"BlockProc1","Sardine - Fish","F",35,100,2561,"StudyProc3","JOL","BlockProc1","Sardine - ?",35,"FISH","recallproc1","recall"
"RL_JOL D",92,1,3,"BlockProc1","League - Baseball","F",36,100,2773,"StudyProc3","JOL","BlockProc1","League - ?",36,"BASEBALL","recallproc1","recall"
"RL_JOL D",92,1,3,"BlockProc1","Banker - Money","F",37,100,2062,"StudyProc3","JOL","BlockProc1","Banker - ?",37,"money","recallproc1","recall"
"RL_JOL D",92,1,3,"BlockProc1","Truthful - Honest","F",38,100,2658,"StudyProc3","JOL","BlockProc1","Truthful - ?",38,"HONEST","recallproc1","recall"
"RL_JOL D",92,1,3,"BlockProc1","Nap - Sleep","F",39,0,3488,"StudyProc3","JOL","BlockProc1","Nap - ?",39,"sleep","recallproc1","recall"
"RL_JOL D",92,1,3,"BlockProc1","Brawl - Fight","F",40,80,2323,"StudyProc3","JOL","BlockProc1","Brawl - ?",40,"FUED","recallproc1","recall"
"RL_JOL D",92,1,3,"BlockProc1","Shave - Razor","S",41,90,3465,"StudyProc7","JOL","BlockProc1","Shave - ?",41,"CUT","recallproc1","recall"
"RL_JOL D",92,1,3,"BlockProc1","Equal - Rights","S",42,80,5051,"StudyProc7","JOL","BlockProc1","Equal - ?",42,"RIGHT","recallproc1","recall"
"RL_JOL D",92,1,3,"BlockProc1","Jar - Mason","S",43,100,2392,"StudyProc7","JOL","BlockProc1","Jar - ?",43,"MASON","recallproc1","recall"
"RL_JOL D",92,1,3,"BlockProc1","Wax - Candle","S",44,100,3165,"StudyProc7","JOL","BlockProc1","Wax - ?",44,"PAPER","recallproc1","recall"
"RL_JOL D",92,1,3,"BlockProc1","Bracelet - Wrist","S",45,100,2820,"StudyProc7","JOL","BlockProc1","Bracelet - ?",45,"WRIST","recallproc1","recall"
"RL_JOL D",92,1,3,"BlockProc1","Carbon - Element","S",46,100,2541,"StudyProc7","JOL","BlockProc1","Carbon - ?",46,"ELEMENT","recallproc1","recall"
"RL_JOL D",92,1,3,"BlockProc1","Away - Gone","S",47,100,2443,"StudyProc7","JOL","BlockProc1","Away - ?",47,"gone","recallproc1","recall"
"RL_JOL D",92,1,3,"BlockProc1","Drink - Water","S",48,100,5100,"StudyProc7","JOL","BlockProc1","Drink - ?",48,"liquid","recallproc1","recall"
"RL_JOL D",92,1,3,"BlockProc1","Ground - Earth","S",49,0,5144,"StudyProc7","JOL","BlockProc1","Ground - ?",49,"BEEF","recallproc1","recall"
"RL_JOL D",92,1,3,"BlockProc1","Lonely - Alone","S",50,100,3446,"StudyProc7","JOL","BlockProc1","Lonely - ?",50,"ALONE","recallproc1","recall"
"RL_JOL D",92,1,3,"BlockProc1","Wet - Dry","S",51,100,2481,"StudyProc7","JOL","BlockProc1","Wet - ?",51,"DRY","recallproc1","recall"
"RL_JOL D",92,1,3,"BlockProc1","Seatbelt - Safety","S",52,100,2534,"StudyProc7","JOL","BlockProc1","Seatbelt - ?",52,"SAFETY","recallproc1","recall"
"RL_JOL D",92,1,3,"BlockProc1","Lie - Truth","S",53,90,3280,"StudyProc7","JOL","BlockProc1","Lie - ?",53,"TRUTH","recallproc1","recall"
"RL_JOL D",92,1,3,"BlockProc1","Communication - Phone","S",54,100,2853,"StudyProc7","JOL","BlockProc1","Communication - ?",54,"TALK","recallproc1","recall"
"RL_JOL D",92,1,3,"BlockProc1","Reel - Rod","S",55,60,3315,"StudyProc7","JOL","BlockProc1","Reel - ?",55,"ROD","recallproc1","recall"
"RL_JOL D",92,1,3,"BlockProc1","Tick - Flea","S",56,100,2260,"StudyProc7","JOL","BlockProc1","Tick - ?",56,"flea","recallproc1","recall"
"RL_JOL D",92,1,3,"BlockProc1","Noise - Loud","S",57,100,2124,"StudyProc7","JOL","BlockProc1","Noise - ?",57,"QUIET","recallproc1","recall"
"RL_JOL D",92,1,3,"BlockProc1","Have - Own","S",58,100,2488,"StudyProc7","JOL","BlockProc1","Have - ?",58,"own","recallproc1","recall"
"RL_JOL D",92,1,3,"BlockProc1","Temper - Tantrum","S",59,90,2739,"StudyProc7","JOL","BlockProc1","Temper - ?",59,"TANTRUM","recallproc1","recall"
"RL_JOL D",92,1,3,"BlockProc1","Tan - Sun","S",60,100,2906,"StudyProc7","JOL","BlockProc1","Tan - ?",60,"sun","recallproc1","recall"
"RL_JOL D",92,1,3,"BlockProc1","Maroon - Justice","U",61,50,4228,"StudyProc7","JOL","BlockProc1","Maroon - ?",61,"BAND","recallproc1","recall"
"RL_JOL D",92,1,3,"BlockProc1","Cloth - Stretch","U",62,30,4797,"StudyProc7","JOL","BlockProc1","Cloth - ?",62,"THREAD","recallproc1","recall"
"RL_JOL D",92,1,3,"BlockProc1","Steak - Give","U",63,40,3305,"StudyProc7","JOL","BlockProc1","Steak - ?",63,"FOOD","recallproc1","recall"
"RL_JOL D",92,1,3,"BlockProc1","Election - Maze","U",64,50,4778,"StudyProc7","JOL","BlockProc1","Election - ?",64,"MAZE","recallproc1","recall"
"RL_JOL D",92,1,3,"BlockProc1","Charm - Vehicle","U",65,40,3193,"StudyProc7","JOL","BlockProc1","Charm - ?",65,"BRACELET","recallproc1","recall"
"RL_JOL D",92,1,3,"BlockProc1","Obtain - Meat","U",66,50,3624,"StudyProc7","JOL","BlockProc1","Obtain - ?",66,"POSSESS","recallproc1","recall"
"RL_JOL D",92,1,3,"BlockProc1","Able - Crackle","U",67,30,3642,"StudyProc7","JOL","BlockProc1","Able - ?",67,"ALLOWED","recallproc1","recall"
"RL_JOL D",92,1,3,"BlockProc1","Shake - Shell","U",68,50,4714,"StudyProc7","JOL","BlockProc1","Shake - ?",68,"TRIMBLE","recallproc1","recall"
"RL_JOL D",92,1,3,"BlockProc1","Fiction - Listen","U",69,70,3257,"StudyProc7","JOL","BlockProc1","Fiction - ?",69,"listen","recallproc1","recall"
"RL_JOL D",92,1,3,"BlockProc1","Joke - Keys","U",70,40,3016,"StudyProc7","JOL","BlockProc1","Joke - ?",70,"funny","recallproc1","recall"
"RL_JOL D",92,1,3,"BlockProc1","Clothes - Cake","U",71,50,4458,"StudyProc7","JOL","BlockProc1","Clothes - ?",71,"WEAR","recallproc1","recall"
"RL_JOL D",92,1,3,"BlockProc1","Hate - Name","U",72,50,3162,"StudyProc7","JOL","BlockProc1","Hate - ?",72,"LOVE","recallproc1","recall"
"RL_JOL D",92,1,3,"BlockProc1","Bang - Fuzzy","U",73,30,3488,"StudyProc7","JOL","BlockProc1","Bang - ?",73,"gun","recallproc1","recall"
"RL_JOL D",92,1,3,"BlockProc1","Clear - Moat","U",74,40,2471,"StudyProc7","JOL","BlockProc1","Clear - ?",74,"LOOK","recallproc1","recall"
"RL_JOL D",92,1,3,"BlockProc1","Toil - Lease","U",75,50,4374,"StudyProc7","JOL","BlockProc1","Toil - ?",75,"TREE","recallproc1","recall"
"RL_JOL D",92,1,3,"BlockProc1","Sign - Loan","U",76,50,3238,"StudyProc7","JOL","BlockProc1","Sign - ?",76,"BOARD","recallproc1","recall"
"RL_JOL D",92,1,3,"BlockProc1","Ounce - Both","U",77,40,3459,"StudyProc7","JOL","BlockProc1","Ounce - ?",77,"POUND","recallproc1","recall"
"RL_JOL D",92,1,3,"BlockProc1","Morning - Temperature","U",78,80,3218,"StudyProc7","JOL","BlockProc1","Morning - ?",78,"SUN","recallproc1","recall"
"RL_JOL D",92,1,3,"BlockProc1","Children - Mirror","U",79,40,2653,"StudyProc7","JOL","BlockProc1","Children - ?",79,"WASTE","recallproc1","recall"
"RL_JOL D",92,1,3,"BlockProc1","Scar - Main","U",80,70,2751,"StudyProc7","JOL","BlockProc1","Scar - ?",80,"PERMANENT","recallproc1","recall"
"RL_JOL D",93,1,3,"BlockProc1","Long - Extension","B",1,50,6618,"StudyProc3","JOL","BlockProc1","Long - ?",1,"time","recallproc1","recall"
"RL_JOL D",93,1,3,"BlockProc1","Game - Clue","B",2,50,6558,"StudyProc3","JOL","BlockProc1","Game - ?",2,"up","recallproc1","recall"
"RL_JOL D",93,1,3,"BlockProc1","Plant - Cactus","B",3,50,6081,"StudyProc3","JOL","BlockProc1","Plant - ?",3,"tree","recallproc1","recall"
"RL_JOL D",93,1,3,"BlockProc1","Tie - Shoelace","B",4,100,8789,"StudyProc3","JOL","BlockProc1","Tie - ?",4,"knot","recallproc1","recall"
"RL_JOL D",93,1,3,"BlockProc1","Mystery - Detective","B",5,50,7998,"StudyProc3","JOL","BlockProc1","Mystery - ?",5,"investigation","recallproc1","recall"
"RL_JOL D",93,1,3,"BlockProc1","End - Adjourn","B",6,50,6233,"StudyProc3","JOL","BlockProc1","End - ?",6,"over","recallproc1","recall"
"RL_JOL D",93,1,3,"BlockProc1","Dog - Furry","B",7,100,8077,"StudyProc3","JOL","BlockProc1","Dog - ?",7,"furry","recallproc1","recall"
"RL_JOL D",93,1,3,"BlockProc1","Trash - Litter","B",8,1,7326,"StudyProc3","JOL","BlockProc1","Trash - ?",8,"can","recallproc1","recall"
"RL_JOL D",93,1,3,"BlockProc1","Red - Cherry","B",9,50,8362,"StudyProc3","JOL","BlockProc1","Red - ?",9,"red","recallproc1","recall"
"RL_JOL D",93,1,3,"BlockProc1","Head - Scalp","B",10,100,8701,"StudyProc3","JOL","BlockProc1","Head - ?",10,"hair","recallproc1","recall"
"RL_JOL D",93,1,3,"BlockProc1","Car - Driver","B",11,50,7651,"StudyProc3","JOL","BlockProc1","Car - ?",11,"window","recallproc1","recall"
"RL_JOL D",93,1,3,"BlockProc1","Cut - Chop","B",12,100,4989,"StudyProc3","JOL","BlockProc1","Cut - ?",12,"sissors","recallproc1","recall"
"RL_JOL D",93,1,3,"BlockProc1","Donkey - Mule","B",13,100,7969,"StudyProc3","JOL","BlockProc1","Donkey - ?",13,"mule","recallproc1","recall"
"RL_JOL D",93,1,3,"BlockProc1","Paper - Document","B",14,50,7338,"StudyProc3","JOL","BlockProc1","Paper - ?",14,"sissors","recallproc1","recall"
"RL_JOL D",93,1,3,"BlockProc1","Smell - Incense","B",15,100,7436,"StudyProc3","JOL","BlockProc1","Smell - ?",15,"good","recallproc1","recall"
"RL_JOL D",93,1,3,"BlockProc1","Eat - Dine","B",16,100,6516,"StudyProc3","JOL","BlockProc1","Eat - ?",16,"alot","recallproc1","recall"
"RL_JOL D",93,1,3,"BlockProc1","Scissors - Shears","B",17,100,6714,"StudyProc3","JOL","BlockProc1","Scissors - ?",17,"cut","recallproc1","recall"
"RL_JOL D",93,1,3,"BlockProc1","Fight - Feud","B",18,10,9466,"StudyProc3","JOL","BlockProc1","Fight - ?",18,"brawl","recallproc1","recall"
"RL_JOL D",93,1,3,"BlockProc1","Cold - Chill","B",19,100,6070,"StudyProc3","JOL","BlockProc1","Cold - ?",19,"chilly","recallproc1","recall"
"RL_JOL D",93,1,3,"BlockProc1","Love - Affection","B",20,50,7220,"StudyProc3","JOL","BlockProc1","Love - ?",20,"affection","recallproc1","recall"
"RL_JOL D",93,1,3,"BlockProc1","Flip - Turn","F",21,100,7838,"StudyProc3","JOL","BlockProc1","Flip - ?",21,"flop","recallproc1","recall"
"RL_JOL D",93,1,3,"BlockProc1","Windshield - Car","F",22,100,5983,"StudyProc3","JOL","BlockProc1","Windshield - ?",22,"car","recallproc1","recall"
"RL_JOL D",93,1,3,"BlockProc1","Villain - Bad","F",23,50,7071,"StudyProc3","JOL","BlockProc1","Villain - ?",23,"evil","recallproc1","recall"
"RL_JOL D",93,1,3,"BlockProc1","Penguin - Bird","F",24,50,7678,"StudyProc3","JOL","BlockProc1","Penguin - ?",24,"bird","recallproc1","recall"
"RL_JOL D",93,1,3,"BlockProc1","Actress - Star","F",25,100,6977,"StudyProc3","JOL","BlockProc1","Actress - ?",25,"star","recallproc1","recall"
"RL_JOL D",93,1,3,"BlockProc1","Thimble - Thread","F",26,100,6681,"StudyProc3","JOL","BlockProc1","Thimble - ?",26,"needle","recallproc1","recall"
"RL_JOL D",93,1,3,"BlockProc1","Revenge - Even","F",27,50,8815,"StudyProc3","JOL","BlockProc1","Revenge - ?",27,"dislike","recallproc1","recall"
"RL_JOL D",93,1,3,"BlockProc1","Balloon - Pop","F",28,50,8163,"StudyProc3","JOL","BlockProc1","Balloon - ?",28,"pop","recallproc1","recall"
"RL_JOL D",93,1,3,"BlockProc1","Strawberry - Fruit","F",29,110,9019,"StudyProc3","JOL","BlockProc1","Strawberry - ?",29,"fruit","recallproc1","recall"
"RL_JOL D",93,1,3,"BlockProc1","Favorite - Best","F",30,100,7040,"StudyProc3","JOL","BlockProc1","Favorite - ?",30,"best","recallproc1","recall"
"RL_JOL D",93,1,3,"BlockProc1","Panther - Cat","F",31,1,8986,"StudyProc3","JOL","BlockProc1","Panther - ?",31,"lion","recallproc1","recall"
"RL_JOL D",93,1,3,"BlockProc1","Breakable - Glass","F",32,50,7664,"StudyProc3","JOL","BlockProc1","Breakable - ?",32,"glass","recallproc1","recall"
"RL_JOL D",93,1,3,"BlockProc1","Coffin - Dead","F",33,100,7165,"StudyProc3","JOL","BlockProc1","Coffin - ?",33,"grave","recallproc1","recall"
"RL_JOL D",93,1,3,"BlockProc1","Aircraft - Plane","F",34,100,6085,"StudyProc3","JOL","BlockProc1","Aircraft - ?",34,"plane","recallproc1","recall"
"RL_JOL D",93,1,3,"BlockProc1","Sardine - Fish","F",35,50,6637,"StudyProc3","JOL","BlockProc1","Sardine - ?",35,"fish","recallproc1","recall"
"RL_JOL D",93,1,3,"BlockProc1","League - Baseball","F",36,50,9015,"StudyProc3","JOL","BlockProc1","League - ?",36,"baseball","recallproc1","recall"
"RL_JOL D",93,1,3,"BlockProc1","Banker - Money","F",37,100,8516,"StudyProc3","JOL","BlockProc1","Banker - ?",37,"money","recallproc1","recall"
"RL_JOL D",93,1,3,"BlockProc1","Truthful - Honest","F",38,50,7185,"StudyProc3","JOL","BlockProc1","Truthful - ?",38,"lies","recallproc1","recall"
"RL_JOL D",93,1,3,"BlockProc1","Nap - Sleep","F",39,100,9375,"StudyProc3","JOL","BlockProc1","Nap - ?",39,"sleep","recallproc1","recall"
"RL_JOL D",93,1,3,"BlockProc1","Brawl - Fight","F",40,50,6021,"StudyProc3","JOL","BlockProc1","Brawl - ?",40,"fight","recallproc1","recall"
"RL_JOL D",93,1,3,"BlockProc1","Shave - Razor","S",41,100,6104,"StudyProc7","JOL","BlockProc1","Shave - ?",41,"shower","recallproc1","recall"
"RL_JOL D",93,1,3,"BlockProc1","Equal - Rights","S",42,10,8687,"StudyProc7","JOL","BlockProc1","Equal - ?",42,"rights","recallproc1","recall"
"RL_JOL D",93,1,3,"BlockProc1","Jar - Mason","S",43,100,5539,"StudyProc7","JOL","BlockProc1","Jar - ?",43,"mason","recallproc1","recall"
"RL_JOL D",93,1,3,"BlockProc1","Wax - Candle","S",44,50,9258,"StudyProc7","JOL","BlockProc1","Wax - ?",44,"candel","recallproc1","recall"
"RL_JOL D",93,1,3,"BlockProc1","Bracelet - Wrist","S",45,50,7139,"StudyProc7","JOL","BlockProc1","Bracelet - ?",45,"charm","recallproc1","recall"
"RL_JOL D",93,1,3,"BlockProc1","Carbon - Element","S",46,50,5461,"StudyProc7","JOL","BlockProc1","Carbon - ?",46,"element","recallproc1","recall"
"RL_JOL D",93,1,3,"BlockProc1","Away - Gone","S",47,50,4895,"StudyProc7","JOL","BlockProc1","Away - ?",47,"gone","recallproc1","recall"
"RL_JOL D",93,1,3,"BlockProc1","Drink - Water","S",48,100,6696,"StudyProc7","JOL","BlockProc1","Drink - ?",48,"cofee","recallproc1","recall"
"RL_JOL D",93,1,3,"BlockProc1","Ground - Earth","S",49,90,6835,"StudyProc7","JOL","BlockProc1","Ground - ?",49,"earth","recallproc1","recall"
"RL_JOL D",93,1,3,"BlockProc1","Lonely - Alone","S",50,100,6172,"StudyProc7","JOL","BlockProc1","Lonely - ?",50,"sad","recallproc1","recall"
"RL_JOL D",93,1,3,"BlockProc1","Wet - Dry","S",51,50,6838,"StudyProc7","JOL","BlockProc1","Wet - ?",51,"dry","recallproc1","recall"
"RL_JOL D",93,1,3,"BlockProc1","Seatbelt - Safety","S",52,100,5880,"StudyProc7","JOL","BlockProc1","Seatbelt - ?",52,"car","recallproc1","recall"
"RL_JOL D",93,1,3,"BlockProc1","Lie - Truth","S",53,50,5339,"StudyProc7","JOL","BlockProc1","Lie - ?",53,"truth","recallproc1","recall"
"RL_JOL D",93,1,3,"BlockProc1","Communication - Phone","S",54,70,5567,"StudyProc7","JOL","BlockProc1","Communication - ?",54,"phone","recallproc1","recall"
"RL_JOL D",93,1,3,"BlockProc1","Reel - Rod","S",55,100,5134,"StudyProc7","JOL","BlockProc1","Reel - ?",55,"rod","recallproc1","recall"
"RL_JOL D",93,1,3,"BlockProc1","Tick - Flea","S",56,100,6931,"StudyProc7","JOL","BlockProc1","Tick - ?",56,"pet","recallproc1","recall"
"RL_JOL D",93,1,3,"BlockProc1","Noise - Loud","S",57,50,9903,"StudyProc7","JOL","BlockProc1","Noise - ?",57,"loud","recallproc1","recall"
"RL_JOL D",93,1,3,"BlockProc1","Have - Own","S",58,50,6969,"StudyProc7","JOL","BlockProc1","Have - ?",58,"get","recallproc1","recall"
"RL_JOL D",93,1,3,"BlockProc1","Temper - Tantrum","S",59,100,5894,"StudyProc7","JOL","BlockProc1","Temper - ?",59,"tantrum","recallproc1","recall"
"RL_JOL D",93,1,3,"BlockProc1","Tan - Sun","S",60,50,7418,"StudyProc7","JOL","BlockProc1","Tan - ?",60,"sun","recallproc1","recall"
"RL_JOL D",93,1,3,"BlockProc1","Maroon - Justice","U",61,1,7858,"StudyProc7","JOL","BlockProc1","Maroon - ?",61,"white","recallproc1","recall"
"RL_JOL D",93,1,3,"BlockProc1","Cloth - Stretch","U",62,50,9238,"StudyProc7","JOL","BlockProc1","Cloth - ?",62,"clothes","recallproc1","recall"
"RL_JOL D",93,1,3,"BlockProc1","Steak - Give","U",63,50,8223,"StudyProc7","JOL","BlockProc1","Steak - ?",63,"cow","recallproc1","recall"
"RL_JOL D",93,1,3,"BlockProc1","Election - Maze","U",64,1,6874,"StudyProc7","JOL","BlockProc1","Election - ?",64,"president","recallproc1","recall"
"RL_JOL D",93,1,3,"BlockProc1","Charm - Vehicle","U",65,10,10246,"StudyProc7","JOL","BlockProc1","Charm - ?",65,"braclet","recallproc1","recall"
"RL_JOL D",93,1,3,"BlockProc1","Obtain - Meat","U",66,50,7295,"StudyProc7","JOL","BlockProc1","Obtain - ?",66,"have","recallproc1","recall"
"RL_JOL D",93,1,3,"BlockProc1","Able - Crackle","U",67,10,7509,"StudyProc7","JOL","BlockProc1","Able - ?",67,"have","recallproc1","recall"
"RL_JOL D",93,1,3,"BlockProc1","Shake - Shell","U",68,1,11329,"StudyProc7","JOL","BlockProc1","Shake - ?",68,"jumble","recallproc1","recall"
"RL_JOL D",93,1,3,"BlockProc1","Fiction - Listen","U",69,50,7843,"StudyProc7","JOL","BlockProc1","Fiction - ?",69,"read","recallproc1","recall"
"RL_JOL D",93,1,3,"BlockProc1","Joke - Keys","U",70,50,9318,"StudyProc7","JOL","BlockProc1","Joke - ?",70,"funny","recallproc1","recall"
"RL_JOL D",93,1,3,"BlockProc1","Clothes - Cake","U",71,50,8069,"StudyProc7","JOL","BlockProc1","Clothes - ?",71,"cloth","recallproc1","recall"
"RL_JOL D",93,1,3,"BlockProc1","Hate - Name","U",72,1,6002,"StudyProc7","JOL","BlockProc1","Hate - ?",72,"dislike","recallproc1","recall"
"RL_JOL D",93,1,3,"BlockProc1","Bang - Fuzzy","U",73,10,8623,"StudyProc7","JOL","BlockProc1","Bang - ?",73,"loud","recallproc1","recall"
"RL_JOL D",93,1,3,"BlockProc1","Clear - Moat","U",74,1,4969,"StudyProc7","JOL","BlockProc1","Clear - ?",74,"white","recallproc1","recall"
"RL_JOL D",93,1,3,"BlockProc1","Toil - Lease","U",75,10,7808,"StudyProc7","JOL","BlockProc1","Toil - ?",75,"hard","recallproc1","recall"
"RL_JOL D",93,1,3,"BlockProc1","Sign - Loan","U",76,50,5739,"StudyProc7","JOL","BlockProc1","Sign - ?",76,"language","recallproc1","recall"
"RL_JOL D",93,1,3,"BlockProc1","Ounce - Both","U",77,10,8169,"StudyProc7","JOL","BlockProc1","Ounce - ?",77,"both","recallproc1","recall"
"RL_JOL D",93,1,3,"BlockProc1","Morning - Temperature","U",78,100,6109,"StudyProc7","JOL","BlockProc1","Morning - ?",78,"sun","recallproc1","recall"
"RL_JOL D",93,1,3,"BlockProc1","Children - Mirror","U",79,50,8271,"StudyProc7","JOL","BlockProc1","Children - ?",79,"mirror","recallproc1","recall"
"RL_JOL D",93,1,3,"BlockProc1","Scar - Main","U",80,10,7633,"StudyProc7","JOL","BlockProc1","Scar - ?",80,"hurt","recallproc1","recall"
"RL_JOL D",94,1,3,"BlockProc1","Long - Extension","B",1,80,10701,"StudyProc3","JOL","BlockProc1","Long - ?",1,"extension","recallproc1","recall"
"RL_JOL D",94,1,3,"BlockProc1","Game - Clue","B",2,50,11897,"StudyProc3","JOL","BlockProc1","Game - ?",2,"clue","recallproc1","recall"
"RL_JOL D",94,1,3,"BlockProc1","Plant - Cactus","B",3,55,7387,"StudyProc3","JOL","BlockProc1","Plant - ?",3,"green","recallproc1","recall"
"RL_JOL D",94,1,3,"BlockProc1","Tie - Shoelace","B",4,67,7339,"StudyProc3","JOL","BlockProc1","Tie - ?",4,"shoelace","recallproc1","recall"
"RL_JOL D",94,1,3,"BlockProc1","Mystery - Detective","B",5,556,16612,"StudyProc3","JOL","BlockProc1","Mystery - ?",5,"solved","recallproc1","recall"
"RL_JOL D",94,1,3,"BlockProc1","End - Adjourn","B",6,80,8105,"StudyProc3","JOL","BlockProc1","End - ?",6,"adjourn","recallproc1","recall"
"RL_JOL D",94,1,3,"BlockProc1","Dog - Furry","B",7,65,13624,"StudyProc3","JOL","BlockProc1","Dog - ?",7,"furry","recallproc1","recall"
"RL_JOL D",94,1,3,"BlockProc1","Trash - Litter","B",8,50,4157,"StudyProc3","JOL","BlockProc1","Trash - ?",8,"garbage","recallproc1","recall"
"RL_JOL D",94,1,3,"BlockProc1","Red - Cherry","B",9,50,3181,"StudyProc3","JOL","BlockProc1","Red - ?",9,"car","recallproc1","recall"
"RL_JOL D",94,1,3,"BlockProc1","Head - Scalp","B",10,75,7737,"StudyProc3","JOL","BlockProc1","Head - ?",10,"scalp","recallproc1","recall"
"RL_JOL D",94,1,3,"BlockProc1","Car - Driver","B",11,60,29590,"StudyProc3","JOL","BlockProc1","Car - ?",11,"fast","recallproc1","recall"
"RL_JOL D",94,1,3,"BlockProc1","Cut - Chop","B",12,67,8117,"StudyProc3","JOL","BlockProc1","Cut - ?",12,"cho","recallproc1","recall"
"RL_JOL D",94,1,3,"BlockProc1","Donkey - Mule","B",13,50,13904,"StudyProc3","JOL","BlockProc1","Donkey - ?",13,"mule","recallproc1","recall"
"RL_JOL D",94,1,3,"BlockProc1","Paper - Document","B",14,50,8882,"StudyProc3","JOL","BlockProc1","Paper - ?",14,"tear","recallproc1","recall"
"RL_JOL D",94,1,3,"BlockProc1","Smell - Incense","B",15,87,6334,"StudyProc3","JOL","BlockProc1","Smell - ?",15,"inscents","recallproc1","recall"
"RL_JOL D",94,1,3,"BlockProc1","Eat - Dine","B",16,40,5979,"StudyProc3","JOL","BlockProc1","Eat - ?",16,"food","recallproc1","recall"
"RL_JOL D",94,1,3,"BlockProc1","Scissors - Shears","B",17,76,9250,"StudyProc3","JOL","BlockProc1","Scissors - ?",17,"shear","recallproc1","recall"
"RL_JOL D",94,1,3,"BlockProc1","Fight - Feud","B",18,55,9246,"StudyProc3","JOL","BlockProc1","Fight - ?",18,"feud","recallproc1","recall"
"RL_JOL D",94,1,3,"BlockProc1","Cold - Chill","B",19,60,5471,"StudyProc3","JOL","BlockProc1","Cold - ?",19,"wet","recallproc1","recall"
"RL_JOL D",94,1,3,"BlockProc1","Love - Affection","B",20,85,7306,"StudyProc3","JOL","BlockProc1","Love - ?",20,"care","recallproc1","recall"
"RL_JOL D",94,1,3,"BlockProc1","Flip - Turn","F",21,55,8902,"StudyProc3","JOL","BlockProc1","Flip - ?",21,"turn","recallproc1","recall"
"RL_JOL D",94,1,3,"BlockProc1","Windshield - Car","F",22,70,7134,"StudyProc3","JOL","BlockProc1","Windshield - ?",22,"wipers","recallproc1","recall"
"RL_JOL D",94,1,3,"BlockProc1","Villain - Bad","F",23,80,6830,"StudyProc3","JOL","BlockProc1","Villain - ?",23,"bad","recallproc1","recall"
"RL_JOL D",94,1,3,"BlockProc1","Penguin - Bird","F",24,55,16178,"StudyProc3","JOL","BlockProc1","Penguin - ?",24,"bird","recallproc1","recall"
"RL_JOL D",94,1,3,"BlockProc1","Actress - Star","F",25,70,6979,"StudyProc3","JOL","BlockProc1","Actress - ?",25,"star","recallproc1","recall"
"RL_JOL D",94,1,3,"BlockProc1","Thimble - Thread","F",26,60,9004,"StudyProc3","JOL","BlockProc1","Thimble - ?",26,"thread","recallproc1","recall"
"RL_JOL D",94,1,3,"BlockProc1","Revenge - Even","F",27,76,11547,"StudyProc3","JOL","BlockProc1","Revenge - ?",27,"even","recallproc1","recall"
"RL_JOL D",94,1,3,"BlockProc1","Balloon - Pop","F",28,70,8365,"StudyProc3","JOL","BlockProc1","Balloon - ?",28,"pop","recallproc1","recall"
"RL_JOL D",94,1,3,"BlockProc1","Strawberry - Fruit","F",29,70,8005,"StudyProc3","JOL","BlockProc1","Strawberry - ?",29,"fruit","recallproc1","recall"
"RL_JOL D",94,1,3,"BlockProc1","Favorite - Best","F",30,67,7496,"StudyProc3","JOL","BlockProc1","Favorite - ?",30,"best","recallproc1","recall"
"RL_JOL D",94,1,3,"BlockProc1","Panther - Cat","F",31,89,9678,"StudyProc3","JOL","BlockProc1","Panther - ?",31,"cat","recallproc1","recall"
"RL_JOL D",94,1,3,"BlockProc1","Breakable - Glass","F",32,60,6729,"StudyProc3","JOL","BlockProc1","Breakable - ?",32,"glas","recallproc1","recall"
"RL_JOL D",94,1,3,"BlockProc1","Coffin - Dead","F",33,87,4884,"StudyProc3","JOL","BlockProc1","Coffin - ?",33,"dead","recallproc1","recall"
"RL_JOL D",94,1,3,"BlockProc1","Aircraft - Plane","F",34,65,7546,"StudyProc3","JOL","BlockProc1","Aircraft - ?",34,"plane","recallproc1","recall"
"RL_JOL D",94,1,3,"BlockProc1","Sardine - Fish","F",35,87,12064,"StudyProc3","JOL","BlockProc1","Sardine - ?",35,"fish","recallproc1","recall"
"RL_JOL D",94,1,3,"BlockProc1","League - Baseball","F",36,89,12753,"StudyProc3","JOL","BlockProc1","League - ?",36,"baseball","recallproc1","recall"
"RL_JOL D",94,1,3,"BlockProc1","Banker - Money","F",37,70,9721,"StudyProc3","JOL","BlockProc1","Banker - ?",37,"money","recallproc1","recall"
"RL_JOL D",94,1,3,"BlockProc1","Truthful - Honest","F",38,85,8784,"StudyProc3","JOL","BlockProc1","Truthful - ?",38,"honest","recallproc1","recall"
"RL_JOL D",94,1,3,"BlockProc1","Nap - Sleep","F",39,86,7886,"StudyProc3","JOL","BlockProc1","Nap - ?",39,"sleep","recallproc1","recall"
"RL_JOL D",94,1,3,"BlockProc1","Brawl - Fight","F",40,75,8411,"StudyProc3","JOL","BlockProc1","Brawl - ?",40,"fght","recallproc1","recall"
"RL_JOL D",94,1,3,"BlockProc1","Shave - Razor","S",41,75,5658,"StudyProc7","JOL","BlockProc1","Shave - ?",41,"legs","recallproc1","recall"
"RL_JOL D",94,1,3,"BlockProc1","Equal - Rights","S",42,80,7123,"StudyProc7","JOL","BlockProc1","Equal - ?",42,"rights","recallproc1","recall"
"RL_JOL D",94,1,3,"BlockProc1","Jar - Mason","S",43,75,6135,"StudyProc7","JOL","BlockProc1","Jar - ?",43,"mason","recallproc1","recall"
"RL_JOL D",94,1,3,"BlockProc1","Wax - Candle","S",44,75,5926,"StudyProc7","JOL","BlockProc1","Wax - ?",44,"arm","recallproc1","recall"
"RL_JOL D",94,1,3,"BlockProc1","Bracelet - Wrist","S",45,70,10136,"StudyProc7","JOL","BlockProc1","Bracelet - ?",45,"wrist","recallproc1","recall"
"RL_JOL D",94,1,3,"BlockProc1","Carbon - Element","S",46,70,4627,"StudyProc7","JOL","BlockProc1","Carbon - ?",46,"element","recallproc1","recall"
"RL_JOL D",94,1,3,"BlockProc1","Away - Gone","S",47,65,4952,"StudyProc7","JOL","BlockProc1","Away - ?",47,"far","recallproc1","recall"
"RL_JOL D",94,1,3,"BlockProc1","Drink - Water","S",48,80,3634,"StudyProc7","JOL","BlockProc1","Drink - ?",48,"water","recallproc1","recall"
"RL_JOL D",94,1,3,"BlockProc1","Ground - Earth","S",49,65,14991,"StudyProc7","JOL","BlockProc1","Ground - ?",49,"leaf","recallproc1","recall"
"RL_JOL D",94,1,3,"BlockProc1","Lonely - Alone","S",50,65,6588,"StudyProc7","JOL","BlockProc1","Lonely - ?",50,"alone","recallproc1","recall"
"RL_JOL D",94,1,3,"BlockProc1","Wet - Dry","S",51,75,5737,"StudyProc7","JOL","BlockProc1","Wet - ?",51,"water","recallproc1","recall"
"RL_JOL D",94,1,3,"BlockProc1","Seatbelt - Safety","S",52,80,4133,"StudyProc7","JOL","BlockProc1","Seatbelt - ?",52,"safety","recallproc1","recall"
"RL_JOL D",94,1,3,"BlockProc1","Lie - Truth","S",53,60,9087,"StudyProc7","JOL","BlockProc1","Lie - ?",53,"untruthful","recallproc1","recall"
"RL_JOL D",94,1,3,"BlockProc1","Communication - Phone","S",54,75,4045,"StudyProc7","JOL","BlockProc1","Communication - ?",54,"phone","recallproc1","recall"
"RL_JOL D",94,1,3,"BlockProc1","Reel - Rod","S",55,75,9126,"StudyProc7","JOL","BlockProc1","Reel - ?",55,"paddle","recallproc1","recall"
"RL_JOL D",94,1,3,"BlockProc1","Tick - Flea","S",56,80,3446,"StudyProc7","JOL","BlockProc1","Tick - ?",56,"flea","recallproc1","recall"
"RL_JOL D",94,1,3,"BlockProc1","Noise - Loud","S",57,80,6055,"StudyProc7","JOL","BlockProc1","Noise - ?",57,"music","recallproc1","recall"
"RL_JOL D",94,1,3,"BlockProc1","Have - Own","S",58,67,4594,"StudyProc7","JOL","BlockProc1","Have - ?",58,"take","recallproc1","recall"
"RL_JOL D",94,1,3,"BlockProc1","Temper - Tantrum","S",59,87,4691,"StudyProc7","JOL","BlockProc1","Temper - ?",59,"tantrum","recallproc1","recall"
"RL_JOL D",94,1,3,"BlockProc1","Tan - Sun","S",60,85,4941,"StudyProc7","JOL","BlockProc1","Tan - ?",60,"sun","recallproc1","recall"
"RL_JOL D",94,1,3,"BlockProc1","Maroon - Justice","U",61,45,10238,"StudyProc7","JOL","BlockProc1","Maroon - ?",61,"justice","recallproc1","recall"
"RL_JOL D",94,1,3,"BlockProc1","Cloth - Stretch","U",62,50,6425,"StudyProc7","JOL","BlockProc1","Cloth - ?",62,"clothes","recallproc1","recall"
"RL_JOL D",94,1,3,"BlockProc1","Steak - Give","U",63,35,5754,"StudyProc7","JOL","BlockProc1","Steak - ?",63,"give","recallproc1","recall"
"RL_JOL D",94,1,3,"BlockProc1","Election - Maze","U",64,35,14402,"StudyProc7","JOL","BlockProc1","Election - ?",64,"vote","recallproc1","recall"
"RL_JOL D",94,1,3,"BlockProc1","Charm - Vehicle","U",65,35,6894,"StudyProc7","JOL","BlockProc1","Charm - ?",65,"bracelet","recallproc1","recall"
"RL_JOL D",94,1,3,"BlockProc1","Obtain - Meat","U",66,35,8812,"StudyProc7","JOL","BlockProc1","Obtain - ?",66,"","recallproc1","recall"
"RL_JOL D",94,1,3,"BlockProc1","Able - Crackle","U",67,45,6330,"StudyProc7","JOL","BlockProc1","Able - ?",67,"cable","recallproc1","recall"
"RL_JOL D",94,1,3,"BlockProc1","Shake - Shell","U",68,40,12074,"StudyProc7","JOL","BlockProc1","Shake - ?",68,"shell","recallproc1","recall"
"RL_JOL D",94,1,3,"BlockProc1","Fiction - Listen","U",69,35,3798,"StudyProc7","JOL","BlockProc1","Fiction - ?",69,"fake","recallproc1","recall"
"RL_JOL D",94,1,3,"BlockProc1","Joke - Keys","U",70,20,13181,"StudyProc7","JOL","BlockProc1","Joke - ?",70,"keys","recallproc1","recall"
"RL_JOL D",94,1,3,"BlockProc1","Clothes - Cake","U",71,25,7076,"StudyProc7","JOL","BlockProc1","Clothes - ?",71,"shirts","recallproc1","recall"
"RL_JOL D",94,1,3,"BlockProc1","Hate - Name","U",72,40,7673,"StudyProc7","JOL","BlockProc1","Hate - ?",72,"love","recallproc1","recall"
"RL_JOL D",94,1,3,"BlockProc1","Bang - Fuzzy","U",73,20,6679,"StudyProc7","JOL","BlockProc1","Bang - ?",73,"car","recallproc1","recall"
"RL_JOL D",94,1,3,"BlockProc1","Clear - Moat","U",74,25,7064,"StudyProc7","JOL","BlockProc1","Clear - ?",74,"moat","recallproc1","recall"
"RL_JOL D",94,1,3,"BlockProc1","Toil - Lease","U",75,43,4493,"StudyProc7","JOL","BlockProc1","Toil - ?",75,"car","recallproc1","recall"
"RL_JOL D",94,1,3,"BlockProc1","Sign - Loan","U",76,35,4075,"StudyProc7","JOL","BlockProc1","Sign - ?",76,"far","recallproc1","recall"
"RL_JOL D",94,1,3,"BlockProc1","Ounce - Both","U",77,25,7090,"StudyProc7","JOL","BlockProc1","Ounce - ?",77,"pounds","recallproc1","recall"
"RL_JOL D",94,1,3,"BlockProc1","Morning - Temperature","U",78,35,11606,"StudyProc7","JOL","BlockProc1","Morning - ?",78,"temperature","recallproc1","recall"
"RL_JOL D",94,1,3,"BlockProc1","Children - Mirror","U",79,30,6089,"StudyProc7","JOL","BlockProc1","Children - ?",79,"play","recallproc1","recall"
"RL_JOL D",94,1,3,"BlockProc1","Scar - Main","U",80,35,4520,"StudyProc7","JOL","BlockProc1","Scar - ?",80,"main","recallproc1","recall"
"RL_JOL D",95,1,3,"BlockProc1","Long - Extension","B",1,80,13043,"StudyProc3","JOL","BlockProc1","Long - ?",1,"extension","recallproc1","recall"
"RL_JOL D",95,1,3,"BlockProc1","Game - Clue","B",2,100,14906,"StudyProc3","JOL","BlockProc1","Game - ?",2,"clue","recallproc1","recall"
"RL_JOL D",95,1,3,"BlockProc1","Plant - Cactus","B",3,70,10293,"StudyProc3","JOL","BlockProc1","Plant - ?",3,"cactus","recallproc1","recall"
"RL_JOL D",95,1,3,"BlockProc1","Tie - Shoelace","B",4,60,9902,"StudyProc3","JOL","BlockProc1","Tie - ?",4,"shoelace","recallproc1","recall"
"RL_JOL D",95,1,3,"BlockProc1","Mystery - Detective","B",5,100,12633,"StudyProc3","JOL","BlockProc1","Mystery - ?",5,"detective","recallproc1","recall"
"RL_JOL D",95,1,3,"BlockProc1","End - Adjourn","B",6,20,13816,"StudyProc3","JOL","BlockProc1","End - ?",6,"start","recallproc1","recall"
"RL_JOL D",95,1,3,"BlockProc1","Dog - Furry","B",7,100,9271,"StudyProc3","JOL","BlockProc1","Dog - ?",7,"fluffy","recallproc1","recall"
"RL_JOL D",95,1,3,"BlockProc1","Trash - Litter","B",8,70,9579,"StudyProc3","JOL","BlockProc1","Trash - ?",8,"litter","recallproc1","recall"
"RL_JOL D",95,1,3,"BlockProc1","Red - Cherry","B",9,80,6186,"StudyProc3","JOL","BlockProc1","Red - ?",9,"color","recallproc1","recall"
"RL_JOL D",95,1,3,"BlockProc1","Head - Scalp","B",10,100,13350,"StudyProc3","JOL","BlockProc1","Head - ?",10,"scalp","recallproc1","recall"
"RL_JOL D",95,1,3,"BlockProc1","Car - Driver","B",11,90,7542,"StudyProc3","JOL","BlockProc1","Car - ?",11,"windsheild","recallproc1","recall"
"RL_JOL D",95,1,3,"BlockProc1","Cut - Chop","B",12,80,10463,"StudyProc3","JOL","BlockProc1","Cut - ?",12,"hair","recallproc1","recall"
"RL_JOL D",95,1,3,"BlockProc1","Donkey - Mule","B",13,70,8466,"StudyProc3","JOL","BlockProc1","Donkey - ?",13,"mule","recallproc1","recall"
"RL_JOL D",95,1,3,"BlockProc1","Paper - Document","B",14,60,13348,"StudyProc3","JOL","BlockProc1","Paper - ?",14,"document","recallproc1","recall"
"RL_JOL D",95,1,3,"BlockProc1","Smell - Incense","B",15,70,12642,"StudyProc3","JOL","BlockProc1","Smell - ?",15,"food","recallproc1","recall"
"RL_JOL D",95,1,3,"BlockProc1","Eat - Dine","B",16,70,11582,"StudyProc3","JOL","BlockProc1","Eat - ?",16,"sleep","recallproc1","recall"
"RL_JOL D",95,1,3,"BlockProc1","Scissors - Shears","B",17,60,7637,"StudyProc3","JOL","BlockProc1","Scissors - ?",17,"shear","recallproc1","recall"
"RL_JOL D",95,1,3,"BlockProc1","Fight - Feud","B",18,70,10907,"StudyProc3","JOL","BlockProc1","Fight - ?",18,"brawl","recallproc1","recall"
"RL_JOL D",95,1,3,"BlockProc1","Cold - Chill","B",19,70,11651,"StudyProc3","JOL","BlockProc1","Cold - ?",19,"chill","recallproc1","recall"
"RL_JOL D",95,1,3,"BlockProc1","Love - Affection","B",20,80,9967,"StudyProc3","JOL","BlockProc1","Love - ?",20,"affection","recallproc1","recall"
"RL_JOL D",95,1,3,"BlockProc1","Flip - Turn","F",21,50,12340,"StudyProc3","JOL","BlockProc1","Flip - ?",21,"turn","recallproc1","recall"
"RL_JOL D",95,1,3,"BlockProc1","Windshield - Car","F",22,60,7398,"StudyProc3","JOL","BlockProc1","Windshield - ?",22,"car","recallproc1","recall"
"RL_JOL D",95,1,3,"BlockProc1","Villain - Bad","F",23,100,7649,"StudyProc3","JOL","BlockProc1","Villain - ?",23,"bad","recallproc1","recall"
"RL_JOL D",95,1,3,"BlockProc1","Penguin - Bird","F",24,60,9868,"StudyProc3","JOL","BlockProc1","Penguin - ?",24,"bird","recallproc1","recall"
"RL_JOL D",95,1,3,"BlockProc1","Actress - Star","F",25,50,9332,"StudyProc3","JOL","BlockProc1","Actress - ?",25,"star","recallproc1","recall"
"RL_JOL D",95,1,3,"BlockProc1","Thimble - Thread","F",26,40,11350,"StudyProc3","JOL","BlockProc1","Thimble - ?",26,"thread","recallproc1","recall"
"RL_JOL D",95,1,3,"BlockProc1","Revenge - Even","F",27,50,11335,"StudyProc3","JOL","BlockProc1","Revenge - ?",27,"even","recallproc1","recall"
"RL_JOL D",95,1,3,"BlockProc1","Balloon - Pop","F",28,70,8236,"StudyProc3","JOL","BlockProc1","Balloon - ?",28,"pop","recallproc1","recall"
"RL_JOL D",95,1,3,"BlockProc1","Strawberry - Fruit","F",29,80,8078,"StudyProc3","JOL","BlockProc1","Strawberry - ?",29,"fruit","recallproc1","recall"
"RL_JOL D",95,1,3,"BlockProc1","Favorite - Best","F",30,50,10182,"StudyProc3","JOL","BlockProc1","Favorite - ?",30,"best","recallproc1","recall"
"RL_JOL D",95,1,3,"BlockProc1","Panther - Cat","F",31,80,10976,"StudyProc3","JOL","BlockProc1","Panther - ?",31,"cat","recallproc1","recall"
"RL_JOL D",95,1,3,"BlockProc1","Breakable - Glass","F",32,70,7910,"StudyProc3","JOL","BlockProc1","Breakable - ?",32,"break","recallproc1","recall"
"RL_JOL D",95,1,3,"BlockProc1","Coffin - Dead","F",33,50,9345,"StudyProc3","JOL","BlockProc1","Coffin - ?",33,"dead","recallproc1","recall"
"RL_JOL D",95,1,3,"BlockProc1","Aircraft - Plane","F",34,50,8640,"StudyProc3","JOL","BlockProc1","Aircraft - ?",34,"plane","recallproc1","recall"
"RL_JOL D",95,1,3,"BlockProc1","Sardine - Fish","F",35,80,8507,"StudyProc3","JOL","BlockProc1","Sardine - ?",35,"fish","recallproc1","recall"
"RL_JOL D",95,1,3,"BlockProc1","League - Baseball","F",36,70,10609,"StudyProc3","JOL","BlockProc1","League - ?",36,"baseball","recallproc1","recall"
"RL_JOL D",95,1,3,"BlockProc1","Banker - Money","F",37,60,11402,"StudyProc3","JOL","BlockProc1","Banker - ?",37,"money","recallproc1","recall"
"RL_JOL D",95,1,3,"BlockProc1","Truthful - Honest","F",38,80,12053,"StudyProc3","JOL","BlockProc1","Truthful - ?",38,"honest","recallproc1","recall"
"RL_JOL D",95,1,3,"BlockProc1","Nap - Sleep","F",39,100,9095,"StudyProc3","JOL","BlockProc1","Nap - ?",39,"sleep","recallproc1","recall"
"RL_JOL D",95,1,3,"BlockProc1","Brawl - Fight","F",40,100,10276,"StudyProc3","JOL","BlockProc1","Brawl - ?",40,"fight","recallproc1","recall"
"RL_JOL D",95,1,3,"BlockProc1","Shave - Razor","S",41,90,5040,"StudyProc7","JOL","BlockProc1","Shave - ?",41,"razor","recallproc1","recall"
"RL_JOL D",95,1,3,"BlockProc1","Equal - Rights","S",42,90,12397,"StudyProc7","JOL","BlockProc1","Equal - ?",42,"rights","recallproc1","recall"
"RL_JOL D",95,1,3,"BlockProc1","Jar - Mason","S",43,50,12068,"StudyProc7","JOL","BlockProc1","Jar - ?",43,"mason","recallproc1","recall"
"RL_JOL D",95,1,3,"BlockProc1","Wax - Candle","S",44,90,6894,"StudyProc7","JOL","BlockProc1","Wax - ?",44,"candle","recallproc1","recall"
"RL_JOL D",95,1,3,"BlockProc1","Bracelet - Wrist","S",45,90,6772,"StudyProc7","JOL","BlockProc1","Bracelet - ?",45,"wrist","recallproc1","recall"
"RL_JOL D",95,1,3,"BlockProc1","Carbon - Element","S",46,60,8082,"StudyProc7","JOL","BlockProc1","Carbon - ?",46,"element","recallproc1","recall"
"RL_JOL D",95,1,3,"BlockProc1","Away - Gone","S",47,80,9447,"StudyProc7","JOL","BlockProc1","Away - ?",47,"here","recallproc1","recall"
"RL_JOL D",95,1,3,"BlockProc1","Drink - Water","S",48,100,9725,"StudyProc7","JOL","BlockProc1","Drink - ?",48,"water","recallproc1","recall"
"RL_JOL D",95,1,3,"BlockProc1","Ground - Earth","S",49,80,11384,"StudyProc7","JOL","BlockProc1","Ground - ?",49,"earth","recallproc1","recall"
"RL_JOL D",95,1,3,"BlockProc1","Lonely - Alone","S",50,100,10634,"StudyProc7","JOL","BlockProc1","Lonely - ?",50,"alone","recallproc1","recall"
"RL_JOL D",95,1,3,"BlockProc1","Wet - Dry","S",51,40,13414,"StudyProc7","JOL","BlockProc1","Wet - ?",51,"dry","recallproc1","recall"
"RL_JOL D",95,1,3,"BlockProc1","Seatbelt - Safety","S",52,90,8305,"StudyProc7","JOL","BlockProc1","Seatbelt - ?",52,"safety","recallproc1","recall"
"RL_JOL D",95,1,3,"BlockProc1","Lie - Truth","S",53,50,21226,"StudyProc7","JOL","BlockProc1","Lie - ?",53,"truth","recallproc1","recall"
"RL_JOL D",95,1,3,"BlockProc1","Communication - Phone","S",54,80,10489,"StudyProc7","JOL","BlockProc1","Communication - ?",54,"phone","recallproc1","recall"
"RL_JOL D",95,1,3,"BlockProc1","Reel - Rod","S",55,40,12555,"StudyProc7","JOL","BlockProc1","Reel - ?",55,"rod","recallproc1","recall"
"RL_JOL D",95,1,3,"BlockProc1","Tick - Flea","S",56,70,10552,"StudyProc7","JOL","BlockProc1","Tick - ?",56,"flea","recallproc1","recall"
"RL_JOL D",95,1,3,"BlockProc1","Noise - Loud","S",57,60,8161,"StudyProc7","JOL","BlockProc1","Noise - ?",57,"loud","recallproc1","recall"
"RL_JOL D",95,1,3,"BlockProc1","Have - Own","S",58,80,9134,"StudyProc7","JOL","BlockProc1","Have - ?",58,"obtain","recallproc1","recall"
"RL_JOL D",95,1,3,"BlockProc1","Temper - Tantrum","S",59,60,11546,"StudyProc7","JOL","BlockProc1","Temper - ?",59,"tantrum","recallproc1","recall"
"RL_JOL D",95,1,3,"BlockProc1","Tan - Sun","S",60,70,9515,"StudyProc7","JOL","BlockProc1","Tan - ?",60,"sun","recallproc1","recall"
"RL_JOL D",95,1,3,"BlockProc1","Maroon - Justice","U",61,30,21727,"StudyProc7","JOL","BlockProc1","Maroon - ?",61,"justice","recallproc1","recall"
"RL_JOL D",95,1,3,"BlockProc1","Cloth - Stretch","U",62,40,10785,"StudyProc7","JOL","BlockProc1","Cloth - ?",62,"stretch","recallproc1","recall"
"RL_JOL D",95,1,3,"BlockProc1","Steak - Give","U",63,40,11044,"StudyProc7","JOL","BlockProc1","Steak - ?",63,"give","recallproc1","recall"
"RL_JOL D",95,1,3,"BlockProc1","Election - Maze","U",64,30,10012,"StudyProc7","JOL","BlockProc1","Election - ?",64,"maze","recallproc1","recall"
"RL_JOL D",95,1,3,"BlockProc1","Charm - Vehicle","U",65,40,12573,"StudyProc7","JOL","BlockProc1","Charm - ?",65,"car","recallproc1","recall"
"RL_JOL D",95,1,3,"BlockProc1","Obtain - Meat","U",66,20,12066,"StudyProc7","JOL","BlockProc1","Obtain - ?",66,"meat","recallproc1","recall"
"RL_JOL D",95,1,3,"BlockProc1","Able - Crackle","U",67,30,11306,"StudyProc7","JOL","BlockProc1","Able - ?",67,"obtain","recallproc1","recall"
"RL_JOL D",95,1,3,"BlockProc1","Shake - Shell","U",68,30,13369,"StudyProc7","JOL","BlockProc1","Shake - ?",68,"bounce","recallproc1","recall"
"RL_JOL D",95,1,3,"BlockProc1","Fiction - Listen","U",69,30,13999,"StudyProc7","JOL","BlockProc1","Fiction - ?",69,"listen","recallproc1","recall"
"RL_JOL D",95,1,3,"BlockProc1","Joke - Keys","U",70,20,12293,"StudyProc7","JOL","BlockProc1","Joke - ?",70,"laugh","recallproc1","recall"
"RL_JOL D",95,1,3,"BlockProc1","Clothes - Cake","U",71,20,11565,"StudyProc7","JOL","BlockProc1","Clothes - ?",71,"stretch","recallproc1","recall"
"RL_JOL D",95,1,3,"BlockProc1","Hate - Name","U",72,30,11331,"StudyProc7","JOL","BlockProc1","Hate - ?",72,"name","recallproc1","recall"
"RL_JOL D",95,1,3,"BlockProc1","Bang - Fuzzy","U",73,20,13411,"StudyProc7","JOL","BlockProc1","Bang - ?",73,"pop","recallproc1","recall"
"RL_JOL D",95,1,3,"BlockProc1","Clear - Moat","U",74,0,12150,"StudyProc7","JOL","BlockProc1","Clear - ?",74,"sky","recallproc1","recall"
"RL_JOL D",95,1,3,"BlockProc1","Toil - Lease","U",75,0,17216,"StudyProc7","JOL","BlockProc1","Toil - ?",75,"soil","recallproc1","recall"
"RL_JOL D",95,1,3,"BlockProc1","Sign - Loan","U",76,50,12968,"StudyProc7","JOL","BlockProc1","Sign - ?",76,"loan","recallproc1","recall"
"RL_JOL D",95,1,3,"BlockProc1","Ounce - Both","U",77,0,15806,"StudyProc7","JOL","BlockProc1","Ounce - ?",77,"both","recallproc1","recall"
"RL_JOL D",95,1,3,"BlockProc1","Morning - Temperature","U",78,40,12845,"StudyProc7","JOL","BlockProc1","Morning - ?",78,"temperature","recallproc1","recall"
"RL_JOL D",95,1,3,"BlockProc1","Children - Mirror","U",79,30,13428,"StudyProc7","JOL","BlockProc1","Children - ?",79,"mirror","recallproc1","recall"
"RL_JOL D",95,1,3,"BlockProc1","Scar - Main","U",80,30,10966,"StudyProc7","JOL","BlockProc1","Scar - ?",80,"main","recallproc1","recall"
"RL_JOL D",96,1,3,"BlockProc1","Long - Extension","B",1,80,8363,"StudyProc3","JOL","BlockProc1","Long - ?",1,"EXPAND","recallproc1","recall"
"RL_JOL D",96,1,3,"BlockProc1","Game - Clue","B",2,78,8833,"StudyProc3","JOL","BlockProc1","Game - ?",2,"RULES","recallproc1","recall"
"RL_JOL D",96,1,3,"BlockProc1","Plant - Cactus","B",3,90,14457,"StudyProc3","JOL","BlockProc1","Plant - ?",3,"CACTUS","recallproc1","recall"
"RL_JOL D",96,1,3,"BlockProc1","Tie - Shoelace","B",4,70,15495,"StudyProc3","JOL","BlockProc1","Tie - ?",4,"SHOELACE","recallproc1","recall"
"RL_JOL D",96,1,3,"BlockProc1","Mystery - Detective","B",5,90,8335,"StudyProc3","JOL","BlockProc1","Mystery - ?",5,"DETECTIVE","recallproc1","recall"
"RL_JOL D",96,1,3,"BlockProc1","End - Adjourn","B",6,90,5964,"StudyProc3","JOL","BlockProc1","End - ?",6,"AJOURN","recallproc1","recall"
"RL_JOL D",96,1,3,"BlockProc1","Dog - Furry","B",7,90,10826,"StudyProc3","JOL","BlockProc1","Dog - ?",7,"CAT","recallproc1","recall"
"RL_JOL D",96,1,3,"BlockProc1","Trash - Litter","B",8,80,15401,"StudyProc3","JOL","BlockProc1","Trash - ?",8,"LITTER","recallproc1","recall"
"RL_JOL D",96,1,3,"BlockProc1","Red - Cherry","B",9,80,9335,"StudyProc3","JOL","BlockProc1","Red - ?",9,"CHERRY","recallproc1","recall"
"RL_JOL D",96,1,3,"BlockProc1","Head - Scalp","B",10,80,9189,"StudyProc3","JOL","BlockProc1","Head - ?",10,"SCALP","recallproc1","recall"
"RL_JOL D",96,1,3,"BlockProc1","Car - Driver","B",11,70,5286,"StudyProc3","JOL","BlockProc1","Car - ?",11,"WINDSHIELD","recallproc1","recall"
"RL_JOL D",96,1,3,"BlockProc1","Cut - Chop","B",12,70,15171,"StudyProc3","JOL","BlockProc1","Cut - ?",12,"CHOP","recallproc1","recall"
"RL_JOL D",96,1,3,"BlockProc1","Donkey - Mule","B",13,70,11764,"StudyProc3","JOL","BlockProc1","Donkey - ?",13,"MULE","recallproc1","recall"
"RL_JOL D",96,1,3,"BlockProc1","Paper - Document","B",14,75,14844,"StudyProc3","JOL","BlockProc1","Paper - ?",14,"DOCUMENT","recallproc1","recall"
"RL_JOL D",96,1,3,"BlockProc1","Smell - Incense","B",15,50,4844,"StudyProc3","JOL","BlockProc1","Smell - ?",15,"FOOD","recallproc1","recall"
"RL_JOL D",96,1,3,"BlockProc1","Eat - Dine","B",16,90,3599,"StudyProc3","JOL","BlockProc1","Eat - ?",16,"DINE","recallproc1","recall"
"RL_JOL D",96,1,3,"BlockProc1","Scissors - Shears","B",17,50,7980,"StudyProc3","JOL","BlockProc1","Scissors - ?",17,"SHEATH","recallproc1","recall"
"RL_JOL D",96,1,3,"BlockProc1","Fight - Feud","B",18,90,4684,"StudyProc3","JOL","BlockProc1","Fight - ?",18,"BRAWL","recallproc1","recall"
"RL_JOL D",96,1,3,"BlockProc1","Cold - Chill","B",19,85,9812,"StudyProc3","JOL","BlockProc1","Cold - ?",19,"CHILLY","recallproc1","recall"
"RL_JOL D",96,1,3,"BlockProc1","Love - Affection","B",20,98,10349,"StudyProc3","JOL","BlockProc1","Love - ?",20,"AFFECTION","recallproc1","recall"
"RL_JOL D",96,1,3,"BlockProc1","Flip - Turn","F",21,50,14502,"StudyProc3","JOL","BlockProc1","Flip - ?",21,"TURN","recallproc1","recall"
"RL_JOL D",96,1,3,"BlockProc1","Windshield - Car","F",22,95,11932,"StudyProc3","JOL","BlockProc1","Windshield - ?",22,"CAR","recallproc1","recall"
"RL_JOL D",96,1,3,"BlockProc1","Villain - Bad","F",23,95,20172,"StudyProc3","JOL","BlockProc1","Villain - ?",23,"BAD","recallproc1","recall"
"RL_JOL D",96,1,3,"BlockProc1","Penguin - Bird","F",24,100,12796,"StudyProc3","JOL","BlockProc1","Penguin - ?",24,"BIRD","recallproc1","recall"
"RL_JOL D",96,1,3,"BlockProc1","Actress - Star","F",25,75,14211,"StudyProc3","JOL","BlockProc1","Actress - ?",25,"STAR","recallproc1","recall"
"RL_JOL D",96,1,3,"BlockProc1","Thimble - Thread","F",26,45,4162,"StudyProc3","JOL","BlockProc1","Thimble - ?",26,"CLOTHE","recallproc1","recall"
"RL_JOL D",96,1,3,"BlockProc1","Revenge - Even","F",27,75,6304,"StudyProc3","JOL","BlockProc1","Revenge - ?",27,"EVEN","recallproc1","recall"
"RL_JOL D",96,1,3,"BlockProc1","Balloon - Pop","F",28,75,10099,"StudyProc3","JOL","BlockProc1","Balloon - ?",28,"POP","recallproc1","recall"
"RL_JOL D",96,1,3,"BlockProc1","Strawberry - Fruit","F",29,80,13075,"StudyProc3","JOL","BlockProc1","Strawberry - ?",29,"FRUIT","recallproc1","recall"
"RL_JOL D",96,1,3,"BlockProc1","Favorite - Best","F",30,100,11692,"StudyProc3","JOL","BlockProc1","Favorite - ?",30,"BEST","recallproc1","recall"
"RL_JOL D",96,1,3,"BlockProc1","Panther - Cat","F",31,78,10114,"StudyProc3","JOL","BlockProc1","Panther - ?",31,"CAT","recallproc1","recall"
"RL_JOL D",96,1,3,"BlockProc1","Breakable - Glass","F",32,90,12159,"StudyProc3","JOL","BlockProc1","Breakable - ?",32,"GLASS","recallproc1","recall"
"RL_JOL D",96,1,3,"BlockProc1","Coffin - Dead","F",33,100,4125,"StudyProc3","JOL","BlockProc1","Coffin - ?",33,"DEAD","recallproc1","recall"
"RL_JOL D",96,1,3,"BlockProc1","Aircraft - Plane","F",34,80,12065,"StudyProc3","JOL","BlockProc1","Aircraft - ?",34,"PLANE","recallproc1","recall"
"RL_JOL D",96,1,3,"BlockProc1","Sardine - Fish","F",35,75,7039,"StudyProc3","JOL","BlockProc1","Sardine - ?",35,"FISH","recallproc1","recall"
"RL_JOL D",96,1,3,"BlockProc1","League - Baseball","F",36,75,17584,"StudyProc3","JOL","BlockProc1","League - ?",36,"BASEBLL","recallproc1","recall"
"RL_JOL D",96,1,3,"BlockProc1","Banker - Money","F",37,75,10622,"StudyProc3","JOL","BlockProc1","Banker - ?",37,"MONEY","recallproc1","recall"
"RL_JOL D",96,1,3,"BlockProc1","Truthful - Honest","F",38,100,4451,"StudyProc3","JOL","BlockProc1","Truthful - ?",38,"HONEST","recallproc1","recall"
"RL_JOL D",96,1,3,"BlockProc1","Nap - Sleep","F",39,90,11228,"StudyProc3","JOL","BlockProc1","Nap - ?",39,"SLEEP","recallproc1","recall"
"RL_JOL D",96,1,3,"BlockProc1","Brawl - Fight","F",40,100,9232,"StudyProc3","JOL","BlockProc1","Brawl - ?",40,"FIGHT","recallproc1","recall"
"RL_JOL D",96,1,3,"BlockProc1","Shave - Razor","S",41,100,7337,"StudyProc7","JOL","BlockProc1","Shave - ?",41,"RAZOR","recallproc1","recall"
"RL_JOL D",96,1,3,"BlockProc1","Equal - Rights","S",42,60,10731,"StudyProc7","JOL","BlockProc1","Equal - ?",42,"RIGHTS","recallproc1","recall"
"RL_JOL D",96,1,3,"BlockProc1","Jar - Mason","S",43,90,6951,"StudyProc7","JOL","BlockProc1","Jar - ?",43,"MASON","recallproc1","recall"
"RL_JOL D",96,1,3,"BlockProc1","Wax - Candle","S",44,95,6551,"StudyProc7","JOL","BlockProc1","Wax - ?",44,"TAN","recallproc1","recall"
"RL_JOL D",96,1,3,"BlockProc1","Bracelet - Wrist","S",45,98,4609,"StudyProc7","JOL","BlockProc1","Bracelet - ?",45,"WRIST","recallproc1","recall"
"RL_JOL D",96,1,3,"BlockProc1","Carbon - Element","S",46,80,8319,"StudyProc7","JOL","BlockProc1","Carbon - ?",46,"ELEMENT","recallproc1","recall"
"RL_JOL D",96,1,3,"BlockProc1","Away - Gone","S",47,80,9887,"StudyProc7","JOL","BlockProc1","Away - ?",47,"GONE","recallproc1","recall"
"RL_JOL D",96,1,3,"BlockProc1","Drink - Water","S",48,89,5916,"StudyProc7","JOL","BlockProc1","Drink - ?",48,"WATER","recallproc1","recall"
"RL_JOL D",96,1,3,"BlockProc1","Ground - Earth","S",49,90,5428,"StudyProc7","JOL","BlockProc1","Ground - ?",49,"EARTH","recallproc1","recall"
"RL_JOL D",96,1,3,"BlockProc1","Lonely - Alone","S",50,90,3007,"StudyProc7","JOL","BlockProc1","Lonely - ?",50,"ALONE","recallproc1","recall"
"RL_JOL D",96,1,3,"BlockProc1","Wet - Dry","S",51,76,6577,"StudyProc7","JOL","BlockProc1","Wet - ?",51,"DRY","recallproc1","recall"
"RL_JOL D",96,1,3,"BlockProc1","Seatbelt - Safety","S",52,100,2920,"StudyProc7","JOL","BlockProc1","Seatbelt - ?",52,"SAFETY","recallproc1","recall"
"RL_JOL D",96,1,3,"BlockProc1","Lie - Truth","S",53,100,10763,"StudyProc7","JOL","BlockProc1","Lie - ?",53,"TRUTH","recallproc1","recall"
"RL_JOL D",96,1,3,"BlockProc1","Communication - Phone","S",54,100,11135,"StudyProc7","JOL","BlockProc1","Communication - ?",54,"PHONE","recallproc1","recall"
"RL_JOL D",96,1,3,"BlockProc1","Reel - Rod","S",55,5,8417,"StudyProc7","JOL","BlockProc1","Reel - ?",55,"ROD","recallproc1","recall"
"RL_JOL D",96,1,3,"BlockProc1","Tick - Flea","S",56,95,8865,"StudyProc7","JOL","BlockProc1","Tick - ?",56,"FLEA","recallproc1","recall"
"RL_JOL D",96,1,3,"BlockProc1","Noise - Loud","S",57,97,8001,"StudyProc7","JOL","BlockProc1","Noise - ?",57,"LOUD","recallproc1","recall"
"RL_JOL D",96,1,3,"BlockProc1","Have - Own","S",58,75,9065,"StudyProc7","JOL","BlockProc1","Have - ?",58,"OWN","recallproc1","recall"
"RL_JOL D",96,1,3,"BlockProc1","Temper - Tantrum","S",59,100,4013,"StudyProc7","JOL","BlockProc1","Temper - ?",59,"TANTURM","recallproc1","recall"
"RL_JOL D",96,1,3,"BlockProc1","Tan - Sun","S",60,90,7834,"StudyProc7","JOL","BlockProc1","Tan - ?",60,"SUN","recallproc1","recall"
"RL_JOL D",96,1,3,"BlockProc1","Maroon - Justice","U",61,0,3826,"StudyProc7","JOL","BlockProc1","Maroon - ?",61,"MAD","recallproc1","recall"
"RL_JOL D",96,1,3,"BlockProc1","Cloth - Stretch","U",62,10,4965,"StudyProc7","JOL","BlockProc1","Cloth - ?",62,"STRETCH","recallproc1","recall"
"RL_JOL D",96,1,3,"BlockProc1","Steak - Give","U",63,20,7129,"StudyProc7","JOL","BlockProc1","Steak - ?",63,"GIVE","recallproc1","recall"
"RL_JOL D",96,1,3,"BlockProc1","Election - Maze","U",64,0,3759,"StudyProc7","JOL","BlockProc1","Election - ?",64,"MAZE","recallproc1","recall"
"RL_JOL D",96,1,3,"BlockProc1","Charm - Vehicle","U",65,0,2543,"StudyProc7","JOL","BlockProc1","Charm - ?",65,"LOV","recallproc1","recall"
"RL_JOL D",96,1,3,"BlockProc1","Obtain - Meat","U",66,0,3145,"StudyProc7","JOL","BlockProc1","Obtain - ?",66,"HAVE","recallproc1","recall"
"RL_JOL D",96,1,3,"BlockProc1","Able - Crackle","U",67,0,5460,"StudyProc7","JOL","BlockProc1","Able - ?",67,"ABLE","recallproc1","recall"
"RL_JOL D",96,1,3,"BlockProc1","Shake - Shell","U",68,0,4496,"StudyProc7","JOL","BlockProc1","Shake - ?",68,"EAT","recallproc1","recall"
"RL_JOL D",96,1,3,"BlockProc1","Fiction - Listen","U",69,45,4240,"StudyProc7","JOL","BlockProc1","Fiction - ?",69,"LISTEN","recallproc1","recall"
"RL_JOL D",96,1,3,"BlockProc1","Joke - Keys","U",70,0,4921,"StudyProc7","JOL","BlockProc1","Joke - ?",70,"LAUGH","recallproc1","recall"
"RL_JOL D",96,1,3,"BlockProc1","Clothes - Cake","U",71,50,17006,"StudyProc7","JOL","BlockProc1","Clothes - ?",71,"CAKE","recallproc1","recall"
"RL_JOL D",96,1,3,"BlockProc1","Hate - Name","U",72,0,2004,"StudyProc7","JOL","BlockProc1","Hate - ?",72,"LOVE","recallproc1","recall"
"RL_JOL D",96,1,3,"BlockProc1","Bang - Fuzzy","U",73,0,3284,"StudyProc7","JOL","BlockProc1","Bang - ?",73,"LOUD","recallproc1","recall"
"RL_JOL D",96,1,3,"BlockProc1","Clear - Moat","U",74,0,3086,"StudyProc7","JOL","BlockProc1","Clear - ?",74,"SKIN","recallproc1","recall"
"RL_JOL D",96,1,3,"BlockProc1","Toil - Lease","U",75,5,3844,"StudyProc7","JOL","BlockProc1","Toil - ?",75,"SIGN","recallproc1","recall"
"RL_JOL D",96,1,3,"BlockProc1","Sign - Loan","U",76,50,8771,"StudyProc7","JOL","BlockProc1","Sign - ?",76,"LOAN","recallproc1","recall"
"RL_JOL D",96,1,3,"BlockProc1","Ounce - Both","U",77,0,2363,"StudyProc7","JOL","BlockProc1","Ounce - ?",77,"GIVE","recallproc1","recall"
"RL_JOL D",96,1,3,"BlockProc1","Morning - Temperature","U",78,70,9469,"StudyProc7","JOL","BlockProc1","Morning - ?",78,"TEMPATURE","recallproc1","recall"
"RL_JOL D",96,1,3,"BlockProc1","Children - Mirror","U",79,0,3002,"StudyProc7","JOL","BlockProc1","Children - ?",79,"PARENTS","recallproc1","recall"
"RL_JOL D",96,1,3,"BlockProc1","Scar - Main","U",80,0,3702,"StudyProc7","JOL","BlockProc1","Scar - ?",80,"CUT","recallproc1","recall"
"RL_JOL D",97,1,3,"BlockProc1","Long - Extension","B",1,20,6164,"StudyProc3","JOL","BlockProc1","Long - ?",1,"","recallproc1","recall"
"RL_JOL D",97,1,3,"BlockProc1","Game - Clue","B",2,50,6567,"StudyProc3","JOL","BlockProc1","Game - ?",2,"play","recallproc1","recall"
"RL_JOL D",97,1,3,"BlockProc1","Plant - Cactus","B",3,100,6139,"StudyProc3","JOL","BlockProc1","Plant - ?",3,"tree","recallproc1","recall"
"RL_JOL D",97,1,3,"BlockProc1","Tie - Shoelace","B",4,100,3361,"StudyProc3","JOL","BlockProc1","Tie - ?",4,"shoelace","recallproc1","recall"
"RL_JOL D",97,1,3,"BlockProc1","Mystery - Detective","B",5,100,9154,"StudyProc3","JOL","BlockProc1","Mystery - ?",5,"detective","recallproc1","recall"
"RL_JOL D",97,1,3,"BlockProc1","End - Adjourn","B",6,100,5223,"StudyProc3","JOL","BlockProc1","End - ?",6,"finish","recallproc1","recall"
"RL_JOL D",97,1,3,"BlockProc1","Dog - Furry","B",7,30,10312,"StudyProc3","JOL","BlockProc1","Dog - ?",7,"furry","recallproc1","recall"
"RL_JOL D",97,1,3,"BlockProc1","Trash - Litter","B",8,30,3738,"StudyProc3","JOL","BlockProc1","Trash - ?",8,"","recallproc1","recall"
"RL_JOL D",97,1,3,"BlockProc1","Red - Cherry","B",9,80,6525,"StudyProc3","JOL","BlockProc1","Red - ?",9,"","recallproc1","recall"
"RL_JOL D",97,1,3,"BlockProc1","Head - Scalp","B",10,100,3536,"StudyProc3","JOL","BlockProc1","Head - ?",10,"scalp","recallproc1","recall"
"RL_JOL D",97,1,3,"BlockProc1","Car - Driver","B",11,40,23576,"StudyProc3","JOL","BlockProc1","Car - ?",11,"driver","recallproc1","recall"
"RL_JOL D",97,1,3,"BlockProc1","Cut - Chop","B",12,100,2208,"StudyProc3","JOL","BlockProc1","Cut - ?",12,"chop","recallproc1","recall"
"RL_JOL D",97,1,3,"BlockProc1","Donkey - Mule","B",13,100,3018,"StudyProc3","JOL","BlockProc1","Donkey - ?",13,"mule","recallproc1","recall"
"RL_JOL D",97,1,3,"BlockProc1","Paper - Document","B",14,100,5242,"StudyProc3","JOL","BlockProc1","Paper - ?",14,"book","recallproc1","recall"
"RL_JOL D",97,1,3,"BlockProc1","Smell - Incense","B",15,100,8913,"StudyProc3","JOL","BlockProc1","Smell - ?",15,"inscense","recallproc1","recall"
"RL_JOL D",97,1,3,"BlockProc1","Eat - Dine","B",16,100,5031,"StudyProc3","JOL","BlockProc1","Eat - ?",16,"dinner","recallproc1","recall"
"RL_JOL D",97,1,3,"BlockProc1","Scissors - Shears","B",17,100,4833,"StudyProc3","JOL","BlockProc1","Scissors - ?",17,"shears","recallproc1","recall"
"RL_JOL D",97,1,3,"BlockProc1","Fight - Feud","B",18,100,3261,"StudyProc3","JOL","BlockProc1","Fight - ?",18,"tussel","recallproc1","recall"
"RL_JOL D",97,1,3,"BlockProc1","Cold - Chill","B",19,100,7297,"StudyProc3","JOL","BlockProc1","Cold - ?",19,"chill","recallproc1","recall"
"RL_JOL D",97,1,3,"BlockProc1","Love - Affection","B",20,100,3429,"StudyProc3","JOL","BlockProc1","Love - ?",20,"tender","recallproc1","recall"
"RL_JOL D",97,1,3,"BlockProc1","Flip - Turn","F",21,100,3854,"StudyProc3","JOL","BlockProc1","Flip - ?",21,"turn","recallproc1","recall"
"RL_JOL D",97,1,3,"BlockProc1","Windshield - Car","F",22,20,7579,"StudyProc3","JOL","BlockProc1","Windshield - ?",22,"car","recallproc1","recall"
"RL_JOL D",97,1,3,"BlockProc1","Villain - Bad","F",23,20,6384,"StudyProc3","JOL","BlockProc1","Villain - ?",23,"bad","recallproc1","recall"
"RL_JOL D",97,1,3,"BlockProc1","Penguin - Bird","F",24,100,3538,"StudyProc3","JOL","BlockProc1","Penguin - ?",24,"bird","recallproc1","recall"
"RL_JOL D",97,1,3,"BlockProc1","Actress - Star","F",25,100,5430,"StudyProc3","JOL","BlockProc1","Actress - ?",25,"star","recallproc1","recall"
"RL_JOL D",97,1,3,"BlockProc1","Thimble - Thread","F",26,100,3023,"StudyProc3","JOL","BlockProc1","Thimble - ?",26,"thread","recallproc1","recall"
"RL_JOL D",97,1,3,"BlockProc1","Revenge - Even","F",27,100,6793,"StudyProc3","JOL","BlockProc1","Revenge - ?",27,"even","recallproc1","recall"
"RL_JOL D",97,1,3,"BlockProc1","Balloon - Pop","F",28,100,8256,"StudyProc3","JOL","BlockProc1","Balloon - ?",28,"pop","recallproc1","recall"
"RL_JOL D",97,1,3,"BlockProc1","Strawberry - Fruit","F",29,100,6615,"StudyProc3","JOL","BlockProc1","Strawberry - ?",29,"fruit","recallproc1","recall"
"RL_JOL D",97,1,3,"BlockProc1","Favorite - Best","F",30,20,12031,"StudyProc3","JOL","BlockProc1","Favorite - ?",30,"best","recallproc1","recall"
"RL_JOL D",97,1,3,"BlockProc1","Panther - Cat","F",31,100,4587,"StudyProc3","JOL","BlockProc1","Panther - ?",31,"cat","recallproc1","recall"
"RL_JOL D",97,1,3,"BlockProc1","Breakable - Glass","F",32,20,3802,"StudyProc3","JOL","BlockProc1","Breakable - ?",32,"glass","recallproc1","recall"
"RL_JOL D",97,1,3,"BlockProc1","Coffin - Dead","F",33,100,6726,"StudyProc3","JOL","BlockProc1","Coffin - ?",33,"dead","recallproc1","recall"
"RL_JOL D",97,1,3,"BlockProc1","Aircraft - Plane","F",34,100,5850,"StudyProc3","JOL","BlockProc1","Aircraft - ?",34,"plane","recallproc1","recall"
"RL_JOL D",97,1,3,"BlockProc1","Sardine - Fish","F",35,90,17686,"StudyProc3","JOL","BlockProc1","Sardine - ?",35,"fish","recallproc1","recall"
"RL_JOL D",97,1,3,"BlockProc1","League - Baseball","F",36,40,4828,"StudyProc3","JOL","BlockProc1","League - ?",36,"baseball","recallproc1","recall"
"RL_JOL D",97,1,3,"BlockProc1","Banker - Money","F",37,100,6990,"StudyProc3","JOL","BlockProc1","Banker - ?",37,"money","recallproc1","recall"
"RL_JOL D",97,1,3,"BlockProc1","Truthful - Honest","F",38,50,10487,"StudyProc3","JOL","BlockProc1","Truthful - ?",38,"honest","recallproc1","recall"
"RL_JOL D",97,1,3,"BlockProc1","Nap - Sleep","F",39,100,3567,"StudyProc3","JOL","BlockProc1","Nap - ?",39,"sleep","recallproc1","recall"
"RL_JOL D",97,1,3,"BlockProc1","Brawl - Fight","F",40,100,5377,"StudyProc3","JOL","BlockProc1","Brawl - ?",40,"fight","recallproc1","recall"
"RL_JOL D",97,1,3,"BlockProc1","Shave - Razor","S",41,100,7205,"StudyProc7","JOL","BlockProc1","Shave - ?",41,"razor","recallproc1","recall"
"RL_JOL D",97,1,3,"BlockProc1","Equal - Rights","S",42,100,10463,"StudyProc7","JOL","BlockProc1","Equal - ?",42,"rights","recallproc1","recall"
"RL_JOL D",97,1,3,"BlockProc1","Jar - Mason","S",43,10,5681,"StudyProc7","JOL","BlockProc1","Jar - ?",43,"mason","recallproc1","recall"
"RL_JOL D",97,1,3,"BlockProc1","Wax - Candle","S",44,90,3940,"StudyProc7","JOL","BlockProc1","Wax - ?",44,"candle","recallproc1","recall"
"RL_JOL D",97,1,3,"BlockProc1","Bracelet - Wrist","S",45,50,6215,"StudyProc7","JOL","BlockProc1","Bracelet - ?",45,"wrist","recallproc1","recall"
"RL_JOL D",97,1,3,"BlockProc1","Carbon - Element","S",46,NA,66,"StudyProc7","JOL","BlockProc1","Carbon - ?",46,"moon","recallproc1","recall"
"RL_JOL D",97,1,3,"BlockProc1","Away - Gone","S",47,100,3387,"StudyProc7","JOL","BlockProc1","Away - ?",47,"gone","recallproc1","recall"
"RL_JOL D",97,1,3,"BlockProc1","Drink - Water","S",48,100,4282,"StudyProc7","JOL","BlockProc1","Drink - ?",48,"water","recallproc1","recall"
"RL_JOL D",97,1,3,"BlockProc1","Ground - Earth","S",49,100,13326,"StudyProc7","JOL","BlockProc1","Ground - ?",49,"earth","recallproc1","recall"
"RL_JOL D",97,1,3,"BlockProc1","Lonely - Alone","S",50,100,5269,"StudyProc7","JOL","BlockProc1","Lonely - ?",50,"alone","recallproc1","recall"
"RL_JOL D",97,1,3,"BlockProc1","Wet - Dry","S",51,70,5238,"StudyProc7","JOL","BlockProc1","Wet - ?",51,"dry","recallproc1","recall"
"RL_JOL D",97,1,3,"BlockProc1","Seatbelt - Safety","S",52,40,8180,"StudyProc7","JOL","BlockProc1","Seatbelt - ?",52,"safety","recallproc1","recall"
"RL_JOL D",97,1,3,"BlockProc1","Lie - Truth","S",53,0,4976,"StudyProc7","JOL","BlockProc1","Lie - ?",53,"truth","recallproc1","recall"
"RL_JOL D",97,1,3,"BlockProc1","Communication - Phone","S",54,90,4770,"StudyProc7","JOL","BlockProc1","Communication - ?",54,"phone","recallproc1","recall"
"RL_JOL D",97,1,3,"BlockProc1","Reel - Rod","S",55,100,3477,"StudyProc7","JOL","BlockProc1","Reel - ?",55,"rod","recallproc1","recall"
"RL_JOL D",97,1,3,"BlockProc1","Tick - Flea","S",56,100,2383,"StudyProc7","JOL","BlockProc1","Tick - ?",56,"flea","recallproc1","recall"
"RL_JOL D",97,1,3,"BlockProc1","Noise - Loud","S",57,90,3607,"StudyProc7","JOL","BlockProc1","Noise - ?",57,"loud","recallproc1","recall"
"RL_JOL D",97,1,3,"BlockProc1","Have - Own","S",58,90,7899,"StudyProc7","JOL","BlockProc1","Have - ?",58,"obtain","recallproc1","recall"
"RL_JOL D",97,1,3,"BlockProc1","Temper - Tantrum","S",59,0,6575,"StudyProc7","JOL","BlockProc1","Temper - ?",59,"angry","recallproc1","recall"
"RL_JOL D",97,1,3,"BlockProc1","Tan - Sun","S",60,80,4310,"StudyProc7","JOL","BlockProc1","Tan - ?",60,"sun","recallproc1","recall"
"RL_JOL D",97,1,3,"BlockProc1","Maroon - Justice","U",61,0,7566,"StudyProc7","JOL","BlockProc1","Maroon - ?",61,"red","recallproc1","recall"
"RL_JOL D",97,1,3,"BlockProc1","Cloth - Stretch","U",62,0,4438,"StudyProc7","JOL","BlockProc1","Cloth - ?",62,"line","recallproc1","recall"
"RL_JOL D",97,1,3,"BlockProc1","Steak - Give","U",63,0,3908,"StudyProc7","JOL","BlockProc1","Steak - ?",63,"","recallproc1","recall"
"RL_JOL D",97,1,3,"BlockProc1","Election - Maze","U",64,30,3591,"StudyProc7","JOL","BlockProc1","Election - ?",64,"job","recallproc1","recall"
"RL_JOL D",97,1,3,"BlockProc1","Charm - Vehicle","U",65,0,5460,"StudyProc7","JOL","BlockProc1","Charm - ?",65,"bracelet","recallproc1","recall"
"RL_JOL D",97,1,3,"BlockProc1","Obtain - Meat","U",66,0,4320,"StudyProc7","JOL","BlockProc1","Obtain - ?",66,"have","recallproc1","recall"
"RL_JOL D",97,1,3,"BlockProc1","Able - Crackle","U",67,0,2627,"StudyProc7","JOL","BlockProc1","Able - ?",67,"hand","recallproc1","recall"
"RL_JOL D",97,1,3,"BlockProc1","Shake - Shell","U",68,10,5877,"StudyProc7","JOL","BlockProc1","Shake - ?",68,"toss","recallproc1","recall"
"RL_JOL D",97,1,3,"BlockProc1","Fiction - Listen","U",69,0,5427,"StudyProc7","JOL","BlockProc1","Fiction - ?",69,"listen","recallproc1","recall"
"RL_JOL D",97,1,3,"BlockProc1","Joke - Keys","U",70,0,1917,"StudyProc7","JOL","BlockProc1","Joke - ?",70,"laugh","recallproc1","recall"
"RL_JOL D",97,1,3,"BlockProc1","Clothes - Cake","U",71,0,4079,"StudyProc7","JOL","BlockProc1","Clothes - ?",71,"cake","recallproc1","recall"
"RL_JOL D",97,1,3,"BlockProc1","Hate - Name","U",72,0,4729,"StudyProc7","JOL","BlockProc1","Hate - ?",72,"dislike","recallproc1","recall"
"RL_JOL D",97,1,3,"BlockProc1","Bang - Fuzzy","U",73,0,2660,"StudyProc7","JOL","BlockProc1","Bang - ?",73,"pop","recallproc1","recall"
"RL_JOL D",97,1,3,"BlockProc1","Clear - Moat","U",74,0,5930,"StudyProc7","JOL","BlockProc1","Clear - ?",74,"","recallproc1","recall"
"RL_JOL D",97,1,3,"BlockProc1","Toil - Lease","U",75,0,4894,"StudyProc7","JOL","BlockProc1","Toil - ?",75,"argue","recallproc1","recall"
"RL_JOL D",97,1,3,"BlockProc1","Sign - Loan","U",76,80,5775,"StudyProc7","JOL","BlockProc1","Sign - ?",76,"lease","recallproc1","recall"
"RL_JOL D",97,1,3,"BlockProc1","Ounce - Both","U",77,0,2017,"StudyProc7","JOL","BlockProc1","Ounce - ?",77,"","recallproc1","recall"
"RL_JOL D",97,1,3,"BlockProc1","Morning - Temperature","U",78,100,6911,"StudyProc7","JOL","BlockProc1","Morning - ?",78,"weather","recallproc1","recall"
"RL_JOL D",97,1,3,"BlockProc1","Children - Mirror","U",79,70,8094,"StudyProc7","JOL","BlockProc1","Children - ?",79,"","recallproc1","recall"
"RL_JOL D",97,1,3,"BlockProc1","Scar - Main","U",80,0,2363,"StudyProc7","JOL","BlockProc1","Scar - ?",80,"","recallproc1","recall"
"RL_JOL D",98,1,3,"BlockProc1","Long - Extension","B",1,0,3933,"StudyProc3","JOL","BlockProc1","Long - ?",1,"","recallproc1","recall"
"RL_JOL D",98,1,3,"BlockProc1","Game - Clue","B",2,70,9194,"StudyProc3","JOL","BlockProc1","Game - ?",2,"","recallproc1","recall"
"RL_JOL D",98,1,3,"BlockProc1","Plant - Cactus","B",3,70,4390,"StudyProc3","JOL","BlockProc1","Plant - ?",3,"","recallproc1","recall"
"RL_JOL D",98,1,3,"BlockProc1","Tie - Shoelace","B",4,0,3317,"StudyProc3","JOL","BlockProc1","Tie - ?",4,"shoelace","recallproc1","recall"
"RL_JOL D",98,1,3,"BlockProc1","Mystery - Detective","B",5,60,7921,"StudyProc3","JOL","BlockProc1","Mystery - ?",5,"novel","recallproc1","recall"
"RL_JOL D",98,1,3,"BlockProc1","End - Adjourn","B",6,0,6047,"StudyProc3","JOL","BlockProc1","End - ?",6,"","recallproc1","recall"
"RL_JOL D",98,1,3,"BlockProc1","Dog - Furry","B",7,0,4546,"StudyProc3","JOL","BlockProc1","Dog - ?",7,"","recallproc1","recall"
"RL_JOL D",98,1,3,"BlockProc1","Trash - Litter","B",8,80,8264,"StudyProc3","JOL","BlockProc1","Trash - ?",8,"","recallproc1","recall"
"RL_JOL D",98,1,3,"BlockProc1","Red - Cherry","B",9,90,3982,"StudyProc3","JOL","BlockProc1","Red - ?",9,"","recallproc1","recall"
"RL_JOL D",98,1,3,"BlockProc1","Head - Scalp","B",10,50,6038,"StudyProc3","JOL","BlockProc1","Head - ?",10,"scalp","recallproc1","recall"
"RL_JOL D",98,1,3,"BlockProc1","Car - Driver","B",11,90,4254,"StudyProc3","JOL","BlockProc1","Car - ?",11,"windsheild","recallproc1","recall"
"RL_JOL D",98,1,3,"BlockProc1","Cut - Chop","B",12,90,3796,"StudyProc3","JOL","BlockProc1","Cut - ?",12,"","recallproc1","recall"
"RL_JOL D",98,1,3,"BlockProc1","Donkey - Mule","B",13,50,5120,"StudyProc3","JOL","BlockProc1","Donkey - ?",13,"mule","recallproc1","recall"
"RL_JOL D",98,1,3,"BlockProc1","Paper - Document","B",14,0,5282,"StudyProc3","JOL","BlockProc1","Paper - ?",14,"","recallproc1","recall"
"RL_JOL D",98,1,3,"BlockProc1","Smell - Incense","B",15,0,4191,"StudyProc3","JOL","BlockProc1","Smell - ?",15,"","recallproc1","recall"
"RL_JOL D",98,1,3,"BlockProc1","Eat - Dine","B",16,0,2983,"StudyProc3","JOL","BlockProc1","Eat - ?",16,"","recallproc1","recall"
"RL_JOL D",98,1,3,"BlockProc1","Scissors - Shears","B",17,0,5847,"StudyProc3","JOL","BlockProc1","Scissors - ?",17,"shears","recallproc1","recall"
"RL_JOL D",98,1,3,"BlockProc1","Fight - Feud","B",18,0,2961,"StudyProc3","JOL","BlockProc1","Fight - ?",18,"","recallproc1","recall"
"RL_JOL D",98,1,3,"BlockProc1","Cold - Chill","B",19,90,4172,"StudyProc3","JOL","BlockProc1","Cold - ?",19,"chill","recallproc1","recall"
"RL_JOL D",98,1,3,"BlockProc1","Love - Affection","B",20,100,3453,"StudyProc3","JOL","BlockProc1","Love - ?",20,"affection","recallproc1","recall"
"RL_JOL D",98,1,3,"BlockProc1","Flip - Turn","F",21,0,4567,"StudyProc3","JOL","BlockProc1","Flip - ?",21,"cup","recallproc1","recall"
"RL_JOL D",98,1,3,"BlockProc1","Windshield - Car","F",22,70,29272,"StudyProc3","JOL","BlockProc1","Windshield - ?",22,"car","recallproc1","recall"
"RL_JOL D",98,1,3,"BlockProc1","Villain - Bad","F",23,100,4898,"StudyProc3","JOL","BlockProc1","Villain - ?",23,"bad","recallproc1","recall"
"RL_JOL D",98,1,3,"BlockProc1","Penguin - Bird","F",24,90,4901,"StudyProc3","JOL","BlockProc1","Penguin - ?",24,"bird","recallproc1","recall"
"RL_JOL D",98,1,3,"BlockProc1","Actress - Star","F",25,70,8367,"StudyProc3","JOL","BlockProc1","Actress - ?",25,"star","recallproc1","recall"
"RL_JOL D",98,1,3,"BlockProc1","Thimble - Thread","F",26,20,11027,"StudyProc3","JOL","BlockProc1","Thimble - ?",26,"needle","recallproc1","recall"
"RL_JOL D",98,1,3,"BlockProc1","Revenge - Even","F",27,70,6726,"StudyProc3","JOL","BlockProc1","Revenge - ?",27,"even","recallproc1","recall"
"RL_JOL D",98,1,3,"BlockProc1","Balloon - Pop","F",28,80,3543,"StudyProc3","JOL","BlockProc1","Balloon - ?",28,"pop","recallproc1","recall"
"RL_JOL D",98,1,3,"BlockProc1","Strawberry - Fruit","F",29,80,3335,"StudyProc3","JOL","BlockProc1","Strawberry - ?",29,"fruit","recallproc1","recall"
"RL_JOL D",98,1,3,"BlockProc1","Favorite - Best","F",30,0,5789,"StudyProc3","JOL","BlockProc1","Favorite - ?",30,"like","recallproc1","recall"
"RL_JOL D",98,1,3,"BlockProc1","Panther - Cat","F",31,0,12068,"StudyProc3","JOL","BlockProc1","Panther - ?",31,"cat","recallproc1","recall"
"RL_JOL D",98,1,3,"BlockProc1","Breakable - Glass","F",32,70,3108,"StudyProc3","JOL","BlockProc1","Breakable - ?",32,"","recallproc1","recall"
"RL_JOL D",98,1,3,"BlockProc1","Coffin - Dead","F",33,70,13151,"StudyProc3","JOL","BlockProc1","Coffin - ?",33,"dead","recallproc1","recall"
"RL_JOL D",98,1,3,"BlockProc1","Aircraft - Plane","F",34,80,4595,"StudyProc3","JOL","BlockProc1","Aircraft - ?",34,"plane","recallproc1","recall"
"RL_JOL D",98,1,3,"BlockProc1","Sardine - Fish","F",35,60,3945,"StudyProc3","JOL","BlockProc1","Sardine - ?",35,"fish","recallproc1","recall"
"RL_JOL D",98,1,3,"BlockProc1","League - Baseball","F",36,80,6483,"StudyProc3","JOL","BlockProc1","League - ?",36,"catcher","recallproc1","recall"
"RL_JOL D",98,1,3,"BlockProc1","Banker - Money","F",37,80,3366,"StudyProc3","JOL","BlockProc1","Banker - ?",37,"","recallproc1","recall"
"RL_JOL D",98,1,3,"BlockProc1","Truthful - Honest","F",38,100,3724,"StudyProc3","JOL","BlockProc1","Truthful - ?",38,"dishonest","recallproc1","recall"
"RL_JOL D",98,1,3,"BlockProc1","Nap - Sleep","F",39,100,6017,"StudyProc3","JOL","BlockProc1","Nap - ?",39,"","recallproc1","recall"
"RL_JOL D",98,1,3,"BlockProc1","Brawl - Fight","F",40,90,3856,"StudyProc3","JOL","BlockProc1","Brawl - ?",40,"fight","recallproc1","recall"
"RL_JOL D",98,1,3,"BlockProc1","Shave - Razor","S",41,90,6857,"StudyProc7","JOL","BlockProc1","Shave - ?",41,"ravsor","recallproc1","recall"
"RL_JOL D",98,1,3,"BlockProc1","Equal - Rights","S",42,30,6894,"StudyProc7","JOL","BlockProc1","Equal - ?",42,"even","recallproc1","recall"
"RL_JOL D",98,1,3,"BlockProc1","Jar - Mason","S",43,30,3582,"StudyProc7","JOL","BlockProc1","Jar - ?",43,"mason","recallproc1","recall"
"RL_JOL D",98,1,3,"BlockProc1","Wax - Candle","S",44,100,4198,"StudyProc7","JOL","BlockProc1","Wax - ?",44,"candle","recallproc1","recall"
"RL_JOL D",98,1,3,"BlockProc1","Bracelet - Wrist","S",45,40,12040,"StudyProc7","JOL","BlockProc1","Bracelet - ?",45,"wrist","recallproc1","recall"
"RL_JOL D",98,1,3,"BlockProc1","Carbon - Element","S",46,NA,229,"StudyProc7","JOL","BlockProc1","Carbon - ?",46,"","recallproc1","recall"
"RL_JOL D",98,1,3,"BlockProc1","Away - Gone","S",47,20,4022,"StudyProc7","JOL","BlockProc1","Away - ?",47,"gone","recallproc1","recall"
"RL_JOL D",98,1,3,"BlockProc1","Drink - Water","S",48,80,3218,"StudyProc7","JOL","BlockProc1","Drink - ?",48,"water","recallproc1","recall"
"RL_JOL D",98,1,3,"BlockProc1","Ground - Earth","S",49,90,6072,"StudyProc7","JOL","BlockProc1","Ground - ?",49,"earth","recallproc1","recall"
"RL_JOL D",98,1,3,"BlockProc1","Lonely - Alone","S",50,100,5270,"StudyProc7","JOL","BlockProc1","Lonely - ?",50,"","recallproc1","recall"
"RL_JOL D",98,1,3,"BlockProc1","Wet - Dry","S",51,80,4975,"StudyProc7","JOL","BlockProc1","Wet - ?",51,"water","recallproc1","recall"
"RL_JOL D",98,1,3,"BlockProc1","Seatbelt - Safety","S",52,100,10482,"StudyProc7","JOL","BlockProc1","Seatbelt - ?",52,"safty","recallproc1","recall"
"RL_JOL D",98,1,3,"BlockProc1","Lie - Truth","S",53,90,4356,"StudyProc7","JOL","BlockProc1","Lie - ?",53,"","recallproc1","recall"
"RL_JOL D",98,1,3,"BlockProc1","Communication - Phone","S",54,100,4450,"StudyProc7","JOL","BlockProc1","Communication - ?",54,"phone","recallproc1","recall"
"RL_JOL D",98,1,3,"BlockProc1","Reel - Rod","S",55,70,5216,"StudyProc7","JOL","BlockProc1","Reel - ?",55,"rod","recallproc1","recall"
"RL_JOL D",98,1,3,"BlockProc1","Tick - Flea","S",56,40,4856,"StudyProc7","JOL","BlockProc1","Tick - ?",56,"flea","recallproc1","recall"
"RL_JOL D",98,1,3,"BlockProc1","Noise - Loud","S",57,60,3139,"StudyProc7","JOL","BlockProc1","Noise - ?",57,"sound","recallproc1","recall"
"RL_JOL D",98,1,3,"BlockProc1","Have - Own","S",58,40,5134,"StudyProc7","JOL","BlockProc1","Have - ?",58,"havent","recallproc1","recall"
"RL_JOL D",98,1,3,"BlockProc1","Temper - Tantrum","S",59,100,3350,"StudyProc7","JOL","BlockProc1","Temper - ?",59,"mood","recallproc1","recall"
"RL_JOL D",98,1,3,"BlockProc1","Tan - Sun","S",60,90,4397,"StudyProc7","JOL","BlockProc1","Tan - ?",60,"sun","recallproc1","recall"
"RL_JOL D",98,1,3,"BlockProc1","Maroon - Justice","U",61,0,4320,"StudyProc7","JOL","BlockProc1","Maroon - ?",61,"officer","recallproc1","recall"
"RL_JOL D",98,1,3,"BlockProc1","Cloth - Stretch","U",62,50,4151,"StudyProc7","JOL","BlockProc1","Cloth - ?",62,"","recallproc1","recall"
"RL_JOL D",98,1,3,"BlockProc1","Steak - Give","U",63,0,4107,"StudyProc7","JOL","BlockProc1","Steak - ?",63,"meat","recallproc1","recall"
"RL_JOL D",98,1,3,"BlockProc1","Election - Maze","U",64,0,4503,"StudyProc7","JOL","BlockProc1","Election - ?",64,"","recallproc1","recall"
"RL_JOL D",98,1,3,"BlockProc1","Charm - Vehicle","U",65,0,3842,"StudyProc7","JOL","BlockProc1","Charm - ?",65,"","recallproc1","recall"
"RL_JOL D",98,1,3,"BlockProc1","Obtain - Meat","U",66,0,3145,"StudyProc7","JOL","BlockProc1","Obtain - ?",66,"","recallproc1","recall"
"RL_JOL D",98,1,3,"BlockProc1","Able - Crackle","U",67,0,3720,"StudyProc7","JOL","BlockProc1","Able - ?",67,"can","recallproc1","recall"
